index,attitude.roll,attitude.pitch,attitude.yaw,userAcceleration.x,userAcceleration.y,userAcceleration.z,act,id,weight,height,age,gender
28981,0.469622,-1.105773,-0.183192,-0.232847,-0.688916,0.381181,0.0,1.0,72.0,180.0,28.0,1.0
28982,0.515396,-1.156214,-0.173921,-0.057052,-0.6075149999999999,0.339946,0.0,1.0,72.0,180.0,28.0,1.0
28983,0.557269,-1.211266,-0.162511,0.08624,0.302249,-0.259253,0.0,1.0,72.0,180.0,28.0,1.0
28984,0.601952,-1.255618,-0.113787,0.024963,0.7700229999999999,-0.537816,0.0,1.0,72.0,180.0,28.0,1.0
28985,0.674214,-1.284314,0.008391,0.011223,0.471664,-0.478298,0.0,1.0,72.0,180.0,28.0,1.0
28986,0.789042,-1.309334,0.175902,-0.274712,-0.026926,-0.468334,0.0,1.0,72.0,180.0,28.0,1.0
28987,0.888567,-1.323441,0.307796,-0.381076,-0.086629,-0.465173,0.0,1.0,72.0,180.0,28.0,1.0
28988,0.951838,-1.321871,0.371508,-0.398807,-0.165116,0.046977,0.0,1.0,72.0,180.0,28.0,1.0
28989,0.997962,-1.309422,0.361271,0.055991,-0.037187,0.717413,0.0,1.0,72.0,180.0,28.0,1.0
28990,1.008225,-1.297331,0.289135,-0.003914,0.164662,0.504051,0.0,1.0,72.0,180.0,28.0,1.0
28991,1.03099,-1.3041049999999998,0.29055,0.617103,0.61128,-0.168299,0.0,1.0,72.0,180.0,28.0,1.0
28992,0.932759,-1.300917,0.24686,0.616693,0.589572,0.729103,0.0,1.0,72.0,180.0,28.0,1.0
28993,0.92028,-1.302969,0.263966,0.347927,0.668144,0.11946500000000003,0.0,1.0,72.0,180.0,28.0,1.0
28994,0.979229,-1.305638,0.330554,-0.040771,0.122977,0.23329,0.0,1.0,72.0,180.0,28.0,1.0
28995,1.016302,-1.297903,0.326629,-0.140757,-0.07563500000000001,0.282994,0.0,1.0,72.0,180.0,28.0,1.0
28996,1.059635,-1.291672,0.32546,-0.168518,-0.117028,0.172596,0.0,1.0,72.0,180.0,28.0,1.0
28997,1.083513,-1.2886799999999998,0.331724,-0.215636,-0.26105100000000003,-0.198089,0.0,1.0,72.0,180.0,28.0,1.0
28998,1.087615,-1.288844,0.340765,-0.172969,-0.305012,-0.131866,0.0,1.0,72.0,180.0,28.0,1.0
28999,1.087485,-1.291651,0.345092,-0.13263,-0.283801,-0.101411,0.0,1.0,72.0,180.0,28.0,1.0
29000,1.081976,-1.292736,0.332787,-0.20119,-0.406506,0.069287,0.0,1.0,72.0,180.0,28.0,1.0
29001,1.070776,-1.2921,0.29830100000000004,-0.181012,-0.345921,-0.352976,0.0,1.0,72.0,180.0,28.0,1.0
29002,1.042781,-1.293113,0.250772,-0.071891,-0.276574,-0.238028,0.0,1.0,72.0,180.0,28.0,1.0
29003,1.019268,-1.29322,0.20562,0.01525,-0.228477,-0.012278,0.0,1.0,72.0,180.0,28.0,1.0
29004,0.999395,-1.2841790000000002,0.160066,0.088969,-0.232338,-0.026653,0.0,1.0,72.0,180.0,28.0,1.0
29005,0.982344,-1.264371,0.129173,0.231141,-0.281986,-0.119009,0.0,1.0,72.0,180.0,28.0,1.0
29006,0.933636,-1.233742,0.088848,0.459185,-0.227363,0.009371,0.0,1.0,72.0,180.0,28.0,1.0
29007,0.812495,-1.192214,-0.004999,0.432482,0.230402,-0.30408,0.0,1.0,72.0,180.0,28.0,1.0
29008,0.6568390000000001,-1.149667,-0.125617,-0.099522,0.565033,-0.088813,0.0,1.0,72.0,180.0,28.0,1.0
29009,0.5156310000000001,-1.1119059999999998,-0.215423,-0.20196,0.817292,0.319741,0.0,1.0,72.0,180.0,28.0,1.0
29010,0.393073,-1.074626,-0.27715,-0.174255,0.945768,0.343922,0.0,1.0,72.0,180.0,28.0,1.0
29011,0.30035500000000004,-1.041836,-0.313714,-0.173927,0.517329,0.5072300000000001,0.0,1.0,72.0,180.0,28.0,1.0
29012,0.26033,-1.014956,-0.32839,-0.207716,0.18724,0.039718,0.0,1.0,72.0,180.0,28.0,1.0
29013,0.258775,-0.999164,-0.32791,0.034259,0.005447,0.024787,0.0,1.0,72.0,180.0,28.0,1.0
29014,0.287599,-1.000197,-0.312658,-0.003672,-0.046747,0.16703900000000002,0.0,1.0,72.0,180.0,28.0,1.0
29015,0.333539,-1.016033,-0.28814,-0.059837,-0.197743,0.23195900000000005,0.0,1.0,72.0,180.0,28.0,1.0
29016,0.38218,-1.04023,-0.259353,-0.127299,-0.411272,0.276911,0.0,1.0,72.0,180.0,28.0,1.0
29017,0.432848,-1.07138,-0.230114,-0.180876,-0.4628229999999999,0.268127,0.0,1.0,72.0,180.0,28.0,1.0
29018,0.4909770000000001,-1.110225,-0.201035,-0.233845,-0.476152,0.258144,0.0,1.0,72.0,180.0,28.0,1.0
29019,0.551397,-1.157831,-0.175028,-0.069508,-0.29829,0.058543,0.0,1.0,72.0,180.0,28.0,1.0
29020,0.608816,-1.2084629999999998,-0.145268,-0.021552,-0.086104,-0.139479,0.0,1.0,72.0,180.0,28.0,1.0
29021,0.653467,-1.245861,-0.092543,0.002887,0.414801,-0.347947,0.0,1.0,72.0,180.0,28.0,1.0
29022,0.695192,-1.270459,0.003193,-0.050431,-0.042731,-0.278764,0.0,1.0,72.0,180.0,28.0,1.0
29023,0.7739060000000001,-1.295771,0.148284,-0.135627,-0.113129,-0.294317,0.0,1.0,72.0,180.0,28.0,1.0
29024,0.870276,-1.315086,0.291453,-0.270102,-0.082337,-0.208644,0.0,1.0,72.0,180.0,28.0,1.0
29025,0.971187,-1.3231,0.394698,-0.359165,0.058825,-0.095119,0.0,1.0,72.0,180.0,28.0,1.0
29026,1.063483,-1.3216290000000002,0.455972,-0.457214,0.117582,-0.283957,0.0,1.0,72.0,180.0,28.0,1.0
29027,1.123312,-1.317517,0.491372,-0.5154340000000001,0.108046,-0.222442,0.0,1.0,72.0,180.0,28.0,1.0
29028,1.105676,-1.308902,0.44417,0.030138,0.04304,0.591597,0.0,1.0,72.0,180.0,28.0,1.0
29029,1.032336,-1.299751,0.317494,0.109126,0.12526900000000002,0.254583,0.0,1.0,72.0,180.0,28.0,1.0
29030,1.010152,-1.305411,0.290636,0.672529,0.181035,-0.369582,0.0,1.0,72.0,180.0,28.0,1.0
29031,0.964449,-1.305455,0.28183800000000003,0.454618,0.351312,0.123061,0.0,1.0,72.0,180.0,28.0,1.0
29032,0.97669,-1.307951,0.323642,0.339004,0.261824,0.080428,0.0,1.0,72.0,180.0,28.0,1.0
29033,1.053103,-1.307929,0.404843,0.129615,0.417652,0.08018,0.0,1.0,72.0,180.0,28.0,1.0
29034,1.162358,-1.3025,0.488362,0.004529,0.583124,-0.5401859999999999,0.0,1.0,72.0,180.0,28.0,1.0
29035,1.190929,-1.290773,0.488876,-0.229553,0.182979,-0.12805899999999998,0.0,1.0,72.0,180.0,28.0,1.0
29036,1.192517,-1.28618,0.454934,-0.23950700000000005,-0.182609,0.034952,0.0,1.0,72.0,180.0,28.0,1.0
29037,1.168068,-1.286873,0.409425,-0.199646,-0.270328,-0.044304,0.0,1.0,72.0,180.0,28.0,1.0
29038,1.136652,-1.289592,0.383791,-0.016165000000000002,-0.357374,-0.131799,0.0,1.0,72.0,180.0,28.0,1.0
29039,1.1106790000000002,-1.291201,0.377899,0.093302,-0.238328,-0.223796,0.0,1.0,72.0,180.0,28.0,1.0
29040,1.103209,-1.289459,0.37732,0.017671,-0.302253,-0.057349,0.0,1.0,72.0,180.0,28.0,1.0
29041,1.108034,-1.288123,0.364537,-0.066735,-0.38759,-0.043279000000000005,0.0,1.0,72.0,180.0,28.0,1.0
29042,1.10696,-1.290501,0.339418,0.077181,-0.231634,-0.15328599999999998,0.0,1.0,72.0,180.0,28.0,1.0
29043,1.093118,-1.289623,0.314577,0.165997,-0.141028,-0.24354,0.0,1.0,72.0,180.0,28.0,1.0
29044,1.070987,-1.281856,0.304533,0.254073,-0.086079,-0.27376100000000003,0.0,1.0,72.0,180.0,28.0,1.0
29045,1.033926,-1.272334,0.29177800000000004,0.456122,-0.128946,-0.208414,0.0,1.0,72.0,180.0,28.0,1.0
29046,0.955132,-1.261528,0.23935,0.463422,0.068928,-0.109719,0.0,1.0,72.0,180.0,28.0,1.0
29047,0.8291850000000001,-1.243233,0.156804,0.120009,0.295816,-0.00049,0.0,1.0,72.0,180.0,28.0,1.0
29048,0.68985,-1.21209,0.06651599999999999,-0.1627,0.403385,0.040324,0.0,1.0,72.0,180.0,28.0,1.0
29049,0.5510470000000001,-1.177242,-0.028216,-0.24458,0.646165,0.151391,0.0,1.0,72.0,180.0,28.0,1.0
29050,0.419503,-1.145651,-0.103865,-0.35970100000000005,0.8225870000000001,0.349763,0.0,1.0,72.0,180.0,28.0,1.0
29051,0.312449,-1.117478,-0.158379,-0.236547,0.415775,0.381902,0.0,1.0,72.0,180.0,28.0,1.0
29052,0.252782,-1.095004,-0.178038,-0.25199,0.097718,0.260814,0.0,1.0,72.0,180.0,28.0,1.0
29053,0.22887,-1.079907,-0.1821,0.066924,0.058561,0.143526,0.0,1.0,72.0,180.0,28.0,1.0
29054,0.22114,-1.072739,-0.178348,0.13378900000000002,0.136747,0.219573,0.0,1.0,72.0,180.0,28.0,1.0
29055,0.243415,-1.076673,-0.162733,-0.105667,0.061571,0.175465,0.0,1.0,72.0,180.0,28.0,1.0
29056,0.271614,-1.088581,-0.145494,-0.177911,-0.323714,0.29440500000000003,0.0,1.0,72.0,180.0,28.0,1.0
29057,0.297103,-1.107976,-0.132325,-0.190227,-0.5571659999999999,0.3388,0.0,1.0,72.0,180.0,28.0,1.0
29058,0.322785,-1.135146,-0.118892,-0.16919800000000002,-0.586283,0.35004,0.0,1.0,72.0,180.0,28.0,1.0
29059,0.358864,-1.170034,-0.094293,-0.08705299999999999,-0.435473,0.315407,0.0,1.0,72.0,180.0,28.0,1.0
29060,0.41462,-1.211694,-0.048006,-0.016429,-0.230631,0.2141,0.0,1.0,72.0,180.0,28.0,1.0
29061,0.515423,-1.257642,0.053679,-0.035532999999999995,0.25519200000000003,-0.101835,0.0,1.0,72.0,180.0,28.0,1.0
29062,0.679597,-1.29779,0.241936,-0.066964,0.316622,-0.351847,0.0,1.0,72.0,180.0,28.0,1.0
29063,0.8445290000000001,-1.330391,0.470359,-0.207186,0.194652,-0.681638,0.0,1.0,72.0,180.0,28.0,1.0
29064,0.958399,-1.35377,0.674061,-0.416314,-0.08224,-0.025457,0.0,1.0,72.0,180.0,28.0,1.0
29065,1.0444,-1.3606790000000002,0.800706,-0.427945,-0.140329,0.199518,0.0,1.0,72.0,180.0,28.0,1.0
29066,1.119424,-1.358962,0.8361270000000001,-0.538303,-0.145005,-0.270438,0.0,1.0,72.0,180.0,28.0,1.0
29067,1.132974,-1.3578940000000002,0.816083,-0.165505,-0.234136,0.31807,0.0,1.0,72.0,180.0,28.0,1.0
29068,1.091204,-1.353644,0.748503,0.069962,-0.303526,0.5587489999999999,0.0,1.0,72.0,180.0,28.0,1.0
29069,1.015997,-1.3478709999999998,0.614325,0.228988,0.040324,0.212591,0.0,1.0,72.0,180.0,28.0,1.0
29070,1.025899,-1.351909,0.588937,1.04112,0.761196,0.367984,0.0,1.0,72.0,180.0,28.0,1.0
29071,1.008298,-1.3487360000000002,0.590761,0.578062,0.8103819999999999,0.258658,0.0,1.0,72.0,180.0,28.0,1.0
29072,1.054663,-1.349505,0.6571229999999999,0.234375,0.774934,-0.107024,0.0,1.0,72.0,180.0,28.0,1.0
29073,1.127906,-1.348742,0.716154,0.246202,0.359636,-0.076331,0.0,1.0,72.0,180.0,28.0,1.0
29074,1.2043549999999998,-1.347243,0.7508739999999999,0.196433,0.185529,0.010604,0.0,1.0,72.0,180.0,28.0,1.0
29075,1.261396,-1.348051,0.782281,0.0522,0.023332,-0.100928,0.0,1.0,72.0,180.0,28.0,1.0
29076,1.2909700000000002,-1.3513700000000002,0.826683,-0.14461400000000002,-0.071649,0.003194,0.0,1.0,72.0,180.0,28.0,1.0
29077,1.320409,-1.355928,0.8814620000000001,-0.18957,-0.165756,0.090802,0.0,1.0,72.0,180.0,28.0,1.0
29078,1.362786,-1.3618,0.929651,-0.236039,-0.34225300000000003,0.049127,0.0,1.0,72.0,180.0,28.0,1.0
29079,1.428396,-1.36933,0.982884,-0.055239,-0.411247,-0.145724,0.0,1.0,72.0,180.0,28.0,1.0
29080,1.499674,-1.376595,1.03888,-0.002883,-0.479905,-0.163581,0.0,1.0,72.0,180.0,28.0,1.0
29081,1.570927,-1.383921,1.093891,0.137888,-0.461471,0.10427,0.0,1.0,72.0,180.0,28.0,1.0
29082,1.6283459999999998,-1.388796,1.12771,0.202063,-0.332239,0.07823,0.0,1.0,72.0,180.0,28.0,1.0
29083,1.671024,-1.384796,1.144849,0.254253,-0.217768,-0.035453,0.0,1.0,72.0,180.0,28.0,1.0
29084,1.720549,-1.377609,1.183047,0.394837,-0.104078,-0.5072909999999999,0.0,1.0,72.0,180.0,28.0,1.0
29085,1.7733869999999998,-1.378187,1.2404540000000002,0.3712,-0.030992,-0.299983,0.0,1.0,72.0,180.0,28.0,1.0
29086,1.804304,-1.38481,1.287428,0.375879,0.064243,-0.343484,0.0,1.0,72.0,180.0,28.0,1.0
29087,1.820288,-1.389812,1.329373,0.415715,-0.028146,-0.426224,0.0,1.0,72.0,180.0,28.0,1.0
29088,1.776215,-1.392683,1.318064,0.487157,0.107297,-0.259383,0.0,1.0,72.0,180.0,28.0,1.0
29089,1.643861,-1.39351,1.226313,0.49198,0.151004,-0.199776,0.0,1.0,72.0,180.0,28.0,1.0
29090,1.4476870000000002,-1.387207,1.085445,0.31228,0.380773,0.090483,0.0,1.0,72.0,180.0,28.0,1.0
29091,1.240101,-1.369815,0.943167,0.035702,0.663409,0.377768,0.0,1.0,72.0,180.0,28.0,1.0
29092,1.060853,-1.347218,0.8203010000000001,-0.040106,0.813937,0.381377,0.0,1.0,72.0,180.0,28.0,1.0
29093,0.878467,-1.324977,0.673227,-0.184572,0.923555,0.120793,0.0,1.0,72.0,180.0,28.0,1.0
29094,0.6945180000000001,-1.30735,0.505525,-0.177777,0.627397,0.031082,0.0,1.0,72.0,180.0,28.0,1.0
29095,0.5558310000000001,-1.285056,0.378692,-0.168615,0.583821,-0.005239,0.0,1.0,72.0,180.0,28.0,1.0
29096,0.4668560000000001,-1.257276,0.312572,0.031867,0.579142,0.136934,0.0,1.0,72.0,180.0,28.0,1.0
29097,0.385164,-1.237526,0.281901,0.125907,0.203429,0.397561,0.0,1.0,72.0,180.0,28.0,1.0
29098,0.31908800000000004,-1.219166,0.274884,0.206791,0.087677,0.399327,0.0,1.0,72.0,180.0,28.0,1.0
29099,0.28456,-1.206102,0.286973,0.184513,-0.059813,0.29792,0.0,1.0,72.0,180.0,28.0,1.0
29100,0.273701,-1.199984,0.320324,0.10861300000000003,-0.1385,0.26379,0.0,1.0,72.0,180.0,28.0,1.0
29101,0.262133,-1.19571,0.361486,-0.090585,-0.220225,0.304159,0.0,1.0,72.0,180.0,28.0,1.0
29102,0.239964,-1.194306,0.39685,-0.237677,-0.425017,0.317639,0.0,1.0,72.0,180.0,28.0,1.0
29103,0.210745,-1.196891,0.42371,-0.303699,-0.5601189999999999,0.40808,0.0,1.0,72.0,180.0,28.0,1.0
29104,0.179526,-1.202617,0.442221,-0.25358200000000003,-0.611649,0.450893,0.0,1.0,72.0,180.0,28.0,1.0
29105,0.149595,-1.210358,0.453953,-0.236186,-0.590878,0.40397,0.0,1.0,72.0,180.0,28.0,1.0
29106,0.122526,-1.222957,0.464246,-0.103366,-0.344835,0.151669,0.0,1.0,72.0,180.0,28.0,1.0
29107,0.099273,-1.241034,0.475876,0.004407,-0.19055,-0.05924500000000001,0.0,1.0,72.0,180.0,28.0,1.0
29108,0.078552,-1.256514,0.493013,0.069463,0.223756,-0.46634,0.0,1.0,72.0,180.0,28.0,1.0
29109,0.056424,-1.2641,0.508231,-0.090512,0.498827,-0.8703989999999999,0.0,1.0,72.0,180.0,28.0,1.0
29110,0.028935,-1.256515,0.511432,-0.053621,0.451325,-0.798234,0.0,1.0,72.0,180.0,28.0,1.0
29111,0.033343,-1.241407,0.529463,0.147786,0.200488,-0.43007,0.0,1.0,72.0,180.0,28.0,1.0
29112,0.065292,-1.233488,0.563284,-0.104539,-0.044738,-0.233842,0.0,1.0,72.0,180.0,28.0,1.0
29113,0.107464,-1.232064,0.6132810000000001,-0.279536,-0.24392800000000006,-0.092262,0.0,1.0,72.0,180.0,28.0,1.0
29114,0.15904300000000002,-1.2311450000000002,0.671078,-0.134792,0.005249,0.014915,0.0,1.0,72.0,180.0,28.0,1.0
29115,0.228752,-1.240551,0.7161850000000001,-0.281141,1.141928,0.285831,0.0,1.0,72.0,180.0,28.0,1.0
29116,0.223863,-1.254977,0.6709229999999999,-0.565546,1.592747,-0.230052,0.0,1.0,72.0,180.0,28.0,1.0
29117,0.10373,-1.234823,0.556647,-0.152025,-0.017027,0.399069,0.0,1.0,72.0,180.0,28.0,1.0
29118,0.046637,-1.223977,0.486021,0.461647,-0.806944,0.684237,0.0,1.0,72.0,180.0,28.0,1.0
29119,0.022015,-1.2431299999999998,0.429323,0.570766,-0.619312,0.648357,0.0,1.0,72.0,180.0,28.0,1.0
29120,0.02214,-1.266147,0.370178,0.983777,-0.009906,0.551167,0.0,1.0,72.0,180.0,28.0,1.0
29121,0.0233,-1.282002,0.327949,0.675433,0.674179,0.223942,0.0,1.0,72.0,180.0,28.0,1.0
29122,0.043852,-1.299841,0.365412,0.387132,0.637452,0.08364400000000001,0.0,1.0,72.0,180.0,28.0,1.0
29123,0.139353,-1.339052,0.492404,0.157996,0.194335,0.226129,0.0,1.0,72.0,180.0,28.0,1.0
29124,0.31182,-1.379163,0.692649,-0.07237,-0.068761,0.041846,0.0,1.0,72.0,180.0,28.0,1.0
29125,0.543697,-1.411397,0.938922,-0.111829,-0.079684,0.042162,0.0,1.0,72.0,180.0,28.0,1.0
29126,0.818249,-1.431977,1.217015,-0.016013,-0.102059,-0.037318,0.0,1.0,72.0,180.0,28.0,1.0
29127,1.11517,-1.440205,1.514743,-0.007136,-0.120605,-0.050525,0.0,1.0,72.0,180.0,28.0,1.0
29128,1.397384,-1.438765,1.800396,-0.033616,-0.180475,-0.082152,0.0,1.0,72.0,180.0,28.0,1.0
29129,1.658722,-1.43094,2.0653650000000003,-0.030951,-0.176714,-0.162002,0.0,1.0,72.0,180.0,28.0,1.0
29130,1.872049,-1.420964,2.286854,0.06152100000000001,-0.157177,-0.115963,0.0,1.0,72.0,180.0,28.0,1.0
29131,2.025842,-1.41324,2.453695,0.119982,-0.068256,-0.112382,0.0,1.0,72.0,180.0,28.0,1.0
29132,2.161393,-1.403675,2.603259,0.194498,-0.024276,-0.202025,0.0,1.0,72.0,180.0,28.0,1.0
29133,2.2852330000000003,-1.39024,2.74701,0.204626,-0.035426,-0.241011,0.0,1.0,72.0,180.0,28.0,1.0
29134,2.3854900000000003,-1.376048,2.874278,0.216743,-0.011965,-0.279827,0.0,1.0,72.0,180.0,28.0,1.0
29135,2.463606,-1.366278,2.9784490000000003,0.193942,0.079526,-0.187643,0.0,1.0,72.0,180.0,28.0,1.0
29136,2.530305,-1.362841,3.060405,0.200928,0.145523,-0.20772,0.0,1.0,72.0,180.0,28.0,1.0
29137,2.578928,-1.362422,3.121108,0.236531,0.204447,-0.233904,0.0,1.0,72.0,180.0,28.0,1.0
29138,2.605057,-1.363601,-3.116533,0.174026,0.373942,-0.35335,0.0,1.0,72.0,180.0,28.0,1.0
29139,2.608187,-1.366621,-3.085746,0.204617,0.24597600000000006,-0.38957,0.0,1.0,72.0,180.0,28.0,1.0
29140,2.585233,-1.378818,-3.075582,0.280928,0.19812,-0.412768,0.0,1.0,72.0,180.0,28.0,1.0
29141,2.526168,-1.403067,-3.095488,0.401544,0.077068,-0.393905,0.0,1.0,72.0,180.0,28.0,1.0
29142,2.348367,-1.440779,3.061722,0.510051,-0.015104,-0.211141,0.0,1.0,72.0,180.0,28.0,1.0
29143,1.8994830000000005,-1.472717,2.667865,0.609538,0.052795,-0.080826,0.0,1.0,72.0,180.0,28.0,1.0
29144,1.229001,-1.4712889999999998,2.042985,0.713609,0.310458,0.269894,0.0,1.0,72.0,180.0,28.0,1.0
29145,0.805801,-1.436791,1.6751619999999998,0.635113,0.210809,0.633158,0.0,1.0,72.0,180.0,28.0,1.0
29146,0.595404,-1.394896,1.504691,0.422031,0.250614,0.710116,0.0,1.0,72.0,180.0,28.0,1.0
29147,0.430565,-1.3386280000000002,1.351358,0.249312,0.7002,-0.13624,0.0,1.0,72.0,180.0,28.0,1.0
29148,0.327805,-1.292416,1.269125,0.316544,0.633683,0.454851,0.0,1.0,72.0,180.0,28.0,1.0
29149,0.251024,-1.253842,1.228301,0.327599,0.644995,0.496593,0.0,1.0,72.0,180.0,28.0,1.0
29150,0.178361,-1.211549,1.222622,0.26627199999999995,0.152995,0.324541,0.0,1.0,72.0,180.0,28.0,1.0
29151,0.124797,-1.177847,1.241712,0.235237,-0.007402,0.344815,0.0,1.0,72.0,180.0,28.0,1.0
29152,0.094648,-1.151843,1.2881479999999998,0.326729,-0.090533,0.482046,0.0,1.0,72.0,180.0,28.0,1.0
29153,0.084848,-1.13503,1.361126,0.368144,-0.206275,0.489745,0.0,1.0,72.0,180.0,28.0,1.0
29154,0.088264,-1.126492,1.454193,0.272658,-0.387254,0.578188,0.0,1.0,72.0,180.0,28.0,1.0
29155,0.083924,-1.123475,1.54126,0.12955899999999998,-0.509306,0.653845,0.0,1.0,72.0,180.0,28.0,1.0
29156,0.07020900000000001,-1.12723,1.606056,0.054153,-0.442442,0.589017,0.0,1.0,72.0,180.0,28.0,1.0
29157,0.051084,-1.138039,1.652497,-0.161993,-0.251471,0.518047,0.0,1.0,72.0,180.0,28.0,1.0
29158,0.044112,-1.151046,1.6916790000000002,-0.209118,-0.20207,0.441093,0.0,1.0,72.0,180.0,28.0,1.0
29159,0.052067,-1.164472,1.7302669999999998,-0.22258000000000006,-0.134812,0.346014,0.0,1.0,72.0,180.0,28.0,1.0
29160,0.068926,-1.178476,1.767359,-0.294672,-0.183042,0.26409,0.0,1.0,72.0,180.0,28.0,1.0
29161,0.090095,-1.194804,1.804605,-0.303377,-0.179533,0.17441099999999998,0.0,1.0,72.0,180.0,28.0,1.0
29162,0.104307,-1.216798,1.83833,-0.126805,-0.135687,0.046933,0.0,1.0,72.0,180.0,28.0,1.0
29163,0.115675,-1.242625,1.868804,0.031603,0.18267,-0.449158,0.0,1.0,72.0,180.0,28.0,1.0
29164,0.12647,-1.262734,1.901884,0.177806,0.336796,-0.6725369999999999,0.0,1.0,72.0,180.0,28.0,1.0
29165,0.127116,-1.267292,1.935099,0.53827,0.6514939999999999,-0.929499,0.0,1.0,72.0,180.0,28.0,1.0
29166,0.156393,-1.250045,1.981202,0.300841,0.119025,-0.487641,0.0,1.0,72.0,180.0,28.0,1.0
29167,0.213211,-1.230654,2.043337,0.197796,-0.126179,-0.446408,0.0,1.0,72.0,180.0,28.0,1.0
29168,0.271293,-1.220916,2.115631,0.259662,-0.286109,-0.19595,0.0,1.0,72.0,180.0,28.0,1.0
29169,0.331063,-1.2182,2.189816,0.33065500000000003,-0.008013,0.070451,0.0,1.0,72.0,180.0,28.0,1.0
29170,0.412878,-1.224799,2.249493,-0.120416,1.1669889999999998,0.6414340000000001,0.0,1.0,72.0,180.0,28.0,1.0
29171,0.394002,-1.212486,2.223411,-0.685127,0.375735,-0.102567,0.0,1.0,72.0,180.0,28.0,1.0
29172,0.312082,-1.192209,2.170459,-0.647584,-0.450718,0.5398069999999999,0.0,1.0,72.0,180.0,28.0,1.0
29173,0.28824,-1.1955049999999998,2.146289,0.02885,-0.615414,0.761993,0.0,1.0,72.0,180.0,28.0,1.0
29174,0.260462,-1.210809,2.103907,0.408615,-0.075748,1.015157,0.0,1.0,72.0,180.0,28.0,1.0
29175,0.187513,-1.230361,1.996275,0.429611,0.021594,0.941999,0.0,1.0,72.0,180.0,28.0,1.0
29176,0.092381,-1.260947,1.874998,0.687144,1.018903,0.446345,0.0,1.0,72.0,180.0,28.0,1.0
29177,0.094708,-1.294117,1.881259,0.695331,0.524482,-0.333381,0.0,1.0,72.0,180.0,28.0,1.0
29178,0.15628599999999998,-1.322844,1.959946,0.440274,0.170949,-0.101237,0.0,1.0,72.0,180.0,28.0,1.0
29179,0.271165,-1.349662,2.089804,0.143726,-0.102786,0.34728200000000004,0.0,1.0,72.0,180.0,28.0,1.0
29180,0.449111,-1.371611,2.275994,0.007184,-0.156467,0.268705,0.0,1.0,72.0,180.0,28.0,1.0
29181,0.685345,-1.389752,2.508871,-0.04302,-0.170408,0.194686,0.0,1.0,72.0,180.0,28.0,1.0
29182,0.96864,-1.40613,2.786729,-0.178758,-0.189064,-0.042871,0.0,1.0,72.0,180.0,28.0,1.0
29183,1.25041,-1.41591,3.082916,-0.247967,-0.15644,-0.201446,0.0,1.0,72.0,180.0,28.0,1.0
29184,1.459122,-1.418535,-2.961401,-0.12626600000000002,-0.15707100000000002,-0.068186,0.0,1.0,72.0,180.0,28.0,1.0
29185,1.641631,-1.419087,-2.761714,-0.021412,-0.177754,-0.080959,0.0,1.0,72.0,180.0,28.0,1.0
29186,1.834502,-1.418355,-2.576041,0.202919,-0.068176,-0.004946,0.0,1.0,72.0,180.0,28.0,1.0
29187,2.02991,-1.414672,-2.402167,0.216386,-0.010954,-0.211751,0.0,1.0,72.0,180.0,28.0,1.0
29188,2.228567,-1.403052,-2.213851,0.380061,-0.001513,-0.625219,0.0,1.0,72.0,180.0,28.0,1.0
29189,2.346867,-1.387291,-2.070918,0.394295,0.051961,-0.427625,0.0,1.0,72.0,180.0,28.0,1.0
29190,2.364968,-1.383011,-2.023612,0.175876,0.324892,-0.366006,0.0,1.0,72.0,180.0,28.0,1.0
29191,2.34972,-1.391034,-2.02046,0.225222,0.388276,-0.545175,0.0,1.0,72.0,180.0,28.0,1.0
29192,2.274889,-1.40667,-2.071929,0.344694,0.391353,-0.343806,0.0,1.0,72.0,180.0,28.0,1.0
29193,2.158571,-1.4225370000000002,-2.169766,0.333935,0.313094,-0.179507,0.0,1.0,72.0,180.0,28.0,1.0
29194,1.953919,-1.438841,-2.355578,0.233258,0.235866,-0.230529,0.0,1.0,72.0,180.0,28.0,1.0
29195,1.523356,-1.444713,-2.755125,0.272277,0.024982,-0.230123,0.0,1.0,72.0,180.0,28.0,1.0
29196,0.99716,-1.41711,3.041976,0.100386,0.367759,0.099089,0.0,1.0,72.0,180.0,28.0,1.0
29197,0.671301,-1.373486,2.757492,0.023487,0.283303,0.449354,0.0,1.0,72.0,180.0,28.0,1.0
29198,0.445659,-1.322916,2.591125,-0.016850999999999998,0.139467,1.088598,0.0,1.0,72.0,180.0,28.0,1.0
29199,0.289652,-1.2662,2.4628240000000003,0.031152,0.446254,0.388014,0.0,1.0,72.0,180.0,28.0,1.0
29200,0.136595,-1.198552,2.362386,0.196203,0.909688,0.366624,0.0,1.0,72.0,180.0,28.0,1.0
29201,0.052053,-1.137979,2.334452,0.30612,0.817707,0.297636,0.0,1.0,72.0,180.0,28.0,1.0
29202,0.058641,-1.084252,2.3635580000000003,0.219377,0.453296,0.214611,0.0,1.0,72.0,180.0,28.0,1.0
29203,0.091809,-1.0419889999999998,2.416585,0.09129,0.051782,0.393073,0.0,1.0,72.0,180.0,28.0,1.0
29204,0.112833,-1.0048700000000002,2.481301,0.112602,-0.317771,0.435065,0.0,1.0,72.0,180.0,28.0,1.0
29205,0.114398,-0.978635,2.538708,0.14013,-0.832025,0.319776,0.0,1.0,72.0,180.0,28.0,1.0
29206,0.108699,-0.96722,2.580089,0.113413,-0.8191149999999999,0.343974,0.0,1.0,72.0,180.0,28.0,1.0
29207,0.107779,-0.969122,2.6108290000000003,-0.00626,-0.642672,0.457097,0.0,1.0,72.0,180.0,28.0,1.0
29208,0.112746,-0.983245,2.63957,-0.102129,-0.543665,0.487673,0.0,1.0,72.0,180.0,28.0,1.0
29209,0.130599,-1.008589,2.669731,-0.14263,-0.502895,0.492102,0.0,1.0,72.0,180.0,28.0,1.0
29210,0.161101,-1.042052,2.698866,-0.197889,-0.437538,0.550828,0.0,1.0,72.0,180.0,28.0,1.0
29211,0.201755,-1.080875,2.723704,-0.096215,-0.437103,0.396672,0.0,1.0,72.0,180.0,28.0,1.0
29212,0.248822,-1.122989,2.746335,-0.03842,-0.418382,0.241698,0.0,1.0,72.0,180.0,28.0,1.0
29213,0.289905,-1.162942,2.765646,0.021721,-0.310308,0.016111,0.0,1.0,72.0,180.0,28.0,1.0
29214,0.311654,-1.203504,2.773025,-0.06550299999999999,-0.221114,0.07973999999999999,0.0,1.0,72.0,180.0,28.0,1.0
29215,0.316766,-1.248106,2.765321,-0.034872,-0.123938,0.14463399999999998,0.0,1.0,72.0,180.0,28.0,1.0
29216,0.309521,-1.286695,2.747911,-0.025833,0.150621,0.16509,0.0,1.0,72.0,180.0,28.0,1.0
29217,0.317325,-1.3089,2.756138,-0.035264,0.28875300000000004,0.186183,0.0,1.0,72.0,180.0,28.0,1.0
29218,0.387714,-1.328027,2.836272,-0.020351,0.257321,0.058220000000000015,0.0,1.0,72.0,180.0,28.0,1.0
29219,0.532687,-1.355487,2.989035,-0.273253,0.287433,-0.426938,0.0,1.0,72.0,180.0,28.0,1.0
29220,0.691786,-1.378287,-3.116137,-0.5034810000000001,0.32116100000000003,-0.636468,0.0,1.0,72.0,180.0,28.0,1.0
29221,0.772108,-1.3877620000000002,-3.002905,-0.405569,-0.210011,-0.249275,0.0,1.0,72.0,180.0,28.0,1.0
29222,0.785662,-1.382701,-2.986059,0.16217,-0.282518,0.366385,0.0,1.0,72.0,180.0,28.0,1.0
29223,0.736808,-1.371096,-3.092532,0.290403,-0.145318,0.732499,0.0,1.0,72.0,180.0,28.0,1.0
29224,0.687608,-1.349243,3.063759,0.6373409999999999,0.5149060000000001,-0.359521,0.0,1.0,72.0,180.0,28.0,1.0
29225,0.738387,-1.353336,3.098692,0.4809270000000001,0.364631,0.493814,0.0,1.0,72.0,180.0,28.0,1.0
29226,0.706353,-1.340429,3.100716,0.046133,0.372639,0.301354,0.0,1.0,72.0,180.0,28.0,1.0
29227,0.729734,-1.333061,3.133423,-0.017154,0.301396,0.078238,0.0,1.0,72.0,180.0,28.0,1.0
29228,0.786992,-1.3243790000000002,-3.101488,0.15498499999999998,0.629115,-0.348376,0.0,1.0,72.0,180.0,28.0,1.0
29229,0.82411,-1.304733,-3.099164,-0.131654,0.253341,0.040634,0.0,1.0,72.0,180.0,28.0,1.0
29230,0.819372,-1.28926,3.133654,-0.239791,-0.054151,0.140066,0.0,1.0,72.0,180.0,28.0,1.0
29231,0.787566,-1.280347,3.07789,-0.04419,-0.20817600000000006,-0.122139,0.0,1.0,72.0,180.0,28.0,1.0
29232,0.739688,-1.2781049999999998,3.029147,0.040864,-0.158566,-0.162356,0.0,1.0,72.0,180.0,28.0,1.0
29233,0.699879,-1.278608,2.990338,0.117009,-0.166631,0.051252,0.0,1.0,72.0,180.0,28.0,1.0
29234,0.678201,-1.279441,2.9573240000000003,0.14009000000000002,-0.273468,0.153798,0.0,1.0,72.0,180.0,28.0,1.0
29235,0.674948,-1.278494,2.937157,0.192162,-0.26253000000000004,-0.050903,0.0,1.0,72.0,180.0,28.0,1.0
29236,0.674652,-1.276132,2.924501,0.280005,-0.224325,-0.137051,0.0,1.0,72.0,180.0,28.0,1.0
29237,0.652561,-1.269739,2.900713,0.408071,-0.100638,-0.189873,0.0,1.0,72.0,180.0,28.0,1.0
29238,0.602947,-1.252165,2.853516,0.523918,-0.065189,-0.14111,0.0,1.0,72.0,180.0,28.0,1.0
29239,0.525195,-1.217916,2.789752,0.410652,0.191685,-0.19399999999999998,0.0,1.0,72.0,180.0,28.0,1.0
29240,0.425924,-1.171769,2.721269,0.088521,0.5301140000000001,0.0033810000000000003,0.0,1.0,72.0,180.0,28.0,1.0
29241,0.304313,-1.121985,2.66467,-0.249469,0.530906,0.319879,0.0,1.0,72.0,180.0,28.0,1.0
29242,0.194664,-1.07059,2.62462,-0.245665,0.548878,0.456747,0.0,1.0,72.0,180.0,28.0,1.0
29243,0.116801,-1.031707,2.604883,-0.170556,0.569146,0.407342,0.0,1.0,72.0,180.0,28.0,1.0
29244,0.07396799999999999,-1.0048469999999998,2.601947,-0.22441,0.070684,0.157273,0.0,1.0,72.0,180.0,28.0,1.0
29245,0.055955999999999985,-0.981005,2.604703,-0.069924,-0.09302,0.297377,0.0,1.0,72.0,180.0,28.0,1.0
29246,0.064542,-0.971703,2.617422,0.149376,-0.317089,0.447526,0.0,1.0,72.0,180.0,28.0,1.0
29247,0.09852,-0.978958,2.626136,-0.09415,-0.16117,0.228822,0.0,1.0,72.0,180.0,28.0,1.0
29248,0.142751,-1.001313,2.635974,-0.108081,-0.206239,0.154449,0.0,1.0,72.0,180.0,28.0,1.0
29249,0.179878,-1.03189,2.647246,-0.070346,-0.356104,0.185041,0.0,1.0,72.0,180.0,28.0,1.0
29250,0.215548,-1.0726790000000002,2.66171,-0.129407,-0.437017,0.203342,0.0,1.0,72.0,180.0,28.0,1.0
29251,0.251566,-1.125055,2.675075,-0.12567,-0.418786,0.175085,0.0,1.0,72.0,180.0,28.0,1.0
29252,0.290885,-1.185198,2.689772,0.007123999999999998,-0.277968,0.016109000000000002,0.0,1.0,72.0,180.0,28.0,1.0
29253,0.333826,-1.236491,2.721685,0.030435000000000007,0.463977,-0.416562,0.0,1.0,72.0,180.0,28.0,1.0
29254,0.383645,-1.270266,2.786223,0.01518,0.531652,-0.456069,0.0,1.0,72.0,180.0,28.0,1.0
29255,0.477912,-1.306852,2.910511,-0.046173,0.192468,-0.236637,0.0,1.0,72.0,180.0,28.0,1.0
29256,0.593444,-1.339483,3.050437,-0.317307,-0.064934,-0.159863,0.0,1.0,72.0,180.0,28.0,1.0
29257,0.687153,-1.357037,-3.122376,-0.393352,-0.11521,-0.137971,0.0,1.0,72.0,180.0,28.0,1.0
29258,0.729324,-1.353992,-3.0733040000000003,-0.406674,-0.340085,-0.017212,0.0,1.0,72.0,180.0,28.0,1.0
29259,0.7159939999999999,-1.34314,-3.101902,0.14767,-0.265549,0.72546,0.0,1.0,72.0,180.0,28.0,1.0
29260,0.693643,-1.330771,3.102943,0.27557800000000005,0.40376,-0.03094,0.0,1.0,72.0,180.0,28.0,1.0
29261,0.721913,-1.329545,3.0929830000000003,0.605745,0.542617,0.498529,0.0,1.0,72.0,180.0,28.0,1.0
29262,0.691343,-1.314532,3.059796,0.280198,0.309359,0.530457,0.0,1.0,72.0,180.0,28.0,1.0
29263,0.679424,-1.307747,3.06439,0.261479,0.146154,0.4712020000000001,0.0,1.0,72.0,180.0,28.0,1.0
29264,0.730008,-1.314207,3.130496,0.302546,0.570825,-0.590784,0.0,1.0,72.0,180.0,28.0,1.0
29265,0.807215,-1.310237,-3.08708,0.110431,0.65204,-0.15387,0.0,1.0,72.0,180.0,28.0,1.0
29266,0.8535719999999999,-1.296719,-3.096378,-0.200969,0.17914000000000002,0.13935899999999998,0.0,1.0,72.0,180.0,28.0,1.0
29267,0.8697379999999999,-1.288254,-3.133648,-0.176057,-0.29885100000000003,-0.139015,0.0,1.0,72.0,180.0,28.0,1.0
29268,0.837815,-1.287067,3.104565,-0.060979,-0.326382,0.024431,0.0,1.0,72.0,180.0,28.0,1.0
29269,0.7993859999999999,-1.292048,3.073664,0.06274600000000001,-0.310796,-0.08468300000000001,0.0,1.0,72.0,180.0,28.0,1.0
29270,0.772618,-1.294378,3.053456,0.116664,-0.188571,-0.010306999999999998,0.0,1.0,72.0,180.0,28.0,1.0
29271,0.763841,-1.2937459999999998,3.0308080000000004,0.089935,-0.197721,-0.015085,0.0,1.0,72.0,180.0,28.0,1.0
29272,0.7633840000000001,-1.290136,3.005032,0.069422,-0.221096,-0.01481,0.0,1.0,72.0,180.0,28.0,1.0
29273,0.761796,-1.285652,2.988412,0.209117,-0.210262,-0.062446,0.0,1.0,72.0,180.0,28.0,1.0
29274,0.74629,-1.27513,2.980586,0.495201,-0.11031,-0.118403,0.0,1.0,72.0,180.0,28.0,1.0
29275,0.702166,-1.253365,2.947396,0.5997180000000001,-0.090986,-0.13666199999999998,0.0,1.0,72.0,180.0,28.0,1.0
29276,0.621858,-1.2224270000000002,2.881534,0.268357,0.135372,-0.149142,0.0,1.0,72.0,180.0,28.0,1.0
29277,0.519932,-1.183498,2.808954,-0.14801,0.316041,0.037666000000000005,0.0,1.0,72.0,180.0,28.0,1.0
29278,0.395707,-1.144503,2.734955,-0.26209,0.40314,0.253361,0.0,1.0,72.0,180.0,28.0,1.0
29279,0.273087,-1.101336,2.672676,-0.167164,0.755771,0.351723,0.0,1.0,72.0,180.0,28.0,1.0
29280,0.18563,-1.064566,2.641878,-0.060484,0.63241,0.466505,0.0,1.0,72.0,180.0,28.0,1.0
29281,0.13999,-1.037086,2.633073,-0.259979,0.259283,0.290674,0.0,1.0,72.0,180.0,28.0,1.0
29282,0.125993,-1.013537,2.636112,-0.052006,-0.088286,0.216588,0.0,1.0,72.0,180.0,28.0,1.0
29283,0.136095,-0.998753,2.649562,0.192803,-0.137641,0.316201,0.0,1.0,72.0,180.0,28.0,1.0
29284,0.176901,-1.0014379999999998,2.667131,0.103954,-0.105156,0.277148,0.0,1.0,72.0,180.0,28.0,1.0
29285,0.225104,-1.019136,2.685567,-0.08669299999999999,-0.08429099999999999,0.193581,0.0,1.0,72.0,180.0,28.0,1.0
29286,0.26965500000000003,-1.046664,2.7074990000000003,-0.17101,-0.335165,0.222359,0.0,1.0,72.0,180.0,28.0,1.0
29287,0.311527,-1.082076,2.731491,-0.202894,-0.415847,0.201574,0.0,1.0,72.0,180.0,28.0,1.0
29288,0.353561,-1.124324,2.754406,-0.17446199999999998,-0.490034,0.173776,0.0,1.0,72.0,180.0,28.0,1.0
29289,0.3965010000000001,-1.176664,2.775246,-0.026760000000000003,-0.426077,0.08113200000000001,0.0,1.0,72.0,180.0,28.0,1.0
29290,0.447072,-1.234469,2.804112,0.069655,-0.138599,-0.055928,0.0,1.0,72.0,180.0,28.0,1.0
29291,0.4966680000000001,-1.276178,2.851648,0.037732,0.4999810000000001,-0.387533,0.0,1.0,72.0,180.0,28.0,1.0
29292,0.556888,-1.306804,2.951321,0.051059,0.353476,-0.33862800000000004,0.0,1.0,72.0,180.0,28.0,1.0
29293,0.678376,-1.338714,3.121922,-0.05873200000000001,0.062638,-0.227114,0.0,1.0,72.0,180.0,28.0,1.0
29294,0.800139,-1.359264,-3.014376,-0.310419,-0.07912000000000001,-0.263248,0.0,1.0,72.0,180.0,28.0,1.0
29295,0.8728879999999999,-1.3627200000000002,-2.9434,-0.5145770000000001,-0.29349400000000003,-0.29901700000000003,0.0,1.0,72.0,180.0,28.0,1.0
29296,0.8992600000000001,-1.3529719999999998,-2.9383220000000003,-0.183639,-0.392309,0.496821,0.0,1.0,72.0,180.0,28.0,1.0
29297,0.8319280000000001,-1.329908,-3.067807,0.025905,-0.28352,0.8539120000000001,0.0,1.0,72.0,180.0,28.0,1.0
29298,0.7722180000000001,-1.30425,3.09011,0.581921,0.7663770000000001,-1.192368,0.0,1.0,72.0,180.0,28.0,1.0
29299,0.8270280000000001,-1.329796,-3.118233,0.7044239999999999,0.505112,0.049291,0.0,1.0,72.0,180.0,28.0,1.0
29300,0.73322,-1.321703,3.1322240000000003,0.652012,0.335932,0.108692,0.0,1.0,72.0,180.0,28.0,1.0
29301,0.7792020000000001,-1.32122,-3.099832,0.332204,0.820991,-0.501625,0.0,1.0,72.0,180.0,28.0,1.0
29302,0.8775790000000001,-1.310787,-3.0409650000000004,0.415426,1.3382690000000002,-1.223258,0.0,1.0,72.0,180.0,28.0,1.0
29303,0.8845930000000001,-1.289658,-3.07876,-0.254093,-0.4612890000000001,0.200926,0.0,1.0,72.0,180.0,28.0,1.0
29304,0.888732,-1.280907,-3.131022,-0.16867100000000002,-0.481988,0.034508,0.0,1.0,72.0,180.0,28.0,1.0
29305,0.8702040000000001,-1.280393,3.115294,-0.072745,-0.358321,0.035624,0.0,1.0,72.0,180.0,28.0,1.0
29306,0.855057,-1.286047,3.11627,0.22619,0.08984400000000001,-0.199015,0.0,1.0,72.0,180.0,28.0,1.0
29307,0.8526030000000001,-1.28918,3.126066,0.256893,0.082498,-0.14598599999999998,0.0,1.0,72.0,180.0,28.0,1.0
29308,0.86766,-1.289113,3.119813,0.161341,-0.115603,-0.101324,0.0,1.0,72.0,180.0,28.0,1.0
29309,0.876236,-1.289898,3.10241,0.033586000000000005,-0.30561,-0.093454,0.0,1.0,72.0,180.0,28.0,1.0
29310,0.865282,-1.290274,3.082314,0.046681,-0.306614,-0.145993,0.0,1.0,72.0,180.0,28.0,1.0
29311,0.833277,-1.2881790000000002,3.060665,0.23190700000000006,-0.091493,-0.1803,0.0,1.0,72.0,180.0,28.0,1.0
29312,0.771609,-1.277144,3.022298,0.498883,-0.14031400000000002,-0.194563,0.0,1.0,72.0,180.0,28.0,1.0
29313,0.688021,-1.25693,2.961679,0.388143,-0.098547,-0.122185,0.0,1.0,72.0,180.0,28.0,1.0
29314,0.588734,-1.225292,2.88708,0.228095,-0.01346,0.050302,0.0,1.0,72.0,180.0,28.0,1.0
29315,0.462916,-1.182747,2.800084,-0.153859,0.234095,0.138628,0.0,1.0,72.0,180.0,28.0,1.0
29316,0.319606,-1.136296,2.716804,-0.169062,0.408959,0.384966,0.0,1.0,72.0,180.0,28.0,1.0
29317,0.199992,-1.091757,2.6681,-0.273451,0.655622,0.376811,0.0,1.0,72.0,180.0,28.0,1.0
29318,0.131778,-1.052075,2.647469,-0.162187,0.5827479999999999,0.437966,0.0,1.0,72.0,180.0,28.0,1.0
29319,0.086806,-1.019289,2.643928,-0.167634,0.15214,0.376163,0.0,1.0,72.0,180.0,28.0,1.0
29320,0.068664,-0.992385,2.649842,-0.027575,0.017602,0.24915,0.0,1.0,72.0,180.0,28.0,1.0
29321,0.089074,-0.977584,2.658039,0.033386,0.061949,0.090115,0.0,1.0,72.0,180.0,28.0,1.0
29322,0.126056,-0.97782,2.66566,-0.013952,-0.100872,0.11818900000000003,0.0,1.0,72.0,180.0,28.0,1.0
29323,0.16934200000000002,-0.993301,2.678715,-0.026973,-0.322757,0.175731,0.0,1.0,72.0,180.0,28.0,1.0
29324,0.213879,-1.022895,2.698167,-0.083216,-0.351682,0.198596,0.0,1.0,72.0,180.0,28.0,1.0
29325,0.257328,-1.063651,2.719767,-0.124976,-0.37679,0.197208,0.0,1.0,72.0,180.0,28.0,1.0
29326,0.300854,-1.113544,2.739423,-0.101543,-0.375388,0.121855,0.0,1.0,72.0,180.0,28.0,1.0
29327,0.342326,-1.175772,2.752561,-0.075571,-0.238921,-0.05728,0.0,1.0,72.0,180.0,28.0,1.0
29328,0.4041,-1.241824,2.785802,-0.007958,0.295294,-0.362008,0.0,1.0,72.0,180.0,28.0,1.0
29329,0.484042,-1.286671,2.865349,0.102104,0.730904,-0.419917,0.0,1.0,72.0,180.0,28.0,1.0
29330,0.571892,-1.321042,2.9912810000000003,0.111022,0.054692999999999985,-0.158638,0.0,1.0,72.0,180.0,28.0,1.0
29331,0.665995,-1.350866,3.127653,-0.25716300000000003,-0.461356,-0.13960799999999998,0.0,1.0,72.0,180.0,28.0,1.0
29332,0.7339600000000001,-1.363355,-3.0555950000000003,-0.345146,-0.5892029999999999,-0.08719199999999999,0.0,1.0,72.0,180.0,28.0,1.0
29333,0.751258,-1.352051,-3.029539,-0.224118,-0.748677,0.508365,0.0,1.0,72.0,180.0,28.0,1.0
29334,0.7532300000000001,-1.330825,-3.066281,0.022476,-0.502,0.405386,0.0,1.0,72.0,180.0,28.0,1.0
29335,0.773584,-1.313375,-3.104652,0.05004,-0.128655,0.095433,0.0,1.0,72.0,180.0,28.0,1.0
29336,0.867252,-1.325726,-3.030451,0.41437,1.22092,-0.385308,0.0,1.0,72.0,180.0,28.0,1.0
29337,0.85908,-1.322992,-3.011289,0.416092,0.5498029999999999,0.116832,0.0,1.0,72.0,180.0,28.0,1.0
29338,0.8272010000000001,-1.309951,-3.047637,0.192977,0.192138,0.48563,0.0,1.0,72.0,180.0,28.0,1.0
29339,0.8367959999999999,-1.30122,-3.059156,-0.045781,-0.141847,0.353398,0.0,1.0,72.0,180.0,28.0,1.0
29340,0.8815209999999999,-1.303274,-3.02828,0.266436,0.465366,-0.418233,0.0,1.0,72.0,180.0,28.0,1.0
29341,0.924162,-1.296774,-2.996958,0.24675100000000005,0.523165,-0.293089,0.0,1.0,72.0,180.0,28.0,1.0
29342,0.939112,-1.289342,-3.023911,-0.1214,-0.056569000000000015,0.075652,0.0,1.0,72.0,180.0,28.0,1.0
29343,0.925377,-1.286416,-3.079572,0.000653,-0.345441,-0.274071,0.0,1.0,72.0,180.0,28.0,1.0
29344,0.891078,-1.28714,-3.123859,0.109499,-0.24286,-0.189545,0.0,1.0,72.0,180.0,28.0,1.0
29345,0.862145,-1.289215,3.133885,0.208812,-0.108353,-0.100985,0.0,1.0,72.0,180.0,28.0,1.0
29346,0.8495,-1.283372,3.117634,0.190103,-0.19471,-0.068642,0.0,1.0,72.0,180.0,28.0,1.0
29347,0.833916,-1.274786,3.09211,0.210897,-0.216197,0.022774000000000003,0.0,1.0,72.0,180.0,28.0,1.0
29348,0.787338,-1.260479,3.045595,0.312725,-0.223736,-0.124521,0.0,1.0,72.0,180.0,28.0,1.0
29349,0.712266,-1.237691,2.981831,0.315366,-0.216531,-0.092539,0.0,1.0,72.0,180.0,28.0,1.0
29350,0.609916,-1.201192,2.90345,0.28445,0.120646,-0.08018099999999999,0.0,1.0,72.0,180.0,28.0,1.0
29351,0.489131,-1.156971,2.827686,0.056704,0.352523,0.042591,0.0,1.0,72.0,180.0,28.0,1.0
29352,0.360453,-1.1122530000000002,2.763889,-0.06300700000000001,0.649185,0.278415,0.0,1.0,72.0,180.0,28.0,1.0
29353,0.252514,-1.068936,2.724481,-0.045783,0.749043,0.396565,0.0,1.0,72.0,180.0,28.0,1.0
29354,0.183815,-1.03328,2.707152,-0.0403,0.718837,0.529998,0.0,1.0,72.0,180.0,28.0,1.0
29355,0.15800799999999998,-1.004788,2.704507,-0.35740700000000003,0.007148000000000002,0.173746,0.0,1.0,72.0,180.0,28.0,1.0
29356,0.14579,-0.98429,2.7095700000000003,-0.160877,-0.080224,0.258256,0.0,1.0,72.0,180.0,28.0,1.0
29357,0.157359,-0.976042,2.719388,0.123377,-0.142312,0.362825,0.0,1.0,72.0,180.0,28.0,1.0
29358,0.193094,-0.984414,2.73189,-0.115248,-0.083039,0.199647,0.0,1.0,72.0,180.0,28.0,1.0
29359,0.234399,-1.00502,2.747859,-0.128381,-0.203609,0.181561,0.0,1.0,72.0,180.0,28.0,1.0
29360,0.27285,-1.036816,2.764843,-0.110342,-0.472879,0.262697,0.0,1.0,72.0,180.0,28.0,1.0
29361,0.308704,-1.077838,2.779753,-0.110544,-0.501939,0.234135,0.0,1.0,72.0,180.0,28.0,1.0
29362,0.340509,-1.1279,2.788582,-0.04197,-0.445751,0.217007,0.0,1.0,72.0,180.0,28.0,1.0
29363,0.37124,-1.188117,2.792663,0.07513,-0.092188,0.030499,0.0,1.0,72.0,180.0,28.0,1.0
29364,0.420592,-1.241487,2.819595,0.103714,0.7368399999999999,-0.47048,0.0,1.0,72.0,180.0,28.0,1.0
29365,0.509572,-1.27849,2.925591,0.14319500000000002,0.7000569999999999,-0.547552,0.0,1.0,72.0,180.0,28.0,1.0
29366,0.635187,-1.314219,3.097035,0.01105,-0.0431,-0.347546,0.0,1.0,72.0,180.0,28.0,1.0
29367,0.750722,-1.344544,-3.02601,-0.116649,-0.139843,-0.358469,0.0,1.0,72.0,180.0,28.0,1.0
29368,0.846917,-1.360329,-2.906863,-0.299543,-0.170682,-0.16384,0.0,1.0,72.0,180.0,28.0,1.0
29369,0.907611,-1.361889,-2.858837,-0.417466,-0.350679,0.426073,0.0,1.0,72.0,180.0,28.0,1.0
29370,0.936364,-1.355693,-2.8812330000000004,-0.372343,-0.43246,0.534395,0.0,1.0,72.0,180.0,28.0,1.0
29371,0.954129,-1.345857,-2.945831,-0.191111,-0.316925,0.385888,0.0,1.0,72.0,180.0,28.0,1.0
29372,0.906211,-1.334438,-3.041366,0.063649,0.299745,-0.74357,0.0,1.0,72.0,180.0,28.0,1.0
29373,0.880394,-1.350788,-3.010614,0.766455,0.7965810000000001,-0.239772,0.0,1.0,72.0,180.0,28.0,1.0
29374,0.786591,-1.338714,-3.04301,0.976072,0.8383799999999999,0.16798,0.0,1.0,72.0,180.0,28.0,1.0
29375,0.814381,-1.331567,-3.040385,0.251204,0.484137,0.170696,0.0,1.0,72.0,180.0,28.0,1.0
29376,0.876031,-1.321142,-3.027256,0.039345,0.43832,-0.227858,0.0,1.0,72.0,180.0,28.0,1.0
29377,0.900389,-1.31205,-3.041107,-0.015063,0.12900699999999998,-0.053246,0.0,1.0,72.0,180.0,28.0,1.0
29378,0.904484,-1.310576,-3.066364,-0.077227,-0.102198,0.091222,0.0,1.0,72.0,180.0,28.0,1.0
29379,0.893864,-1.314591,-3.08767,-0.020864,-0.23338000000000006,0.11403,0.0,1.0,72.0,180.0,28.0,1.0
29380,0.882956,-1.317244,-3.096011,0.050641000000000005,-0.186625,-0.021974,0.0,1.0,72.0,180.0,28.0,1.0
29381,0.8930610000000001,-1.319042,-3.082432,0.129287,-0.054933,-0.179284,0.0,1.0,72.0,180.0,28.0,1.0
29382,0.909348,-1.31668,-3.0786580000000003,0.07825700000000001,-0.182119,-0.100326,0.0,1.0,72.0,180.0,28.0,1.0
29383,0.924142,-1.3117450000000002,-3.09462,0.054698,-0.287465,-0.224592,0.0,1.0,72.0,180.0,28.0,1.0
29384,0.919726,-1.303706,-3.130421,0.052533,-0.29395,-0.145911,0.0,1.0,72.0,180.0,28.0,1.0
29385,0.899602,-1.293579,3.115158,0.18011300000000002,-0.242323,-0.082858,0.0,1.0,72.0,180.0,28.0,1.0
29386,0.8630469999999999,-1.280455,3.085476,0.262061,-0.237962,-0.033485,0.0,1.0,72.0,180.0,28.0,1.0
29387,0.785767,-1.258176,3.032142,0.503559,-0.188988,-0.11733699999999997,0.0,1.0,72.0,180.0,28.0,1.0
29388,0.682396,-1.228363,2.954222,0.529521,-0.021866,-0.105178,0.0,1.0,72.0,180.0,28.0,1.0
29389,0.55577,-1.186654,2.862003,0.15003,0.336185,-0.038752,0.0,1.0,72.0,180.0,28.0,1.0
29390,0.424164,-1.139459,2.779296,-0.009145,0.499033,0.14009100000000002,0.0,1.0,72.0,180.0,28.0,1.0
29391,0.297321,-1.091808,2.72099,-0.051917999999999985,0.76949,0.426797,0.0,1.0,72.0,180.0,28.0,1.0
29392,0.202305,-1.049384,2.691759,-0.06964,0.684779,0.481104,0.0,1.0,72.0,180.0,28.0,1.0
29393,0.147743,-1.014161,2.689164,-0.080199,0.110267,0.353991,0.0,1.0,72.0,180.0,28.0,1.0
29394,0.119568,-0.988774,2.6969990000000004,-0.107304,0.147649,0.07389,0.0,1.0,72.0,180.0,28.0,1.0
29395,0.131379,-0.97558,2.708676,-0.048639,0.13919700000000002,-0.04263,0.0,1.0,72.0,180.0,28.0,1.0
29396,0.161678,-0.972895,2.727175,-3.7e-05,-0.135418,0.146612,0.0,1.0,72.0,180.0,28.0,1.0
29397,0.209968,-0.986143,2.756863,-0.075436,-0.29496300000000003,0.431675,0.0,1.0,72.0,180.0,28.0,1.0
29398,0.270841,-1.013173,2.792794,-0.10866,-0.321797,0.43471,0.0,1.0,72.0,180.0,28.0,1.0
29399,0.33455300000000004,-1.04684,2.829379,-0.142636,-0.398912,0.338424,0.0,1.0,72.0,180.0,28.0,1.0
29400,0.394349,-1.082826,2.86083,-0.113247,-0.439988,0.137614,0.0,1.0,72.0,180.0,28.0,1.0
29401,0.442547,-1.126973,2.882722,-0.105008,-0.40713,0.081562,0.0,1.0,72.0,180.0,28.0,1.0
29402,0.473386,-1.187609,2.896504,-0.055317999999999985,-0.228015,0.002764,0.0,1.0,72.0,180.0,28.0,1.0
29403,0.496612,-1.247873,2.917387,-0.08556,0.8567110000000001,-0.378755,0.0,1.0,72.0,180.0,28.0,1.0
29404,0.500641,-1.279929,2.956343,-0.060449,0.6685300000000001,-0.366838,0.0,1.0,72.0,180.0,28.0,1.0
29405,0.5212640000000001,-1.304668,3.032335,-0.074788,-0.012862,-0.306343,0.0,1.0,72.0,180.0,28.0,1.0
29406,0.598733,-1.334582,-3.140236,-0.14851199999999998,-0.158251,-0.06046,0.0,1.0,72.0,180.0,28.0,1.0
29407,0.7137819999999999,-1.356822,-3.029419,-0.221598,-0.249579,-0.125478,0.0,1.0,72.0,180.0,28.0,1.0
29408,0.820832,-1.359718,-2.941507,-0.254661,-0.321891,-0.081686,0.0,1.0,72.0,180.0,28.0,1.0
29409,0.8587940000000001,-1.348132,-2.925439,0.08998300000000001,-0.177537,0.626575,0.0,1.0,72.0,180.0,28.0,1.0
29410,0.833091,-1.330345,-3.000471,0.074495,0.11402,0.5003479999999999,0.0,1.0,72.0,180.0,28.0,1.0
29411,0.8308040000000001,-1.319921,-3.042042,0.797801,0.428582,-0.072891,0.0,1.0,72.0,180.0,28.0,1.0
29412,0.899537,-1.339227,-2.957354,0.580901,0.226384,0.216672,0.0,1.0,72.0,180.0,28.0,1.0
29413,0.839051,-1.33483,-2.980928,0.444509,0.081208,0.404814,0.0,1.0,72.0,180.0,28.0,1.0
29414,0.8954469999999999,-1.337037,-2.906805,0.353596,1.7527990000000002,-1.223126,0.0,1.0,72.0,180.0,28.0,1.0
29415,1.02612,-1.343949,-2.781134,0.061037,0.181641,0.235231,0.0,1.0,72.0,180.0,28.0,1.0
29416,0.993223,-1.330084,-2.847978,-0.200585,-0.217567,0.664081,0.0,1.0,72.0,180.0,28.0,1.0
29417,1.001451,-1.326529,-2.885145,-0.006924,-0.254647,0.079654,0.0,1.0,72.0,180.0,28.0,1.0
29418,1.015296,-1.329289,-2.879517,0.024725,-0.299806,-0.025925,0.0,1.0,72.0,180.0,28.0,1.0
29419,1.02516,-1.337068,-2.849672,0.124818,-0.244477,-0.180861,0.0,1.0,72.0,180.0,28.0,1.0
29420,1.030297,-1.339062,-2.824682,-0.043093,-0.377414,0.038816,0.0,1.0,72.0,180.0,28.0,1.0
29421,1.040107,-1.338539,-2.828636,-0.017016999999999997,-0.41187,-0.115817,0.0,1.0,72.0,180.0,28.0,1.0
29422,1.03762,-1.336011,-2.861178,-0.026688,-0.366897,-0.339843,0.0,1.0,72.0,180.0,28.0,1.0
29423,1.020283,-1.33486,-2.904314,-0.018101,-0.369558,0.00688,0.0,1.0,72.0,180.0,28.0,1.0
29424,0.979432,-1.3332190000000002,-2.965839,0.183853,-0.303912,-0.131613,0.0,1.0,72.0,180.0,28.0,1.0
29425,0.93729,-1.326005,-3.017687,0.292214,-0.253361,-0.190351,0.0,1.0,72.0,180.0,28.0,1.0
29426,0.902148,-1.315764,-3.045377,0.530341,-0.197605,-0.029201,0.0,1.0,72.0,180.0,28.0,1.0
29427,0.848088,-1.303004,-3.081856,0.634599,-0.191896,-0.20014,0.0,1.0,72.0,180.0,28.0,1.0
29428,0.765818,-1.286178,3.141514,0.369494,-0.080359,-0.128718,0.0,1.0,72.0,180.0,28.0,1.0
29429,0.6604909999999999,-1.259509,3.071187,0.180544,0.232859,-0.06673899999999999,0.0,1.0,72.0,180.0,28.0,1.0
29430,0.5389470000000001,-1.22145,3.002789,-0.04459,0.419366,-0.126567,0.0,1.0,72.0,180.0,28.0,1.0
29431,0.404484,-1.178971,2.936215,-0.062176,0.774151,0.231817,0.0,1.0,72.0,180.0,28.0,1.0
29432,0.290731,-1.140433,2.8927560000000003,-0.023413,0.955505,0.351312,0.0,1.0,72.0,180.0,28.0,1.0
29433,0.229159,-1.107978,2.8857630000000003,0.06505599999999999,0.57087,0.300941,0.0,1.0,72.0,180.0,28.0,1.0
29434,0.195098,-1.084422,2.896955,-0.06707,0.22406,0.333776,0.0,1.0,72.0,180.0,28.0,1.0
29435,0.182439,-1.063558,2.918871,0.051152,0.165645,-0.021618,0.0,1.0,72.0,180.0,28.0,1.0
29436,0.195369,-1.054136,2.944884,0.037056,0.245211,-0.13983099999999998,0.0,1.0,72.0,180.0,28.0,1.0
29437,0.233263,-1.059988,2.98374,-0.075224,0.004787,0.018359,0.0,1.0,72.0,180.0,28.0,1.0
29438,0.28160100000000005,-1.076109,3.030062,-0.117159,-0.22344,0.23365100000000005,0.0,1.0,72.0,180.0,28.0,1.0
29439,0.33170900000000003,-1.099636,3.0771040000000003,-0.104531,-0.281926,0.4000530000000001,0.0,1.0,72.0,180.0,28.0,1.0
29440,0.373062,-1.128226,3.121292,-0.092348,-0.405699,0.446754,0.0,1.0,72.0,180.0,28.0,1.0
29441,0.40949,-1.15937,-3.127337,-0.130044,-0.451387,0.310827,0.0,1.0,72.0,180.0,28.0,1.0
29442,0.435499,-1.193375,-3.110735,-0.204442,-0.395179,0.206215,0.0,1.0,72.0,180.0,28.0,1.0
29443,0.44107,-1.230372,-3.115098,-0.133453,-0.341112,0.129829,0.0,1.0,72.0,180.0,28.0,1.0
29444,0.443126,-1.268702,-3.120206,-0.010691,-0.018406,0.056457000000000014,0.0,1.0,72.0,180.0,28.0,1.0
29445,0.454164,-1.301523,-3.102292,0.042799,0.143061,0.075882,0.0,1.0,72.0,180.0,28.0,1.0
29446,0.498045,-1.324822,-3.029292,0.04972,0.035333,-0.007735,0.0,1.0,72.0,180.0,28.0,1.0
29447,0.57216,-1.344918,-2.921713,-0.10811099999999997,-0.076633,-0.576929,0.0,1.0,72.0,180.0,28.0,1.0
29448,0.614695,-1.360636,-2.822573,-0.13784100000000002,-0.047379,-0.4560770000000001,0.0,1.0,72.0,180.0,28.0,1.0
29449,0.664733,-1.372112,-2.719216,-0.08859,-0.057598,-0.121071,0.0,1.0,72.0,180.0,28.0,1.0
29450,0.74183,-1.377334,-2.659269,-0.13028399999999998,-0.062491,-0.030407,0.0,1.0,72.0,180.0,28.0,1.0
29451,0.831926,-1.376575,-2.632097,-0.224829,0.21445,-0.7057100000000001,0.0,1.0,72.0,180.0,28.0,1.0
29452,0.917781,-1.373739,-2.58243,-0.25853200000000004,0.284932,-0.63366,0.0,1.0,72.0,180.0,28.0,1.0
29453,0.938168,-1.371394,-2.560043,-0.20768000000000006,0.13878800000000002,-0.021527,0.0,1.0,72.0,180.0,28.0,1.0
29454,0.8986049999999999,-1.364795,-2.608553,0.098475,0.055888,0.561311,0.0,1.0,72.0,180.0,28.0,1.0
29455,0.841233,-1.352814,-2.691215,0.108752,0.101682,0.629508,0.0,1.0,72.0,180.0,28.0,1.0
29456,0.777597,-1.350641,-2.754813,0.615413,0.528745,0.086078,0.0,1.0,72.0,180.0,28.0,1.0
29457,0.711434,-1.355702,-2.815655,0.776525,0.671313,0.142369,0.0,1.0,72.0,180.0,28.0,1.0
29458,0.7661060000000001,-1.384652,-2.751629,0.7656,0.628252,0.379859,0.0,1.0,72.0,180.0,28.0,1.0
29459,0.902429,-1.408166,-2.594147,0.440557,0.634625,0.019165,0.0,1.0,72.0,180.0,28.0,1.0
29460,1.139821,-1.420493,-2.345111,0.341495,0.761778,-0.277525,0.0,1.0,72.0,180.0,28.0,1.0
29461,1.337301,-1.419691,-2.1534,0.22593600000000005,0.5446439999999999,-0.012912,0.0,1.0,72.0,180.0,28.0,1.0
29462,1.506042,-1.412088,-2.002954,0.030221,-0.06069,0.274109,0.0,1.0,72.0,180.0,28.0,1.0
29463,1.673415,-1.399618,-1.867844,-0.097197,-0.27975700000000003,0.107128,0.0,1.0,72.0,180.0,28.0,1.0
29464,1.863832,-1.386838,-1.714391,-0.183946,-0.372455,0.047425,0.0,1.0,72.0,180.0,28.0,1.0
29465,2.025655,-1.372366,-1.576011,-0.262313,-0.479202,-0.088616,0.0,1.0,72.0,180.0,28.0,1.0
29466,2.157255,-1.360467,-1.452246,-0.099946,-0.423366,-0.192256,0.0,1.0,72.0,180.0,28.0,1.0
29467,2.277301,-1.353489,-1.327496,0.213281,-0.315242,-0.461851,0.0,1.0,72.0,180.0,28.0,1.0
29468,2.372514,-1.349836,-1.212677,0.3713010000000001,-0.286402,-0.408139,0.0,1.0,72.0,180.0,28.0,1.0
29469,2.459283,-1.348229,-1.109895,0.371988,-0.206856,-0.22838200000000006,0.0,1.0,72.0,180.0,28.0,1.0
29470,2.550523,-1.349689,-1.017501,0.284185,-0.08481699999999999,-0.197053,0.0,1.0,72.0,180.0,28.0,1.0
29471,2.634668,-1.350041,-0.930926,0.343939,0.084753,-0.20882,0.0,1.0,72.0,180.0,28.0,1.0
29472,2.694894,-1.346942,-0.852361,0.421592,0.423037,-0.403204,0.0,1.0,72.0,180.0,28.0,1.0
29473,2.725916,-1.345086,-0.783105,0.284812,0.492757,-0.287575,0.0,1.0,72.0,180.0,28.0,1.0
29474,2.746555,-1.346664,-0.7336600000000001,0.32273,0.349155,-0.345576,0.0,1.0,72.0,180.0,28.0,1.0
29475,2.7645150000000003,-1.35183,-0.6974319999999999,0.41567,0.284589,-0.309723,0.0,1.0,72.0,180.0,28.0,1.0
29476,2.7558830000000003,-1.362387,-0.6785800000000001,0.5871390000000001,0.371431,-0.12133499999999997,0.0,1.0,72.0,180.0,28.0,1.0
29477,2.690526,-1.379525,-0.715547,0.6223479999999999,0.510562,-0.014373,0.0,1.0,72.0,180.0,28.0,1.0
29478,2.510575,-1.396135,-0.858232,0.613484,0.476747,-0.149864,0.0,1.0,72.0,180.0,28.0,1.0
29479,2.261115,-1.413133,-1.0400459999999998,0.063109,0.009367,-0.252961,0.0,1.0,72.0,180.0,28.0,1.0
29480,1.914454,-1.436765,-1.300985,-0.207405,-0.25716,0.012462,0.0,1.0,72.0,180.0,28.0,1.0
29481,1.390661,-1.449062,-1.749898,-0.044145,-0.036148,0.383667,0.0,1.0,72.0,180.0,28.0,1.0
29482,0.929651,-1.425685,-2.187465,0.245424,0.319318,0.371262,0.0,1.0,72.0,180.0,28.0,1.0
29483,0.698,-1.378984,-2.445986,0.365846,0.536345,0.17948699999999998,0.0,1.0,72.0,180.0,28.0,1.0
29484,0.561474,-1.325821,-2.609852,0.233644,0.4613140000000001,0.149548,0.0,1.0,72.0,180.0,28.0,1.0
29485,0.425013,-1.283748,-2.714382,0.241805,0.325203,0.389994,0.0,1.0,72.0,180.0,28.0,1.0
29486,0.30506300000000003,-1.251863,-2.7415130000000003,0.467444,0.100845,0.284181,0.0,1.0,72.0,180.0,28.0,1.0
29487,0.24655900000000006,-1.210622,-2.687408,0.680068,0.010423,0.281049,0.0,1.0,72.0,180.0,28.0,1.0
29488,0.281046,-1.16693,-2.580886,0.492631,-0.06262999999999999,0.271222,0.0,1.0,72.0,180.0,28.0,1.0
29489,0.324683,-1.1330559999999998,-2.474872,0.190874,-0.28983600000000004,0.436525,0.0,1.0,72.0,180.0,28.0,1.0
29490,0.318879,-1.105282,-2.384235,0.076776,-0.590689,0.542179,0.0,1.0,72.0,180.0,28.0,1.0
29491,0.302622,-1.086813,-2.302236,0.025514,-0.611421,0.522782,0.0,1.0,72.0,180.0,28.0,1.0
29492,0.293076,-1.083349,-2.239703,-0.235834,-0.382128,0.4738729999999999,0.0,1.0,72.0,180.0,28.0,1.0
29493,0.289847,-1.089012,-2.192818,-0.161222,-0.177292,0.354958,0.0,1.0,72.0,180.0,28.0,1.0
29494,0.298475,-1.099486,-2.147393,-0.175617,-0.122129,0.334161,0.0,1.0,72.0,180.0,28.0,1.0
29495,0.314938,-1.112042,-2.1068830000000003,-0.244787,-0.166258,0.259205,0.0,1.0,72.0,180.0,28.0,1.0
29496,0.334332,-1.129263,-2.06964,-0.130193,-0.30853200000000003,0.079343,0.0,1.0,72.0,180.0,28.0,1.0
29497,0.349916,-1.154134,-2.034946,-0.06663999999999999,-0.29385500000000003,-0.008879999999999999,0.0,1.0,72.0,180.0,28.0,1.0
29498,0.36427,-1.187815,-1.999385,0.044332,-0.163578,-0.229735,0.0,1.0,72.0,180.0,28.0,1.0
29499,0.388986,-1.227639,-1.956027,0.06840299999999999,-0.053925,-0.405487,0.0,1.0,72.0,180.0,28.0,1.0
29500,0.424285,-1.260736,-1.899645,0.27171,0.356294,-0.760393,0.0,1.0,72.0,180.0,28.0,1.0
29501,0.440897,-1.276375,-1.852585,0.4370850000000001,0.426987,-0.5728810000000001,0.0,1.0,72.0,180.0,28.0,1.0
29502,0.451436,-1.272565,-1.814912,0.054945000000000015,-0.13101300000000002,-0.271102,0.0,1.0,72.0,180.0,28.0,1.0
29503,0.478899,-1.264359,-1.767972,-0.063039,-0.325805,-0.271766,0.0,1.0,72.0,180.0,28.0,1.0
29504,0.5045430000000001,-1.254897,-1.7233490000000002,0.156485,0.245177,0.509324,0.0,1.0,72.0,180.0,28.0,1.0
29505,0.56445,-1.256913,-1.671977,-0.106259,1.096252,0.134608,0.0,1.0,72.0,180.0,28.0,1.0
29506,0.542457,-1.264319,-1.701511,-0.146844,1.5258,-0.504583,0.0,1.0,72.0,180.0,28.0,1.0
29507,0.432175,-1.249433,-1.788414,-0.00117,-0.637099,0.934186,0.0,1.0,72.0,180.0,28.0,1.0
29508,0.394054,-1.248283,-1.830418,0.042336,-0.8079390000000001,0.7949609999999999,0.0,1.0,72.0,180.0,28.0,1.0
29509,0.37214,-1.260524,-1.851883,0.307997,-0.436565,0.733146,0.0,1.0,72.0,180.0,28.0,1.0
29510,0.315159,-1.288535,-1.92109,0.5434479999999999,-0.059381,0.69115,0.0,1.0,72.0,180.0,28.0,1.0
29511,0.182224,-1.31964,-2.064754,0.5170710000000001,0.863726,0.5469189999999999,0.0,1.0,72.0,180.0,28.0,1.0
29512,0.092136,-1.357292,-2.124404,0.627496,1.234253,0.212924,0.0,1.0,72.0,180.0,28.0,1.0
29513,0.170151,-1.394977,-1.975859,0.270697,-0.123835,0.237321,0.0,1.0,72.0,180.0,28.0,1.0
29514,0.362797,-1.426127,-1.7369330000000005,0.006198,-0.130026,0.257062,0.0,1.0,72.0,180.0,28.0,1.0
29515,0.74206,-1.448008,-1.354648,-0.044598,-0.114465,0.194067,0.0,1.0,72.0,180.0,28.0,1.0
29516,1.256633,-1.448657,-0.8579700000000001,-0.32101,-0.111035,-0.10176,0.0,1.0,72.0,180.0,28.0,1.0
29517,1.659225,-1.430154,-0.456116,-0.365812,-0.098662,-0.142257,0.0,1.0,72.0,180.0,28.0,1.0
29518,1.896218,-1.409553,-0.197697,-0.218504,-0.137877,-0.161799,0.0,1.0,72.0,180.0,28.0,1.0
29519,2.052993,-1.394074,-0.014474,0.065708,-0.202031,-0.189838,0.0,1.0,72.0,180.0,28.0,1.0
29520,2.16428,-1.38198,0.124072,0.217825,-0.119511,-0.148108,0.0,1.0,72.0,180.0,28.0,1.0
29521,2.274296,-1.3683299999999998,0.249506,0.179852,-0.052358,-0.241637,0.0,1.0,72.0,180.0,28.0,1.0
29522,2.386386,-1.350676,0.364624,0.198954,-0.059688,-0.277711,0.0,1.0,72.0,180.0,28.0,1.0
29523,2.47591,-1.3336059999999998,0.458911,0.216556,-0.060823,-0.26257600000000003,0.0,1.0,72.0,180.0,28.0,1.0
29524,2.546111,-1.319999,0.540297,0.202402,0.076421,-0.291333,0.0,1.0,72.0,180.0,28.0,1.0
29525,2.60536,-1.30864,0.614333,0.186201,0.188097,-0.375601,0.0,1.0,72.0,180.0,28.0,1.0
29526,2.647261,-1.299142,0.676918,0.239504,0.278371,-0.417443,0.0,1.0,72.0,180.0,28.0,1.0
29527,2.667511,-1.29623,0.720963,0.287329,0.327054,-0.393322,0.0,1.0,72.0,180.0,28.0,1.0
29528,2.678259,-1.3005639999999998,0.748955,0.366699,0.380941,-0.325246,0.0,1.0,72.0,180.0,28.0,1.0
29529,2.676658,-1.3085639999999998,0.7595430000000001,0.33627,0.2331,-0.377557,0.0,1.0,72.0,180.0,28.0,1.0
29530,2.6470740000000004,-1.3206950000000002,0.752414,0.39238,0.201508,-0.375956,0.0,1.0,72.0,180.0,28.0,1.0
29531,2.588019,-1.341633,0.7278640000000001,0.474973,0.19283,-0.363959,0.0,1.0,72.0,180.0,28.0,1.0
29532,2.466918,-1.372172,0.652999,0.503333,-0.020302,-0.16276300000000002,0.0,1.0,72.0,180.0,28.0,1.0
29533,2.239027,-1.409734,0.48677,0.525586,0.090533,-0.001944,0.0,1.0,72.0,180.0,28.0,1.0
29534,1.861245,-1.435217,0.178059,0.470676,0.025733,0.239296,0.0,1.0,72.0,180.0,28.0,1.0
29535,1.429394,-1.435899,-0.177982,0.08899299999999999,0.279791,0.5167930000000001,0.0,1.0,72.0,180.0,28.0,1.0
29536,1.051466,-1.415264,-0.5134850000000001,0.052728,0.494447,0.433818,0.0,1.0,72.0,180.0,28.0,1.0
29537,0.741976,-1.373344,-0.8237680000000001,0.15703,0.6983699999999999,-0.044922,0.0,1.0,72.0,180.0,28.0,1.0
29538,0.577534,-1.32745,-0.98557,0.131299,0.659315,0.384053,0.0,1.0,72.0,180.0,28.0,1.0
29539,0.473594,-1.288153,-1.077619,0.025963,0.473471,0.33460300000000004,0.0,1.0,72.0,180.0,28.0,1.0
29540,0.394479,-1.246327,-1.117559,0.075708,0.054774,0.26757,0.0,1.0,72.0,180.0,28.0,1.0
29541,0.346769,-1.203542,-1.108485,0.2558,-0.008573,0.26479,0.0,1.0,72.0,180.0,28.0,1.0
29542,0.322561,-1.169102,-1.065339,0.321973,-0.08325700000000001,0.28725900000000004,0.0,1.0,72.0,180.0,28.0,1.0
29543,0.312325,-1.140205,-1.007098,0.268048,-0.230695,0.3564,0.0,1.0,72.0,180.0,28.0,1.0
29544,0.314535,-1.120289,-0.934839,0.043457,-0.431873,0.520189,0.0,1.0,72.0,180.0,28.0,1.0
29545,0.316632,-1.106226,-0.862258,-0.080358,-0.471682,0.526036,0.0,1.0,72.0,180.0,28.0,1.0
29546,0.312492,-1.100133,-0.804561,-0.181737,-0.446672,0.523027,0.0,1.0,72.0,180.0,28.0,1.0
29547,0.308818,-1.103983,-0.75818,-0.22203,-0.445634,0.493012,0.0,1.0,72.0,180.0,28.0,1.0
29548,0.310567,-1.116193,-0.718734,-0.256272,-0.331403,0.426724,0.0,1.0,72.0,180.0,28.0,1.0
29549,0.322333,-1.134751,-0.6810470000000001,-0.207307,-0.217419,0.1675,0.0,1.0,72.0,180.0,28.0,1.0
29550,0.34773000000000004,-1.158785,-0.640307,-0.188396,-0.183971,0.092094,0.0,1.0,72.0,180.0,28.0,1.0
29551,0.386948,-1.187071,-0.591884,-0.105748,-0.080078,-0.046658,0.0,1.0,72.0,180.0,28.0,1.0
29552,0.432769,-1.216746,-0.537265,-0.084281,0.06651,-0.267785,0.0,1.0,72.0,180.0,28.0,1.0
29553,0.482378,-1.243099,-0.480424,-0.013434,0.333259,-0.6061479999999999,0.0,1.0,72.0,180.0,28.0,1.0
29554,0.522795,-1.259228,-0.4271,0.109919,0.423192,-0.656931,0.0,1.0,72.0,180.0,28.0,1.0
29555,0.552562,-1.261535,-0.383195,0.263575,0.158327,-0.278694,0.0,1.0,72.0,180.0,28.0,1.0
29556,0.581038,-1.251945,-0.353329,-0.065317,-0.080089,-0.254085,0.0,1.0,72.0,180.0,28.0,1.0
29557,0.60123,-1.23737,-0.330572,-0.151807,-0.183849,-0.265635,0.0,1.0,72.0,180.0,28.0,1.0
29558,0.609005,-1.224886,-0.31285,0.001902,-0.009615,0.279347,0.0,1.0,72.0,180.0,28.0,1.0
29559,0.647338,-1.22215,-0.284358,-0.15168900000000002,0.184721,0.59943,0.0,1.0,72.0,180.0,28.0,1.0
29560,0.7050770000000001,-1.2309709999999998,-0.262892,-0.252844,0.423779,0.339339,0.0,1.0,72.0,180.0,28.0,1.0
29561,0.69148,-1.2464309999999998,-0.297856,-0.25050500000000003,0.690361,0.387833,0.0,1.0,72.0,180.0,28.0,1.0
29562,0.625255,-1.249281,-0.378934,-0.165414,-0.32391,0.869179,0.0,1.0,72.0,180.0,28.0,1.0
29563,0.55603,-1.248157,-0.462445,-0.071092,-0.450782,0.805238,0.0,1.0,72.0,180.0,28.0,1.0
29564,0.482538,-1.261458,-0.516754,0.37161,-0.072179,0.625423,0.0,1.0,72.0,180.0,28.0,1.0
29565,0.4304939999999999,-1.291018,-0.55145,0.543676,0.386387,0.378976,0.0,1.0,72.0,180.0,28.0,1.0
29566,0.456212,-1.326335,-0.5249119999999999,0.602996,0.590905,-0.03403,0.0,1.0,72.0,180.0,28.0,1.0
29567,0.539148,-1.339685,-0.440473,0.164278,0.051337,0.158146,0.0,1.0,72.0,180.0,28.0,1.0
29568,0.6512640000000001,-1.348279,-0.32610700000000004,0.093584,-0.09769,0.01411,0.0,1.0,72.0,180.0,28.0,1.0
29569,0.788866,-1.355259,-0.181073,0.03388,-0.080988,-0.049715,0.0,1.0,72.0,180.0,28.0,1.0
29570,0.930073,-1.357524,-0.028351,-0.145752,-0.111438,-0.100428,0.0,1.0,72.0,180.0,28.0,1.0
29571,1.059262,-1.356559,0.101705,-0.171727,-0.148816,-0.228604,0.0,1.0,72.0,180.0,28.0,1.0
29572,1.149302,-1.356425,0.18734,-0.148011,-0.153395,-0.206729,0.0,1.0,72.0,180.0,28.0,1.0
29573,1.1930690000000002,-1.357934,0.230785,-0.040748,-0.199385,-0.220777,0.0,1.0,72.0,180.0,28.0,1.0
29574,1.202273,-1.360007,0.243848,0.049239,-0.213904,-0.228765,0.0,1.0,72.0,180.0,28.0,1.0
29575,1.185833,-1.359803,0.22749,0.084133,-0.220377,-0.260419,0.0,1.0,72.0,180.0,28.0,1.0
29576,1.1434799999999998,-1.357918,0.181682,0.049201,-0.219523,-0.299452,0.0,1.0,72.0,180.0,28.0,1.0
29577,1.072303,-1.354089,0.109278,0.010695,-0.255328,-0.22705300000000006,0.0,1.0,72.0,180.0,28.0,1.0
29578,0.98257,-1.347588,0.020476,0.016911000000000002,-0.381534,-0.063638,0.0,1.0,72.0,180.0,28.0,1.0
29579,0.909988,-1.3406209999999998,-0.056136,0.041036,-0.29812,-0.055505,0.0,1.0,72.0,180.0,28.0,1.0
29580,0.8618049999999999,-1.333312,-0.107024,0.042621,-0.231515,-0.075018,0.0,1.0,72.0,180.0,28.0,1.0
29581,0.829829,-1.324817,-0.145163,0.087649,-0.213063,-0.082862,0.0,1.0,72.0,180.0,28.0,1.0
29582,0.805739,-1.312952,-0.185417,0.137326,-0.185005,0.016717,0.0,1.0,72.0,180.0,28.0,1.0
29583,0.774948,-1.299482,-0.231812,0.372506,-0.109721,-0.069092,0.0,1.0,72.0,180.0,28.0,1.0
29584,0.728892,-1.283773,-0.277973,0.477432,-0.125076,-0.096959,0.0,1.0,72.0,180.0,28.0,1.0
29585,0.664515,-1.260124,-0.330114,0.577214,-0.074015,0.024048,0.0,1.0,72.0,180.0,28.0,1.0
29586,0.575454,-1.224852,-0.392682,0.266633,0.7145020000000001,-0.188597,0.0,1.0,72.0,180.0,28.0,1.0
29587,0.473821,-1.174807,-0.442086,0.025545,0.866233,-0.06436599999999999,0.0,1.0,72.0,180.0,28.0,1.0
29588,0.366959,-1.121772,-0.478652,-0.24561,0.8982469999999999,0.351509,0.0,1.0,72.0,180.0,28.0,1.0
29589,0.274292,-1.069003,-0.504822,-0.145175,0.8936639999999999,0.260904,0.0,1.0,72.0,180.0,28.0,1.0
29590,0.192646,-1.022452,-0.5190939999999999,-0.351264,0.091756,0.333248,0.0,1.0,72.0,180.0,28.0,1.0
29591,0.160475,-0.98739,-0.515696,-0.231636,-0.1049,0.322959,0.0,1.0,72.0,180.0,28.0,1.0
29592,0.154318,-0.965648,-0.506091,-0.042213,-0.13325499999999998,0.282789,0.0,1.0,72.0,180.0,28.0,1.0
29593,0.170112,-0.952019,-0.489591,0.07375599999999999,-0.042524,0.29385900000000004,0.0,1.0,72.0,180.0,28.0,1.0
29594,0.21006100000000005,-0.952871,-0.4613,-0.098235,-0.096027,0.265746,0.0,1.0,72.0,180.0,28.0,1.0
29595,0.263403,-0.966417,-0.420664,-0.200748,-0.124567,0.220916,0.0,1.0,72.0,180.0,28.0,1.0
29596,0.32213600000000003,-0.990392,-0.37243,-0.26911,-0.236021,0.152258,0.0,1.0,72.0,180.0,28.0,1.0
29597,0.382524,-1.0240479999999998,-0.321396,-0.239333,-0.370287,0.220913,0.0,1.0,72.0,180.0,28.0,1.0
29598,0.44065,-1.063056,-0.273875,-0.183525,-0.369893,0.256964,0.0,1.0,72.0,180.0,28.0,1.0
29599,0.484488,-1.108484,-0.243385,-0.101224,-0.403233,0.181222,0.0,1.0,72.0,180.0,28.0,1.0
29600,0.5075189999999999,-1.160117,-0.233194,-0.043801,-0.32136,0.007787,0.0,1.0,72.0,180.0,28.0,1.0
29601,0.5217649999999999,-1.210917,-0.22989,-0.019064,0.264973,-0.332774,0.0,1.0,72.0,180.0,28.0,1.0
29602,0.540945,-1.248004,-0.213051,-0.122277,0.489894,-0.26007600000000003,0.0,1.0,72.0,180.0,28.0,1.0
29603,0.603119,-1.280626,-0.139681,-0.08178400000000001,0.135509,-0.069149,0.0,1.0,72.0,180.0,28.0,1.0
29604,0.727514,-1.3048799999999998,0.001213,-0.131286,-0.000237,-0.17189300000000002,0.0,1.0,72.0,180.0,28.0,1.0
29605,0.8455,-1.315817,0.124522,-0.228314,-0.031542,-0.247714,0.0,1.0,72.0,180.0,28.0,1.0
29606,0.954609,-1.318317,0.225893,-0.298715,-0.103275,-0.012678,0.0,1.0,72.0,180.0,28.0,1.0
29607,1.093618,-1.316982,0.33641,-0.232189,-0.095861,0.137982,0.0,1.0,72.0,180.0,28.0,1.0
29608,1.200581,-1.314182,0.401692,-0.173362,-0.121491,0.446296,0.0,1.0,72.0,180.0,28.0,1.0
29609,1.197191,-1.309659,0.354297,0.020893,0.075911,-0.019553,0.0,1.0,72.0,180.0,28.0,1.0
29610,1.170651,-1.31247,0.319566,0.4663640000000001,0.22239,-0.075089,0.0,1.0,72.0,180.0,28.0,1.0
29611,1.168113,-1.322575,0.353966,0.778003,0.256678,-0.057178,0.0,1.0,72.0,180.0,28.0,1.0
29612,1.144549,-1.318765,0.35238800000000003,0.290582,0.506934,-0.001433,0.0,1.0,72.0,180.0,28.0,1.0
29613,1.211803,-1.311816,0.4139600000000001,0.231242,1.455986,-1.149815,0.0,1.0,72.0,180.0,28.0,1.0
29614,1.218039,-1.29913,0.412712,-0.001645,0.279549,0.177931,0.0,1.0,72.0,180.0,28.0,1.0
29615,1.161082,-1.284046,0.314889,-0.12889,-0.26915,0.556899,0.0,1.0,72.0,180.0,28.0,1.0
29616,1.1329,-1.2763950000000002,0.246748,-0.08202000000000001,-0.305548,0.15884,0.0,1.0,72.0,180.0,28.0,1.0
29617,1.127749,-1.274523,0.236763,-0.143228,-0.309519,0.095103,0.0,1.0,72.0,180.0,28.0,1.0
29618,1.153269,-1.283698,0.276056,-0.207745,-0.151223,0.046454,0.0,1.0,72.0,180.0,28.0,1.0
29619,1.197427,-1.2942,0.33473200000000003,0.047261,-0.015213,-0.316404,0.0,1.0,72.0,180.0,28.0,1.0
29620,1.197234,-1.292307,0.335152,0.06603200000000001,-0.131363,-0.426103,0.0,1.0,72.0,180.0,28.0,1.0
29621,1.19573,-1.291848,0.305182,-0.097863,-0.278744,-0.262731,0.0,1.0,72.0,180.0,28.0,1.0
29622,1.185634,-1.291635,0.251809,-0.039541,-0.30953800000000004,0.030211,0.0,1.0,72.0,180.0,28.0,1.0
29623,1.157083,-1.291885,0.189451,0.17166900000000002,-0.204611,-0.232979,0.0,1.0,72.0,180.0,28.0,1.0
29624,1.114906,-1.287059,0.14540899999999998,0.374239,-0.09054,-0.26302600000000004,0.0,1.0,72.0,180.0,28.0,1.0
29625,1.066983,-1.276709,0.114174,0.392845,-0.262472,-0.003799,0.0,1.0,72.0,180.0,28.0,1.0
29626,1.005862,-1.267103,0.073667,0.383658,-0.309372,-0.000487,0.0,1.0,72.0,180.0,28.0,1.0
29627,0.919244,-1.258176,0.013061,0.348476,-0.12578599999999998,-0.070743,0.0,1.0,72.0,180.0,28.0,1.0
29628,0.810654,-1.2451,-0.056945,0.251661,0.286535,-0.056316,0.0,1.0,72.0,180.0,28.0,1.0
29629,0.701387,-1.221219,-0.124399,0.18309,0.3758510000000001,0.026406,0.0,1.0,72.0,180.0,28.0,1.0
29630,0.589427,-1.188319,-0.194194,-0.064451,0.509833,0.070267,0.0,1.0,72.0,180.0,28.0,1.0
29631,0.481364,-1.151656,-0.251454,-0.258226,0.834074,0.176601,0.0,1.0,72.0,180.0,28.0,1.0
29632,0.388842,-1.115337,-0.286941,-0.300334,0.78323,0.31271,0.0,1.0,72.0,180.0,28.0,1.0
29633,0.329191,-1.082759,-0.305423,-0.35771,0.301941,0.390742,0.0,1.0,72.0,180.0,28.0,1.0
29634,0.292652,-1.056853,-0.310192,-0.160058,-0.114129,0.284957,0.0,1.0,72.0,180.0,28.0,1.0
29635,0.268644,-1.038834,-0.307389,0.043321,0.29903,-0.018805,0.0,1.0,72.0,180.0,28.0,1.0
29636,0.27218000000000003,-1.031983,-0.302041,-0.052887,0.294498,-0.037977,0.0,1.0,72.0,180.0,28.0,1.0
29637,0.297622,-1.03435,-0.279831,-0.112671,0.078061,0.101292,0.0,1.0,72.0,180.0,28.0,1.0
29638,0.335697,-1.043326,-0.244026,-0.217831,-0.232384,0.33712,0.0,1.0,72.0,180.0,28.0,1.0
29639,0.383244,-1.057997,-0.20608,-0.234448,-0.383597,0.415573,0.0,1.0,72.0,180.0,28.0,1.0
29640,0.4263020000000001,-1.076674,-0.17568499999999998,-0.224593,-0.388167,0.39625,0.0,1.0,72.0,180.0,28.0,1.0
29641,0.47121,-1.10142,-0.147841,-0.193907,-0.344548,0.303185,0.0,1.0,72.0,180.0,28.0,1.0
29642,0.5160640000000001,-1.130115,-0.122027,-0.186739,-0.270687,0.090688,0.0,1.0,72.0,180.0,28.0,1.0
29643,0.552873,-1.159767,-0.099999,-0.161456,-0.231667,-0.085829,0.0,1.0,72.0,180.0,28.0,1.0
29644,0.5889949999999999,-1.193576,-0.071979,-0.120855,-0.170323,-0.146547,0.0,1.0,72.0,180.0,28.0,1.0
29645,0.632053,-1.229375,-0.028565,-0.032994,0.171902,-0.299621,0.0,1.0,72.0,180.0,28.0,1.0
29646,0.661114,-1.26066,0.021414,-0.039222,0.122384,-0.279914,0.0,1.0,72.0,180.0,28.0,1.0
29647,0.699751,-1.28607,0.093993,-0.011804,0.031427,-0.246943,0.0,1.0,72.0,180.0,28.0,1.0
29648,0.780767,-1.304828,0.197926,0.012093,-0.084574,-0.167156,0.0,1.0,72.0,180.0,28.0,1.0
29649,0.898768,-1.31687,0.317025,-0.12832000000000002,-0.018623,-0.106597,0.0,1.0,72.0,180.0,28.0,1.0
29650,1.046929,-1.319703,0.447232,-0.255241,0.024095,-0.231228,0.0,1.0,72.0,180.0,28.0,1.0
29651,1.188705,-1.314331,0.5799529999999999,-0.14598,-0.181068,-0.039268,0.0,1.0,72.0,180.0,28.0,1.0
29652,1.234104,-1.3017610000000002,0.626663,-0.077442,-0.200066,0.769532,0.0,1.0,72.0,180.0,28.0,1.0
29653,1.193483,-1.290453,0.536979,-0.024281,-0.098946,0.67448,0.0,1.0,72.0,180.0,28.0,1.0
29654,1.160824,-1.2891,0.469759,0.443873,0.893648,-1.075507,0.0,1.0,72.0,180.0,28.0,1.0
29655,1.175763,-1.30315,0.543586,0.557025,0.462118,0.256821,0.0,1.0,72.0,180.0,28.0,1.0
29656,1.069615,-1.294449,0.4664680000000001,0.321304,0.333947,0.475038,0.0,1.0,72.0,180.0,28.0,1.0
29657,1.125111,-1.286232,0.500454,0.012675,0.131906,0.22591,0.0,1.0,72.0,180.0,28.0,1.0
29658,1.210673,-1.281385,0.555751,-0.026862,0.416359,-0.13503900000000002,0.0,1.0,72.0,180.0,28.0,1.0
29659,1.310873,-1.278428,0.62761,0.011105,0.376741,-0.246964,0.0,1.0,72.0,180.0,28.0,1.0
29660,1.367154,-1.273236,0.659021,-0.07442,0.121567,-0.226663,0.0,1.0,72.0,180.0,28.0,1.0
29661,1.381586,-1.277125,0.651251,-0.20612800000000006,-0.112827,-0.163992,0.0,1.0,72.0,180.0,28.0,1.0
29662,1.361734,-1.283017,0.615434,-0.22435500000000005,-0.137725,-0.215257,0.0,1.0,72.0,180.0,28.0,1.0
29663,1.336235,-1.28779,0.567806,-0.067506,-0.179886,-0.305454,0.0,1.0,72.0,180.0,28.0,1.0
29664,1.300472,-1.291027,0.504085,-0.081303,-0.32321,-0.075683,0.0,1.0,72.0,180.0,28.0,1.0
29665,1.271096,-1.295572,0.441803,-0.098832,-0.419441,0.0033950000000000004,0.0,1.0,72.0,180.0,28.0,1.0
29666,1.245762,-1.297936,0.386213,-0.007494,-0.444663,0.049807,0.0,1.0,72.0,180.0,28.0,1.0
29667,1.218042,-1.291577,0.347515,0.190617,-0.160871,-0.175272,0.0,1.0,72.0,180.0,28.0,1.0
29668,1.169534,-1.275653,0.305726,0.443836,-0.030338,-0.25391,0.0,1.0,72.0,180.0,28.0,1.0
29669,1.09534,-1.247874,0.231364,0.6065560000000001,-0.063577,-0.312105,0.0,1.0,72.0,180.0,28.0,1.0
29670,0.9811,-1.212976,0.120398,0.238921,0.044844,-0.376016,0.0,1.0,72.0,180.0,28.0,1.0
29671,0.812289,-1.169404,-0.016232,-0.22030300000000005,0.4982140000000001,-0.04968,0.0,1.0,72.0,180.0,28.0,1.0
29672,0.628706,-1.131025,-0.13735899999999998,-0.096768,0.511411,0.501603,0.0,1.0,72.0,180.0,28.0,1.0
29673,0.450014,-1.087171,-0.234598,-0.079209,0.558975,0.397247,0.0,1.0,72.0,180.0,28.0,1.0
29674,0.342814,-1.048516,-0.282579,-0.037753,0.5613100000000001,0.393098,0.0,1.0,72.0,180.0,28.0,1.0
29675,0.283731,-1.01717,-0.306618,-0.352596,0.254601,0.329054,0.0,1.0,72.0,180.0,28.0,1.0
29676,0.24531,-0.98855,-0.319845,-0.006348,-0.186166,0.393553,0.0,1.0,72.0,180.0,28.0,1.0
29677,0.238592,-0.971072,-0.32742,-0.020474000000000003,-0.203452,0.33581700000000003,0.0,1.0,72.0,180.0,28.0,1.0
29678,0.272195,-0.973119,-0.331043,-0.18026,-0.250168,0.117544,0.0,1.0,72.0,180.0,28.0,1.0
29679,0.321671,-0.993462,-0.320392,-0.008427,-0.405624,-0.0013449999999999998,0.0,1.0,72.0,180.0,28.0,1.0
29680,0.371466,-1.028968,-0.292977,-0.049294,-0.421479,-0.016,0.0,1.0,72.0,180.0,28.0,1.0
29681,0.434391,-1.078435,-0.246572,-0.12784700000000002,-0.402597,0.135872,0.0,1.0,72.0,180.0,28.0,1.0
29682,0.511324,-1.137289,-0.19407,-0.071903,-0.252621,0.17466600000000002,0.0,1.0,72.0,180.0,28.0,1.0
29683,0.599788,-1.197509,-0.142973,0.006183,-0.13022999999999998,0.117141,0.0,1.0,72.0,180.0,28.0,1.0
29684,0.69616,-1.243688,-0.074683,0.054514,0.493836,-0.169905,0.0,1.0,72.0,180.0,28.0,1.0
29685,0.8134899999999999,-1.262343,0.060327,-0.040523,0.13826,-0.16236199999999998,0.0,1.0,72.0,180.0,28.0,1.0
29686,0.958971,-1.274543,0.248895,-0.158924,0.051162,-0.219546,0.0,1.0,72.0,180.0,28.0,1.0
29687,1.078495,-1.291496,0.420822,-0.427913,-0.128943,-0.253243,0.0,1.0,72.0,180.0,28.0,1.0
29688,1.138257,-1.308784,0.541258,-0.595152,-0.23740100000000006,-0.159032,0.0,1.0,72.0,180.0,28.0,1.0
29689,1.127585,-1.322997,0.5855199999999999,-0.429606,-0.305148,0.16656700000000002,0.0,1.0,72.0,180.0,28.0,1.0
29690,1.09573,-1.323494,0.5571689999999999,-0.08178200000000001,-0.07445,0.549082,0.0,1.0,72.0,180.0,28.0,1.0
29691,1.074332,-1.317437,0.458345,0.004522,0.115283,0.280599,0.0,1.0,72.0,180.0,28.0,1.0
29692,1.069893,-1.3079690000000002,0.365811,0.805496,0.901131,-0.127968,0.0,1.0,72.0,180.0,28.0,1.0
29693,1.002104,-1.295671,0.279803,0.509799,0.200496,0.599194,0.0,1.0,72.0,180.0,28.0,1.0
29694,0.923228,-1.283552,0.231559,0.178078,0.147554,0.11269,0.0,1.0,72.0,180.0,28.0,1.0
29695,0.949833,-1.282355,0.295428,0.344523,0.867072,-0.818723,0.0,1.0,72.0,180.0,28.0,1.0
29696,0.964859,-1.27092,0.30439,-0.213962,0.169154,0.298335,0.0,1.0,72.0,180.0,28.0,1.0
29697,1.008728,-1.264414,0.283647,-0.226359,0.171096,0.290835,0.0,1.0,72.0,180.0,28.0,1.0
29698,1.031778,-1.261168,0.26379400000000003,-0.17128,-0.246087,-0.037293,0.0,1.0,72.0,180.0,28.0,1.0
29699,1.034471,-1.266767,0.262112,-0.045483,-0.258337,-0.07070900000000001,0.0,1.0,72.0,180.0,28.0,1.0
29700,1.035901,-1.272356,0.27614,0.123502,-0.046525,-0.229438,0.0,1.0,72.0,180.0,28.0,1.0
29701,1.030029,-1.27336,0.277922,0.018383,-0.110022,-0.021907,0.0,1.0,72.0,180.0,28.0,1.0
29702,1.033092,-1.278331,0.264652,-0.171351,-0.213624,-0.250821,0.0,1.0,72.0,180.0,28.0,1.0
29703,1.027971,-1.284339,0.243028,-0.101817,-0.221031,-0.220456,0.0,1.0,72.0,180.0,28.0,1.0
29704,1.008667,-1.286615,0.210614,-0.015107,-0.191718,-0.137678,0.0,1.0,72.0,180.0,28.0,1.0
29705,0.991162,-1.279038,0.171793,0.135427,-0.117911,-0.150367,0.0,1.0,72.0,180.0,28.0,1.0
29706,0.977959,-1.260301,0.137312,0.186208,-0.189441,-0.161955,0.0,1.0,72.0,180.0,28.0,1.0
29707,0.93765,-1.235478,0.087578,0.21046,-0.232605,-0.079726,0.0,1.0,72.0,180.0,28.0,1.0
29708,0.8391280000000001,-1.2020959999999998,0.000119,0.123733,0.008884,-0.109614,0.0,1.0,72.0,180.0,28.0,1.0
29709,0.694371,-1.1614,-0.120557,-0.10326,0.181577,0.095164,0.0,1.0,72.0,180.0,28.0,1.0
29710,0.546226,-1.120274,-0.233084,-0.112569,0.3017,0.159598,0.0,1.0,72.0,180.0,28.0,1.0
29711,0.397248,-1.077541,-0.311002,-0.171737,0.6875479999999999,0.32864,0.0,1.0,72.0,180.0,28.0,1.0
29712,0.297082,-1.034646,-0.357585,-0.07270499999999999,0.402541,0.374414,0.0,1.0,72.0,180.0,28.0,1.0
29713,0.22724,-0.998798,-0.391522,-0.045122,0.421401,0.413358,0.0,1.0,72.0,180.0,28.0,1.0
29714,0.185279,-0.969913,-0.408423,-0.225886,0.127343,0.026817,0.0,1.0,72.0,180.0,28.0,1.0
29715,0.191597,-0.952847,-0.411136,-0.049992,-0.001057,-0.174714,0.0,1.0,72.0,180.0,28.0,1.0
29716,0.221766,-0.950309,-0.402979,-0.067553,0.000416,-0.176285,0.0,1.0,72.0,180.0,28.0,1.0
29717,0.262956,-0.966566,-0.381168,-0.045288,-0.311816,0.187949,0.0,1.0,72.0,180.0,28.0,1.0
29718,0.317798,-0.99759,-0.350337,-0.150144,-0.322482,0.441202,0.0,1.0,72.0,180.0,28.0,1.0
29719,0.38104,-1.037052,-0.315355,-0.213091,-0.372215,0.425125,0.0,1.0,72.0,180.0,28.0,1.0
29720,0.447314,-1.079442,-0.284461,-0.240989,-0.468304,0.315019,0.0,1.0,72.0,180.0,28.0,1.0
29721,0.511374,-1.126456,-0.261992,-0.139753,-0.411012,0.10827,0.0,1.0,72.0,180.0,28.0,1.0
29722,0.574451,-1.176407,-0.237954,-0.029547000000000007,-0.039381,-0.271946,0.0,1.0,72.0,180.0,28.0,1.0
29723,0.631645,-1.217011,-0.193543,0.026799,0.551312,-0.401216,0.0,1.0,72.0,180.0,28.0,1.0
29724,0.696967,-1.245598,-0.09413,0.074125,0.525374,-0.329375,0.0,1.0,72.0,180.0,28.0,1.0
29725,0.810334,-1.2707389999999998,0.07494400000000001,-0.037444,0.038745,-0.106309,0.0,1.0,72.0,180.0,28.0,1.0
29726,0.927684,-1.291862,0.235697,-0.296013,-0.046814,-0.260004,0.0,1.0,72.0,180.0,28.0,1.0
29727,1.014196,-1.302804,0.347478,-0.476701,-0.310557,-0.315466,0.0,1.0,72.0,180.0,28.0,1.0
29728,1.0705360000000002,-1.303232,0.414253,-0.393785,-0.331468,0.012872,0.0,1.0,72.0,180.0,28.0,1.0
29729,1.107209,-1.2960040000000002,0.412181,-0.188779,-0.182086,0.799556,0.0,1.0,72.0,180.0,28.0,1.0
29730,1.134374,-1.2876459999999998,0.333396,-0.079455,0.098246,0.287039,0.0,1.0,72.0,180.0,28.0,1.0
29731,1.134969,-1.27723,0.241245,0.158522,0.408474,-0.453371,0.0,1.0,72.0,180.0,28.0,1.0
29732,1.1759,-1.283801,0.280684,0.576304,0.717827,0.271469,0.0,1.0,72.0,180.0,28.0,1.0
29733,1.141154,-1.290597,0.316472,0.577281,0.823896,-0.317195,0.0,1.0,72.0,180.0,28.0,1.0
29734,1.15412,-1.28811,0.354875,0.44731,1.166064,-0.52079,0.0,1.0,72.0,180.0,28.0,1.0
29735,1.186504,-1.276409,0.331789,-0.274802,-0.188975,0.290941,0.0,1.0,72.0,180.0,28.0,1.0
29736,1.187342,-1.265848,0.26802,-0.218303,-0.27094,0.16708,0.0,1.0,72.0,180.0,28.0,1.0
29737,1.19393,-1.263856,0.240383,-0.118706,-0.306809,-0.025647000000000003,0.0,1.0,72.0,180.0,28.0,1.0
29738,1.198707,-1.267973,0.25113,-0.055548,-0.102188,-0.054892,0.0,1.0,72.0,180.0,28.0,1.0
29739,1.213067,-1.272312,0.281636,-0.002275,-0.026538,-0.094111,0.0,1.0,72.0,180.0,28.0,1.0
29740,1.22472,-1.271663,0.292258,-0.034038,-0.214488,-0.09000599999999999,0.0,1.0,72.0,180.0,28.0,1.0
29741,1.232055,-1.269449,0.27420500000000003,-0.123169,-0.28820500000000004,-0.388565,0.0,1.0,72.0,180.0,28.0,1.0
29742,1.226061,-1.269238,0.236346,-0.094305,-0.297114,-0.092464,0.0,1.0,72.0,180.0,28.0,1.0
29743,1.214507,-1.269039,0.192361,0.011217,-0.21655,0.019407,0.0,1.0,72.0,180.0,28.0,1.0
29744,1.190079,-1.264197,0.147548,0.190466,-0.160702,-0.20059,0.0,1.0,72.0,180.0,28.0,1.0
29745,1.16015,-1.254525,0.118744,0.311298,-0.174309,-0.040585,0.0,1.0,72.0,180.0,28.0,1.0
29746,1.127398,-1.24256,0.091887,0.463511,-0.20665300000000006,-0.06961200000000001,0.0,1.0,72.0,180.0,28.0,1.0
29747,1.082376,-1.231563,0.050159,0.555474,-0.171556,-0.265394,0.0,1.0,72.0,180.0,28.0,1.0
29748,1.009772,-1.219537,-0.010921,0.350929,0.027002,-0.135747,0.0,1.0,72.0,180.0,28.0,1.0
29749,0.907108,-1.197317,-0.082125,0.12466,0.248532,-0.109222,0.0,1.0,72.0,180.0,28.0,1.0
29750,0.781436,-1.163841,-0.157461,-0.08742799999999999,0.42043,-0.10411,0.0,1.0,72.0,180.0,28.0,1.0
29751,0.638181,-1.122977,-0.233867,-0.167749,0.676808,0.092042,0.0,1.0,72.0,180.0,28.0,1.0
29752,0.5057619999999999,-1.078974,-0.292391,-0.212863,0.789913,0.286223,0.0,1.0,72.0,180.0,28.0,1.0
29753,0.404867,-1.038561,-0.322482,-0.087227,0.302906,0.518197,0.0,1.0,72.0,180.0,28.0,1.0
29754,0.328111,-1.002052,-0.33165300000000003,-0.135255,-0.195086,0.587317,0.0,1.0,72.0,180.0,28.0,1.0
29755,0.28780900000000004,-0.97151,-0.331671,-0.285517,0.141318,-0.02245,0.0,1.0,72.0,180.0,28.0,1.0
29756,0.285169,-0.954392,-0.333685,0.042372,0.068422,0.018128,0.0,1.0,72.0,180.0,28.0,1.0
29757,0.29338000000000003,-0.947445,-0.32418600000000003,-0.165854,-0.331306,0.266602,0.0,1.0,72.0,180.0,28.0,1.0
29758,0.325383,-0.955449,-0.3022,-0.205322,-0.375259,0.356316,0.0,1.0,72.0,180.0,28.0,1.0
29759,0.368735,-0.971818,-0.278612,-0.200173,-0.310775,0.345947,0.0,1.0,72.0,180.0,28.0,1.0
29760,0.410042,-0.99648,-0.258186,-0.23892,-0.29648800000000003,0.33218600000000004,0.0,1.0,72.0,180.0,28.0,1.0
29761,0.447012,-1.032538,-0.241017,-0.284142,-0.293341,0.302439,0.0,1.0,72.0,180.0,28.0,1.0
29762,0.481315,-1.077078,-0.230736,-0.208216,-0.269127,0.131552,0.0,1.0,72.0,180.0,28.0,1.0
29763,0.517621,-1.124629,-0.222252,-0.025354,-0.027519,-0.276795,0.0,1.0,72.0,180.0,28.0,1.0
29764,0.5640470000000001,-1.173502,-0.196096,0.02364,0.05201,-0.314216,0.0,1.0,72.0,180.0,28.0,1.0
29765,0.620635,-1.215037,-0.135935,0.14122300000000002,0.220622,-0.194088,0.0,1.0,72.0,180.0,28.0,1.0
29766,0.689012,-1.245812,-0.031506,0.001791,0.055854,0.150732,0.0,1.0,72.0,180.0,28.0,1.0
29767,0.802183,-1.271687,0.111747,-0.093126,0.041685,0.094174,0.0,1.0,72.0,180.0,28.0,1.0
29768,0.930226,-1.288712,0.252587,-0.329364,0.00545,-0.282633,0.0,1.0,72.0,180.0,28.0,1.0
29769,1.026167,-1.299249,0.368562,-0.557022,-0.096826,-0.345351,0.0,1.0,72.0,180.0,28.0,1.0
29770,1.079676,-1.309608,0.459053,-0.543363,-0.20720300000000005,-0.062087,0.0,1.0,72.0,180.0,28.0,1.0
29771,1.104695,-1.315883,0.495039,-0.331856,-0.30835300000000004,0.703546,0.0,1.0,72.0,180.0,28.0,1.0
29772,1.103606,-1.310502,0.438712,-0.07762000000000001,0.011545,0.426472,0.0,1.0,72.0,180.0,28.0,1.0
29773,1.094723,-1.301501,0.345519,0.14998,0.251022,-0.299428,0.0,1.0,72.0,180.0,28.0,1.0
29774,1.14616,-1.3116,0.3663030000000001,0.610642,0.367281,0.11275,0.0,1.0,72.0,180.0,28.0,1.0
29775,1.1396620000000002,-1.314447,0.392649,0.685077,2.33558,-2.133803,0.0,1.0,72.0,180.0,28.0,1.0
29776,1.13562,-1.307621,0.422374,0.620992,1.414787,-1.071117,0.0,1.0,72.0,180.0,28.0,1.0
29777,1.049512,-1.288636,0.281436,-0.087977,-0.284629,1.117201,0.0,1.0,72.0,180.0,28.0,1.0
29778,1.028745,-1.270769,0.191636,0.03771,-0.091772,0.170093,0.0,1.0,72.0,180.0,28.0,1.0
29779,1.061686,-1.267599,0.214943,-0.056868,-0.033443,0.24994,0.0,1.0,72.0,180.0,28.0,1.0
29780,1.107512,-1.278713,0.279549,-0.096189,-0.017200999999999998,-0.114056,0.0,1.0,72.0,180.0,28.0,1.0
29781,1.199669,-1.297743,0.391949,0.045169,-0.054901,-0.277243,0.0,1.0,72.0,180.0,28.0,1.0
29782,1.235281,-1.295742,0.447033,0.0985,-0.018654,-0.260288,0.0,1.0,72.0,180.0,28.0,1.0
29783,1.253584,-1.293197,0.453488,-0.191218,-0.332672,-0.18777,0.0,1.0,72.0,180.0,28.0,1.0
29784,1.268335,-1.2974629999999998,0.429573,-0.203378,-0.285356,-0.199922,0.0,1.0,72.0,180.0,28.0,1.0
29785,1.266149,-1.302463,0.393352,0.053714,-0.195949,-0.203673,0.0,1.0,72.0,180.0,28.0,1.0
29786,1.2482030000000002,-1.3054,0.351048,0.054832000000000006,-0.337883,-0.010898,0.0,1.0,72.0,180.0,28.0,1.0
29787,1.232305,-1.303895,0.313523,0.104925,-0.31003600000000003,-0.093875,0.0,1.0,72.0,180.0,28.0,1.0
29788,1.215738,-1.297273,0.285167,0.318321,-0.148799,-0.238579,0.0,1.0,72.0,180.0,28.0,1.0
29789,1.184658,-1.287496,0.25595100000000004,0.460296,-0.080316,-0.221934,0.0,1.0,72.0,180.0,28.0,1.0
29790,1.132943,-1.278452,0.21372800000000006,0.450018,-0.204656,-0.149365,0.0,1.0,72.0,180.0,28.0,1.0
29791,1.053602,-1.2675530000000002,0.15073599999999998,0.317996,-0.176129,-0.159877,0.0,1.0,72.0,180.0,28.0,1.0
29792,0.941347,-1.249425,0.065337,0.172151,0.051228,-0.138345,0.0,1.0,72.0,180.0,28.0,1.0
29793,0.7986340000000001,-1.219087,-0.030763,-0.02979,0.329251,-0.021915,0.0,1.0,72.0,180.0,28.0,1.0
29794,0.643207,-1.177815,-0.136958,-0.144612,0.630321,-0.032507,0.0,1.0,72.0,180.0,28.0,1.0
29795,0.488234,-1.135073,-0.224877,-0.204515,0.794775,0.335476,0.0,1.0,72.0,180.0,28.0,1.0
29796,0.366722,-1.088389,-0.28949899999999995,-0.180479,0.627181,0.336756,0.0,1.0,72.0,180.0,28.0,1.0
29797,0.28649,-1.047365,-0.323825,-0.151518,0.192164,0.32348000000000005,0.0,1.0,72.0,180.0,28.0,1.0
29798,0.235602,-1.01273,-0.32986,0.003222,0.101579,0.304184,0.0,1.0,72.0,180.0,28.0,1.0
29799,0.206479,-0.987073,-0.332997,-0.026868,0.1076,0.119893,0.0,1.0,72.0,180.0,28.0,1.0
29800,0.215598,-0.974304,-0.329142,-0.132823,0.01856,-0.047294,0.0,1.0,72.0,180.0,28.0,1.0
29801,0.244708,-0.974179,-0.309783,-0.140345,-0.238862,0.025798,0.0,1.0,72.0,180.0,28.0,1.0
29802,0.289306,-0.990195,-0.275419,-0.148886,-0.305478,0.268474,0.0,1.0,72.0,180.0,28.0,1.0
29803,0.344105,-1.019384,-0.234198,-0.152121,-0.375574,0.417424,0.0,1.0,72.0,180.0,28.0,1.0
29804,0.406162,-1.0555709999999998,-0.193235,-0.153605,-0.475605,0.404964,0.0,1.0,72.0,180.0,28.0,1.0
29805,0.471726,-1.095721,-0.158199,-0.128947,-0.5360020000000001,0.337582,0.0,1.0,72.0,180.0,28.0,1.0
29806,0.532613,-1.143318,-0.131999,-0.129682,-0.502116,0.249959,0.0,1.0,72.0,180.0,28.0,1.0
29807,0.58816,-1.199583,-0.111016,-0.089114,-0.293445,0.023133,0.0,1.0,72.0,180.0,28.0,1.0
29808,0.654163,-1.257123,-0.060927,-0.101266,0.8447530000000001,-0.092125,0.0,1.0,72.0,180.0,28.0,1.0
29809,0.7447199999999999,-1.292543,0.06890399999999999,-0.08076799999999999,0.607189,-0.11297,0.0,1.0,72.0,180.0,28.0,1.0
29810,0.864618,-1.315647,0.258773,-0.234011,0.030818,-0.462796,0.0,1.0,72.0,180.0,28.0,1.0
29811,0.969765,-1.337709,0.438854,-0.415339,-0.145352,-0.379765,0.0,1.0,72.0,180.0,28.0,1.0
29812,1.04901,-1.350135,0.562898,-0.4066,-0.191192,-0.161894,0.0,1.0,72.0,180.0,28.0,1.0
29813,1.0944120000000002,-1.350996,0.5931390000000001,-0.326562,-0.258686,0.227344,0.0,1.0,72.0,180.0,28.0,1.0
29814,1.122778,-1.344035,0.5503979999999999,0.0008810000000000002,-0.07863200000000001,0.445774,0.0,1.0,72.0,180.0,28.0,1.0
29815,1.128898,-1.333611,0.462099,-0.020708,0.126645,0.313083,0.0,1.0,72.0,180.0,28.0,1.0
29816,1.124757,-1.329731,0.393555,0.529469,1.029419,-0.961938,0.0,1.0,72.0,180.0,28.0,1.0
29817,1.119623,-1.339643,0.407069,0.9004459999999999,0.808473,-0.017939,0.0,1.0,72.0,180.0,28.0,1.0
29818,1.036909,-1.343724,0.35694000000000004,0.822842,0.393377,0.168999,0.0,1.0,72.0,180.0,28.0,1.0
29819,1.025648,-1.346259,0.368718,0.389018,0.168123,0.403062,0.0,1.0,72.0,180.0,28.0,1.0
29820,1.087018,-1.347486,0.445014,-0.031058,0.266148,0.13187,0.0,1.0,72.0,180.0,28.0,1.0
29821,1.198496,-1.349543,0.5620109999999999,-0.118284,0.16958,0.000969,0.0,1.0,72.0,180.0,28.0,1.0
29822,1.299756,-1.350619,0.664377,-0.235513,-0.00363,-0.098735,0.0,1.0,72.0,180.0,28.0,1.0
29823,1.39394,-1.352482,0.75175,-0.25286,-0.22577600000000006,0.0068920000000000006,0.0,1.0,72.0,180.0,28.0,1.0
29824,1.467247,-1.358971,0.806059,-0.200781,-0.304614,-0.019488,0.0,1.0,72.0,180.0,28.0,1.0
29825,1.52128,-1.370703,0.84167,0.029916,-0.311469,-0.24842,0.0,1.0,72.0,180.0,28.0,1.0
29826,1.547292,-1.383582,0.868675,0.103724,-0.311582,-0.16892100000000002,0.0,1.0,72.0,180.0,28.0,1.0
29827,1.554263,-1.3952209999999998,0.8762190000000001,0.104666,-0.320518,-0.192105,0.0,1.0,72.0,180.0,28.0,1.0
29828,1.558176,-1.406072,0.8737739999999999,0.117002,-0.27381700000000003,-0.16661700000000002,0.0,1.0,72.0,180.0,28.0,1.0
29829,1.54536,-1.416616,0.8538120000000001,0.171583,-0.210275,-0.181353,0.0,1.0,72.0,180.0,28.0,1.0
29830,1.524843,-1.42619,0.827139,0.232991,-0.202743,-0.132697,0.0,1.0,72.0,180.0,28.0,1.0
29831,1.513914,-1.432432,0.8176329999999999,0.48328,-0.076136,-0.158683,0.0,1.0,72.0,180.0,28.0,1.0
29832,1.5302360000000002,-1.436169,0.8417030000000001,0.553461,-0.024124,-0.173028,0.0,1.0,72.0,180.0,28.0,1.0
29833,1.572023,-1.441845,0.8955559999999999,0.680611,0.011843,-0.278814,0.0,1.0,72.0,180.0,28.0,1.0
29834,1.594525,-1.449288,0.944346,0.658265,-0.226682,-0.336278,0.0,1.0,72.0,180.0,28.0,1.0
29835,1.581891,-1.451075,0.977141,0.569102,-0.363844,-0.075665,0.0,1.0,72.0,180.0,28.0,1.0
29836,1.454915,-1.447845,0.899697,0.459162,-0.312626,-0.182486,0.0,1.0,72.0,180.0,28.0,1.0
29837,1.208194,-1.434418,0.716353,0.193915,0.265038,0.05439,0.0,1.0,72.0,180.0,28.0,1.0
29838,0.974942,-1.406642,0.561666,0.067009,0.58313,0.347535,0.0,1.0,72.0,180.0,28.0,1.0
29839,0.803639,-1.369605,0.463813,-0.037485,0.978072,0.278059,0.0,1.0,72.0,180.0,28.0,1.0
29840,0.670378,-1.326943,0.372026,-0.17382899999999998,1.043135,0.173001,0.0,1.0,72.0,180.0,28.0,1.0
29841,0.5917,-1.293937,0.28173400000000004,-0.171072,0.915187,0.042102,0.0,1.0,72.0,180.0,28.0,1.0
29842,0.543764,-1.256224,0.212318,0.06560099999999999,0.961348,0.039783,0.0,1.0,72.0,180.0,28.0,1.0
29843,0.492869,-1.21756,0.194908,0.22805300000000006,0.38236,0.118157,0.0,1.0,72.0,180.0,28.0,1.0
29844,0.4472390000000001,-1.1954209999999998,0.222156,0.354225,0.30998600000000004,0.121284,0.0,1.0,72.0,180.0,28.0,1.0
29845,0.446969,-1.1787040000000002,0.293242,0.429554,0.30287800000000004,0.129966,0.0,1.0,72.0,180.0,28.0,1.0
29846,0.462078,-1.164667,0.379537,0.15881900000000002,-0.0114,0.303118,0.0,1.0,72.0,180.0,28.0,1.0
29847,0.466733,-1.154943,0.451934,-0.12146400000000003,-0.28202,0.45201,0.0,1.0,72.0,180.0,28.0,1.0
29848,0.45623,-1.153355,0.510483,-0.16579000000000002,-0.37937,0.503969,0.0,1.0,72.0,180.0,28.0,1.0
29849,0.43454,-1.155701,0.555381,-0.37677,-0.456658,0.5340550000000001,0.0,1.0,72.0,180.0,28.0,1.0
29850,0.406356,-1.161308,0.587453,-0.4211720000000001,-0.483609,0.504067,0.0,1.0,72.0,180.0,28.0,1.0
29851,0.379978,-1.169426,0.613698,-0.410643,-0.4804479999999999,0.489383,0.0,1.0,72.0,180.0,28.0,1.0
29852,0.356112,-1.178736,0.637548,-0.371484,-0.453604,0.343484,0.0,1.0,72.0,180.0,28.0,1.0
29853,0.335468,-1.189769,0.6601020000000001,-0.23927,-0.457107,0.143407,0.0,1.0,72.0,180.0,28.0,1.0
29854,0.298968,-1.201484,0.666828,-0.156606,-0.357289,-0.04576,0.0,1.0,72.0,180.0,28.0,1.0
29855,0.257671,-1.215325,0.672348,0.051698,-0.057218,-0.338727,0.0,1.0,72.0,180.0,28.0,1.0
29856,0.213375,-1.227047,0.6752,0.205417,0.275437,-0.514382,0.0,1.0,72.0,180.0,28.0,1.0
29857,0.17843399999999998,-1.235436,0.683504,0.18181,0.465071,-0.7655109999999999,0.0,1.0,72.0,180.0,28.0,1.0
29858,0.148678,-1.229622,0.696455,0.200623,0.337545,-0.691826,0.0,1.0,72.0,180.0,28.0,1.0
29859,0.150283,-1.21488,0.728088,0.285862,0.16170199999999998,-0.361631,0.0,1.0,72.0,180.0,28.0,1.0
29860,0.181505,-1.202859,0.778732,0.032931,-0.084652,-0.408765,0.0,1.0,72.0,180.0,28.0,1.0
29861,0.206303,-1.1993790000000002,0.838752,-0.138183,-0.4379020000000001,-0.100942,0.0,1.0,72.0,180.0,28.0,1.0
29862,0.24015300000000006,-1.201663,0.906675,-0.042555,0.200599,-0.025789,0.0,1.0,72.0,180.0,28.0,1.0
29863,0.293135,-1.211149,0.970077,-0.030294,0.640044,0.180827,0.0,1.0,72.0,180.0,28.0,1.0
29864,0.33201,-1.230725,0.989826,-0.30803800000000003,2.152698,0.067605,0.0,1.0,72.0,180.0,28.0,1.0
29865,0.238704,-1.209983,0.921707,-0.150057,-0.788592,1.021821,0.0,1.0,72.0,180.0,28.0,1.0
29866,0.17488399999999998,-1.188057,0.882007,-0.170812,-1.343249,1.116633,0.0,1.0,72.0,180.0,28.0,1.0
29867,0.16306199999999998,-1.20102,0.8640979999999999,0.101702,-0.955952,0.75767,0.0,1.0,72.0,180.0,28.0,1.0
29868,0.15323299999999998,-1.225325,0.812292,0.686856,0.192644,1.010828,0.0,1.0,72.0,180.0,28.0,1.0
29869,0.094806,-1.243417,0.6870029999999999,0.6629520000000001,0.32014000000000004,0.848292,0.0,1.0,72.0,180.0,28.0,1.0
29870,0.050621,-1.261458,0.6084579999999999,0.620294,0.401942,0.215175,0.0,1.0,72.0,180.0,28.0,1.0
29871,0.07825900000000001,-1.284046,0.655108,0.613587,0.395309,0.193105,0.0,1.0,72.0,180.0,28.0,1.0
29872,0.15154,-1.308963,0.755657,0.182105,0.020197,0.4199310000000001,0.0,1.0,72.0,180.0,28.0,1.0
29873,0.306727,-1.337238,0.923493,-0.258713,-0.034449,0.00521,0.0,1.0,72.0,180.0,28.0,1.0
29874,0.520433,-1.368439,1.142411,-0.263856,0.064167,-0.069948,0.0,1.0,72.0,180.0,28.0,1.0
29875,0.729592,-1.394012,1.369685,-0.199586,0.072867,-0.091218,0.0,1.0,72.0,180.0,28.0,1.0
29876,0.915524,-1.41238,1.589838,0.037415,-0.15518800000000002,-0.009742,0.0,1.0,72.0,180.0,28.0,1.0
29877,1.138747,-1.422579,1.845272,-0.062111,-0.163047,-0.071769,0.0,1.0,72.0,180.0,28.0,1.0
29878,1.383359,-1.423505,2.107011,-0.06393099999999999,-0.11101400000000003,-0.126078,0.0,1.0,72.0,180.0,28.0,1.0
29879,1.580459,-1.419977,2.314103,-0.054430999999999986,-0.071916,-0.103792,0.0,1.0,72.0,180.0,28.0,1.0
29880,1.7480779999999998,-1.417265,2.484651,0.078013,-0.081209,-0.088327,0.0,1.0,72.0,180.0,28.0,1.0
29881,1.899648,-1.414492,2.638518,0.151375,-0.133424,-0.021731,0.0,1.0,72.0,180.0,28.0,1.0
29882,2.024417,-1.408842,2.769439,0.14346,-0.102896,-0.08433099999999999,0.0,1.0,72.0,180.0,28.0,1.0
29883,2.1465970000000003,-1.400678,2.8984240000000003,0.18776,-0.063858,-0.195781,0.0,1.0,72.0,180.0,28.0,1.0
29884,2.259709,-1.390529,3.025023,0.243231,0.023483,-0.306083,0.0,1.0,72.0,180.0,28.0,1.0
29885,2.341171,-1.381281,3.127241,0.216604,0.103765,-0.226356,0.0,1.0,72.0,180.0,28.0,1.0
29886,2.406893,-1.376605,-3.078443,0.187228,0.16886600000000002,-0.195112,0.0,1.0,72.0,180.0,28.0,1.0
29887,2.46053,-1.376725,-3.0271060000000003,0.094958,0.263722,-0.230509,0.0,1.0,72.0,180.0,28.0,1.0
29888,2.498504,-1.379209,-2.989062,0.163581,0.308641,-0.30192,0.0,1.0,72.0,180.0,28.0,1.0
29889,2.5254220000000003,-1.384068,-2.944643,0.342402,0.208225,-0.264923,0.0,1.0,72.0,180.0,28.0,1.0
29890,2.532087,-1.392806,-2.913044,0.464577,0.149206,-0.240702,0.0,1.0,72.0,180.0,28.0,1.0
29891,2.526238,-1.40524,-2.899678,0.4798689999999999,0.126695,-0.28323000000000004,0.0,1.0,72.0,180.0,28.0,1.0
29892,2.486785,-1.423762,-2.914991,0.542854,0.169482,-0.248803,0.0,1.0,72.0,180.0,28.0,1.0
29893,2.338652,-1.450624,-3.01567,0.5458569999999999,0.165903,-0.215866,0.0,1.0,72.0,180.0,28.0,1.0
29894,1.977081,-1.473213,2.970424,0.484189,0.10072,0.129381,0.0,1.0,72.0,180.0,28.0,1.0
29895,1.403111,-1.477324,2.467564,0.150109,0.063295,0.203315,0.0,1.0,72.0,180.0,28.0,1.0
29896,0.908579,-1.451828,2.043545,0.148479,0.065998,0.260678,0.0,1.0,72.0,180.0,28.0,1.0
29897,0.6041850000000001,-1.409591,1.7865240000000002,0.224346,0.442546,0.353152,0.0,1.0,72.0,180.0,28.0,1.0
29898,0.442907,-1.352846,1.625892,0.360476,0.435507,0.250834,0.0,1.0,72.0,180.0,28.0,1.0
29899,0.389219,-1.294548,1.546686,0.46199,0.593121,0.4156,0.0,1.0,72.0,180.0,28.0,1.0
29900,0.343295,-1.246818,1.493392,0.209677,0.421515,0.440074,0.0,1.0,72.0,180.0,28.0,1.0
29901,0.276523,-1.206906,1.461488,0.049261,0.108907,0.417228,0.0,1.0,72.0,180.0,28.0,1.0
29902,0.2115,-1.1737959999999998,1.473371,0.143521,0.016709,0.35488600000000003,0.0,1.0,72.0,180.0,28.0,1.0
29903,0.16783199999999998,-1.141263,1.523605,0.497439,0.10822,0.186777,0.0,1.0,72.0,180.0,28.0,1.0
29904,0.169883,-1.112778,1.607713,0.493331,0.016644,0.303283,0.0,1.0,72.0,180.0,28.0,1.0
29905,0.199982,-1.093916,1.706855,0.238364,-0.154987,0.4117,0.0,1.0,72.0,180.0,28.0,1.0
29906,0.218902,-1.0830540000000002,1.803296,0.110486,-0.285325,0.583855,0.0,1.0,72.0,180.0,28.0,1.0
29907,0.215138,-1.075409,1.884372,-0.029703,-0.319131,0.558638,0.0,1.0,72.0,180.0,28.0,1.0
29908,0.213606,-1.078235,1.962743,-0.066336,-0.269522,0.536662,0.0,1.0,72.0,180.0,28.0,1.0
29909,0.213494,-1.087781,2.0291,-0.120055,-0.247933,0.466924,0.0,1.0,72.0,180.0,28.0,1.0
29910,0.216613,-1.100695,2.083935,-0.173951,-0.137402,0.369668,0.0,1.0,72.0,180.0,28.0,1.0
29911,0.230046,-1.115747,2.138132,-0.170282,-0.122849,0.323694,0.0,1.0,72.0,180.0,28.0,1.0
29912,0.248471,-1.130703,2.190717,-0.177793,-0.152805,0.242375,0.0,1.0,72.0,180.0,28.0,1.0
29913,0.265093,-1.146077,2.237149,-0.145553,-0.232138,0.157617,0.0,1.0,72.0,180.0,28.0,1.0
29914,0.27581500000000003,-1.16665,2.275611,-0.095274,-0.202794,0.08108,0.0,1.0,72.0,180.0,28.0,1.0
29915,0.280169,-1.195263,2.306393,0.150587,0.040589,-0.121843,0.0,1.0,72.0,180.0,28.0,1.0
29916,0.289891,-1.228694,2.335316,0.151093,0.106243,-0.280574,0.0,1.0,72.0,180.0,28.0,1.0
29917,0.317563,-1.25655,2.375168,0.163899,0.358953,-0.572656,0.0,1.0,72.0,180.0,28.0,1.0
29918,0.348878,-1.270549,2.4222900000000003,0.27197,0.466337,-0.54875,0.0,1.0,72.0,180.0,28.0,1.0
29919,0.380578,-1.268423,2.466759,0.241981,0.351459,-0.403907,0.0,1.0,72.0,180.0,28.0,1.0
29920,0.4220350000000001,-1.2565110000000002,2.513115,-0.167739,-0.052977,-0.378887,0.0,1.0,72.0,180.0,28.0,1.0
29921,0.456649,-1.243761,2.559693,-0.096805,-0.185326,-0.177539,0.0,1.0,72.0,180.0,28.0,1.0
29922,0.484451,-1.236484,2.596898,-0.076537,-0.125437,-0.10645,0.0,1.0,72.0,180.0,28.0,1.0
29923,0.523351,-1.23909,2.631142,0.000677,0.378517,0.772614,0.0,1.0,72.0,180.0,28.0,1.0
29924,0.562574,-1.247981,2.63679,-0.097747,0.8916959999999999,-0.207523,0.0,1.0,72.0,180.0,28.0,1.0
29925,0.49929,-1.2446469999999998,2.559192,-0.094861,0.117033,0.35422800000000004,0.0,1.0,72.0,180.0,28.0,1.0
29926,0.434042,-1.239163,2.487434,0.08932999999999999,-0.511124,0.784035,0.0,1.0,72.0,180.0,28.0,1.0
29927,0.382172,-1.244888,2.4392560000000003,0.346428,-0.432971,0.764804,0.0,1.0,72.0,180.0,28.0,1.0
29928,0.31790300000000005,-1.260068,2.384512,0.514119,-0.128198,0.661467,0.0,1.0,72.0,180.0,28.0,1.0
29929,0.25184,-1.281194,2.313611,0.589629,0.598527,0.139737,0.0,1.0,72.0,180.0,28.0,1.0
29930,0.267088,-1.29925,2.326252,0.468617,0.470069,-0.130833,0.0,1.0,72.0,180.0,28.0,1.0
29931,0.329516,-1.317268,2.4061220000000003,0.147518,0.094192,0.27698,0.0,1.0,72.0,180.0,28.0,1.0
29932,0.427196,-1.33224,2.517164,0.04286,-0.055329,0.168015,0.0,1.0,72.0,180.0,28.0,1.0
29933,0.549127,-1.3454700000000002,2.650573,-0.13636700000000002,-0.12351,0.055469,0.0,1.0,72.0,180.0,28.0,1.0
29934,0.686545,-1.35606,2.8024720000000003,-0.199738,-0.128903,-0.018665,0.0,1.0,72.0,180.0,28.0,1.0
29935,0.809562,-1.360974,2.933813,-0.226032,-0.142283,-0.06299,0.0,1.0,72.0,180.0,28.0,1.0
29936,0.884443,-1.3635700000000002,3.012435,-0.139571,-0.23515100000000005,-0.133365,0.0,1.0,72.0,180.0,28.0,1.0
29937,0.923659,-1.365581,3.053738,0.042451,-0.231138,-0.279944,0.0,1.0,72.0,180.0,28.0,1.0
29938,0.930931,-1.364876,3.059827,0.053461,-0.233161,-0.274187,0.0,1.0,72.0,180.0,28.0,1.0
29939,0.8933190000000001,-1.361262,3.023549,0.08026599999999999,-0.304132,-0.11328599999999997,0.0,1.0,72.0,180.0,28.0,1.0
29940,0.825116,-1.356205,2.954248,0.093492,-0.358091,-0.05863400000000001,0.0,1.0,72.0,180.0,28.0,1.0
29941,0.756123,-1.348645,2.880673,0.110033,-0.409645,-0.050835000000000005,0.0,1.0,72.0,180.0,28.0,1.0
29942,0.706994,-1.341492,2.831102,0.076294,-0.200464,-0.166143,0.0,1.0,72.0,180.0,28.0,1.0
29943,0.6612439999999999,-1.33315,2.796813,0.067159,-0.27168400000000004,-0.034041,0.0,1.0,72.0,180.0,28.0,1.0
29944,0.627969,-1.324791,2.769485,0.078095,-0.286864,0.031678,0.0,1.0,72.0,180.0,28.0,1.0
29945,0.609958,-1.31439,2.739941,0.180798,-0.26847,0.139238,0.0,1.0,72.0,180.0,28.0,1.0
29946,0.600887,-1.302496,2.712405,0.397844,-0.08405,-0.108979,0.0,1.0,72.0,180.0,28.0,1.0
29947,0.578387,-1.286889,2.687332,0.481046,-0.037529,-0.157495,0.0,1.0,72.0,180.0,28.0,1.0
29948,0.537786,-1.263341,2.656117,0.396113,-0.095853,-0.114898,0.0,1.0,72.0,180.0,28.0,1.0
29949,0.46724,-1.228782,2.606948,0.327203,0.09779,0.049016,0.0,1.0,72.0,180.0,28.0,1.0
29950,0.356709,-1.179422,2.552063,0.205748,0.696815,-0.036784,0.0,1.0,72.0,180.0,28.0,1.0
29951,0.231848,-1.123449,2.50907,0.065708,0.932783,0.316981,0.0,1.0,72.0,180.0,28.0,1.0
29952,0.13639400000000002,-1.07121,2.4860830000000003,-0.149198,0.8916280000000001,0.251608,0.0,1.0,72.0,180.0,28.0,1.0
29953,0.070114,-1.022549,2.480387,0.005389,0.755219,0.436313,0.0,1.0,72.0,180.0,28.0,1.0
29954,0.027236,-0.980566,2.494692,0.16401300000000002,0.392057,0.39589,0.0,1.0,72.0,180.0,28.0,1.0
29955,0.029601,-0.957927,2.510552,-0.22108000000000005,-0.024818,0.124486,0.0,1.0,72.0,180.0,28.0,1.0
29956,0.055933,-0.941988,2.533722,-0.075438,-0.104078,0.247638,0.0,1.0,72.0,180.0,28.0,1.0
29957,0.103741,-0.940391,2.568633,-0.026496,-0.198597,0.387503,0.0,1.0,72.0,180.0,28.0,1.0
29958,0.167353,-0.954493,2.609907,-0.098158,-0.34522600000000003,0.431129,0.0,1.0,72.0,180.0,28.0,1.0
29959,0.233659,-0.977029,2.651341,-0.150872,-0.397977,0.37452,0.0,1.0,72.0,180.0,28.0,1.0
29960,0.293759,-1.007565,2.688996,-0.174599,-0.498397,0.33515,0.0,1.0,72.0,180.0,28.0,1.0
29961,0.345168,-1.044709,2.717357,-0.142253,-0.51198,0.284871,0.0,1.0,72.0,180.0,28.0,1.0
29962,0.38567,-1.090854,2.734555,-0.113552,-0.5145850000000001,0.220569,0.0,1.0,72.0,180.0,28.0,1.0
29963,0.410357,-1.151412,2.741115,-0.045236,-0.415705,0.036994,0.0,1.0,72.0,180.0,28.0,1.0
29964,0.414771,-1.221205,2.740159,0.008026,-0.158049,-0.193388,0.0,1.0,72.0,180.0,28.0,1.0
29965,0.397366,-1.2731629999999998,2.7467080000000004,0.055134,0.627722,-0.324622,0.0,1.0,72.0,180.0,28.0,1.0
29966,0.413052,-1.307353,2.801172,-0.036872,-0.153686,-0.13031700000000002,0.0,1.0,72.0,180.0,28.0,1.0
29967,0.506497,-1.338924,2.920478,-0.183145,-0.187242,-0.204744,0.0,1.0,72.0,180.0,28.0,1.0
29968,0.6246470000000001,-1.357817,3.044485,-0.315357,-0.221012,-0.335599,0.0,1.0,72.0,180.0,28.0,1.0
29969,0.737322,-1.358677,-3.129913,-0.118086,-0.319368,0.236075,0.0,1.0,72.0,180.0,28.0,1.0
29970,0.796836,-1.345988,-3.095413,0.270514,0.017396000000000002,0.898702,0.0,1.0,72.0,180.0,28.0,1.0
29971,0.789974,-1.3274860000000002,3.120219,0.363947,0.982,-0.190411,0.0,1.0,72.0,180.0,28.0,1.0
29972,0.83136,-1.333106,3.140667,0.705687,0.834726,-0.17915899999999998,0.0,1.0,72.0,180.0,28.0,1.0
29973,0.790556,-1.336552,-3.136566,0.257349,1.187161,-0.373422,0.0,1.0,72.0,180.0,28.0,1.0
29974,0.7581439999999999,-1.336691,-3.140073,0.809068,0.660029,-0.7744800000000001,0.0,1.0,72.0,180.0,28.0,1.0
29975,0.6888880000000001,-1.314467,3.06462,0.114465,-0.177731,0.880498,0.0,1.0,72.0,180.0,28.0,1.0
29976,0.679251,-1.291347,3.015911,-0.044821,-0.294475,0.16701400000000002,0.0,1.0,72.0,180.0,28.0,1.0
29977,0.731995,-1.28709,3.054352,-0.13783399999999998,-0.085772,0.325252,0.0,1.0,72.0,180.0,28.0,1.0
29978,0.795439,-1.2979120000000002,3.114759,-0.14562,-0.113098,0.051873,0.0,1.0,72.0,180.0,28.0,1.0
29979,0.8633149999999999,-1.314789,-3.093258,0.127896,-0.083482,-0.461903,0.0,1.0,72.0,180.0,28.0,1.0
29980,0.877491,-1.31563,-3.061786,0.059238,-0.103028,-0.086017,0.0,1.0,72.0,180.0,28.0,1.0
29981,0.8672719999999999,-1.317097,-3.082132,-0.066317,-0.219165,-0.200225,0.0,1.0,72.0,180.0,28.0,1.0
29982,0.850249,-1.319847,-3.1175330000000003,-0.063585,-0.275669,-0.274829,0.0,1.0,72.0,180.0,28.0,1.0
29983,0.832469,-1.323039,3.140849,0.130428,-0.160429,-0.026779,0.0,1.0,72.0,180.0,28.0,1.0
29984,0.805158,-1.3228030000000002,3.10271,0.159708,-0.235322,0.127013,0.0,1.0,72.0,180.0,28.0,1.0
29985,0.7990970000000001,-1.316438,3.083549,0.258892,-0.211416,-0.084475,0.0,1.0,72.0,180.0,28.0,1.0
29986,0.803447,-1.30395,3.075595,0.370049,-0.211845,-0.13652899999999998,0.0,1.0,72.0,180.0,28.0,1.0
29987,0.786293,-1.291287,3.050673,0.438286,-0.295679,-0.047812,0.0,1.0,72.0,180.0,28.0,1.0
29988,0.716162,-1.278246,2.994324,0.372689,-0.240608,-0.064752,0.0,1.0,72.0,180.0,28.0,1.0
29989,0.617436,-1.254571,2.9199740000000003,0.308821,-0.146446,-0.084503,0.0,1.0,72.0,180.0,28.0,1.0
29990,0.5136539999999999,-1.219481,2.847065,0.165848,0.27603,0.088201,0.0,1.0,72.0,180.0,28.0,1.0
29991,0.387861,-1.1730120000000002,2.772081,-0.07509099999999999,0.589492,0.021609,0.0,1.0,72.0,180.0,28.0,1.0
29992,0.27317,-1.123731,2.719092,-0.045218,0.609694,0.0793,0.0,1.0,72.0,180.0,28.0,1.0
29993,0.186397,-1.077875,2.694067,-0.150862,1.087415,0.27801,0.0,1.0,72.0,180.0,28.0,1.0
29994,0.116577,-1.034964,2.684488,-0.219921,0.47823,0.502456,0.0,1.0,72.0,180.0,28.0,1.0
29995,0.083222,-1.001686,2.692169,-0.279764,0.13613499999999998,0.303288,0.0,1.0,72.0,180.0,28.0,1.0
29996,0.077014,-0.979689,2.7011380000000003,-0.077146,0.104658,0.0616,0.0,1.0,72.0,180.0,28.0,1.0
29997,0.086034,-0.963639,2.707565,0.048968,-0.059204,0.02717,0.0,1.0,72.0,180.0,28.0,1.0
29998,0.115866,-0.964092,2.723033,-0.015147999999999997,-0.184767,0.189759,0.0,1.0,72.0,180.0,28.0,1.0
29999,0.1523,-0.977807,2.743809,-0.079715,-0.27765300000000004,0.350383,0.0,1.0,72.0,180.0,28.0,1.0
30000,0.188798,-0.998544,2.76399,-0.144966,-0.33828800000000003,0.350878,0.0,1.0,72.0,180.0,28.0,1.0
30001,0.221097,-1.027627,2.779281,-0.207002,-0.4441640000000001,0.326112,0.0,1.0,72.0,180.0,28.0,1.0
30002,0.249822,-1.063401,2.787832,-0.204126,-0.507909,0.258417,0.0,1.0,72.0,180.0,28.0,1.0
30003,0.269789,-1.105934,2.789488,-0.117374,-0.423897,0.15745599999999998,0.0,1.0,72.0,180.0,28.0,1.0
30004,0.284266,-1.155017,2.792542,0.083965,-0.249992,-0.009145,0.0,1.0,72.0,180.0,28.0,1.0
30005,0.30495300000000003,-1.2055,2.813455,0.180898,-0.006833,-0.182457,0.0,1.0,72.0,180.0,28.0,1.0
30006,0.335136,-1.25275,2.861583,0.165623,0.091824,-0.267061,0.0,1.0,72.0,180.0,28.0,1.0
30007,0.393184,-1.297486,2.945095,0.12546500000000002,-0.024314,-0.101661,0.0,1.0,72.0,180.0,28.0,1.0
30008,0.501452,-1.335646,3.069955,0.021523,-0.09487,-0.054935000000000005,0.0,1.0,72.0,180.0,28.0,1.0
30009,0.6461560000000001,-1.358909,-3.068248,-0.168286,0.055399,-0.120889,0.0,1.0,72.0,180.0,28.0,1.0
30010,0.790883,-1.366591,-2.929853,-0.271322,0.147975,-0.2476,0.0,1.0,72.0,180.0,28.0,1.0
30011,0.914057,-1.368763,-2.798671,-0.509525,0.018249,-0.646413,0.0,1.0,72.0,180.0,28.0,1.0
30012,1.000523,-1.364344,-2.683488,-0.007266,-0.087132,0.674127,0.0,1.0,72.0,180.0,28.0,1.0
30013,1.0099129999999998,-1.34965,-2.714729,-0.05784400000000001,-0.006072999999999999,0.8441139999999999,0.0,1.0,72.0,180.0,28.0,1.0
30014,0.956334,-1.333994,-2.872619,0.393498,0.854842,-1.3691879999999998,0.0,1.0,72.0,180.0,28.0,1.0
30015,0.920528,-1.337955,-2.931469,0.584435,0.612938,-0.064575,0.0,1.0,72.0,180.0,28.0,1.0
30016,0.836392,-1.338557,-2.958586,0.492642,0.944098,-0.140241,0.0,1.0,72.0,180.0,28.0,1.0
30017,0.911731,-1.348235,-2.853225,0.57705,0.941977,-0.987222,0.0,1.0,72.0,180.0,28.0,1.0
30018,0.909411,-1.335321,-2.88108,0.12957,0.147317,0.237356,0.0,1.0,72.0,180.0,28.0,1.0
30019,0.8999030000000001,-1.318079,-2.949755,-0.003399,-0.060812,0.208839,0.0,1.0,72.0,180.0,28.0,1.0
30020,0.940555,-1.311066,-2.940376,-0.117756,-0.12126,0.168938,0.0,1.0,72.0,180.0,28.0,1.0
30021,0.989178,-1.315606,-2.891118,-0.182415,-0.16688,0.175673,0.0,1.0,72.0,180.0,28.0,1.0
30022,1.053181,-1.327328,-2.818823,-0.182273,-0.093814,0.068845,0.0,1.0,72.0,180.0,28.0,1.0
30023,1.125168,-1.340182,-2.737276,-0.000442,-0.10315,-0.33279000000000003,0.0,1.0,72.0,180.0,28.0,1.0
30024,1.124133,-1.338348,-2.726823,0.008029000000000001,-0.259116,-0.35838600000000004,0.0,1.0,72.0,180.0,28.0,1.0
30025,1.123266,-1.338892,-2.743034,-0.082122,-0.431528,-0.10433,0.0,1.0,72.0,180.0,28.0,1.0
30026,1.107464,-1.336147,-2.81217,0.07022300000000001,-0.392213,-0.138373,0.0,1.0,72.0,180.0,28.0,1.0
30027,1.069134,-1.329033,-2.923068,0.096461,-0.358338,-0.199894,0.0,1.0,72.0,180.0,28.0,1.0
30028,1.030007,-1.319232,-3.014657,0.119936,-0.357471,0.013134,0.0,1.0,72.0,180.0,28.0,1.0
30029,0.994249,-1.3057530000000002,-3.060723,0.256579,-0.306817,-0.049439,0.0,1.0,72.0,180.0,28.0,1.0
30030,0.944669,-1.289772,-3.09698,0.410433,-0.2596,-0.213612,0.0,1.0,72.0,180.0,28.0,1.0
30031,0.8730760000000001,-1.274708,3.13681,0.541447,-0.231418,-0.233627,0.0,1.0,72.0,180.0,28.0,1.0
30032,0.776404,-1.257464,3.058355,0.47099,0.079114,-0.07714700000000001,0.0,1.0,72.0,180.0,28.0,1.0
30033,0.668054,-1.225725,2.97267,0.159663,0.4706,-0.13706300000000002,0.0,1.0,72.0,180.0,28.0,1.0
30034,0.547211,-1.182854,2.884301,0.054439,0.581086,-0.058137,0.0,1.0,72.0,180.0,28.0,1.0
30035,0.418075,-1.138739,2.8024150000000003,-0.150333,0.967733,0.081586,0.0,1.0,72.0,180.0,28.0,1.0
30036,0.29951700000000003,-1.098243,2.742955,-0.127413,0.813159,0.387763,0.0,1.0,72.0,180.0,28.0,1.0
30037,0.20811,-1.062766,2.702685,-0.325846,0.337218,0.427943,0.0,1.0,72.0,180.0,28.0,1.0
30038,0.166542,-1.032055,2.686696,-0.367977,-0.134707,0.110895,0.0,1.0,72.0,180.0,28.0,1.0
30039,0.14665,-1.010694,2.681408,0.05123,-0.081347,0.19629,0.0,1.0,72.0,180.0,28.0,1.0
30040,0.156387,-1.001655,2.683696,0.172933,0.059674,0.15542899999999998,0.0,1.0,72.0,180.0,28.0,1.0
30041,0.195854,-1.007609,2.699183,-0.01672,-0.037437,0.196853,0.0,1.0,72.0,180.0,28.0,1.0
30042,0.249358,-1.024844,2.725364,-0.168783,-0.319187,0.337069,0.0,1.0,72.0,180.0,28.0,1.0
30043,0.309719,-1.050731,2.754571,-0.218535,-0.447117,0.378217,0.0,1.0,72.0,180.0,28.0,1.0
30044,0.379375,-1.08284,2.788743,-0.268604,-0.601753,0.445589,0.0,1.0,72.0,180.0,28.0,1.0
30045,0.451346,-1.121441,2.819399,-0.15566300000000002,-0.679384,0.385362,0.0,1.0,72.0,180.0,28.0,1.0
30046,0.509981,-1.1674870000000002,2.836989,-0.040254000000000005,-0.618513,0.300331,0.0,1.0,72.0,180.0,28.0,1.0
30047,0.551732,-1.220827,2.845344,-0.013126,-0.4867770000000001,0.11658699999999997,0.0,1.0,72.0,180.0,28.0,1.0
30048,0.596746,-1.2775299999999998,2.884021,0.069136,0.109666,-0.038206,0.0,1.0,72.0,180.0,28.0,1.0
30049,0.68706,-1.317197,3.017312,0.11218,0.550249,-0.576801,0.0,1.0,72.0,180.0,28.0,1.0
30050,0.796531,-1.3409950000000002,-3.081937,-0.148399,-0.041827,-0.828255,0.0,1.0,72.0,180.0,28.0,1.0
30051,0.9001520000000001,-1.354775,-2.931954,-0.26024400000000003,-0.442899,0.117984,0.0,1.0,72.0,180.0,28.0,1.0
30052,0.969338,-1.350706,-2.8896610000000003,-0.157091,-0.505861,0.447358,0.0,1.0,72.0,180.0,28.0,1.0
30053,0.992433,-1.330214,-2.950303,0.095382,-0.4360890000000001,0.793434,0.0,1.0,72.0,180.0,28.0,1.0
30054,0.976207,-1.305978,-3.047972,0.239059,0.784646,-0.697767,0.0,1.0,72.0,180.0,28.0,1.0
30055,1.040849,-1.311403,-3.005248,0.532722,1.459129,-1.438405,0.0,1.0,72.0,180.0,28.0,1.0
30056,0.952937,-1.308366,-3.0246630000000003,0.876352,1.245816,0.078941,0.0,1.0,72.0,180.0,28.0,1.0
30057,0.894552,-1.304433,-3.064588,0.484858,0.409304,0.067827,0.0,1.0,72.0,180.0,28.0,1.0
30058,0.916879,-1.299474,-3.049848,0.561925,0.5264810000000001,-0.34525100000000003,0.0,1.0,72.0,180.0,28.0,1.0
30059,0.945045,-1.2905719999999998,-3.056412,0.020919,0.29453,0.209224,0.0,1.0,72.0,180.0,28.0,1.0
30060,0.962723,-1.288864,-3.068114,-0.065105,-0.144007,-0.026049,0.0,1.0,72.0,180.0,28.0,1.0
30061,0.984253,-1.293217,-3.053885,-0.038545,-0.151327,-0.031226,0.0,1.0,72.0,180.0,28.0,1.0
30062,0.993104,-1.295772,-3.039125,-0.000114,-0.201844,-0.13427999999999998,0.0,1.0,72.0,180.0,28.0,1.0
30063,1.000509,-1.297326,-3.0292060000000003,-0.023399,-0.190394,-0.061153999999999986,0.0,1.0,72.0,180.0,28.0,1.0
30064,1.002611,-1.29638,-3.044435,-0.083845,-0.211454,-0.225067,0.0,1.0,72.0,180.0,28.0,1.0
30065,0.979927,-1.29598,-3.083153,-0.244983,-0.352871,-0.27273400000000003,0.0,1.0,72.0,180.0,28.0,1.0
30066,0.936717,-1.297964,-3.135883,-0.048885000000000005,-0.39833,0.099985,0.0,1.0,72.0,180.0,28.0,1.0
30067,0.886915,-1.295474,3.095895,0.236692,-0.26171500000000003,0.025421,0.0,1.0,72.0,180.0,28.0,1.0
30068,0.833176,-1.281268,3.051565,0.485878,-0.209798,0.070845,0.0,1.0,72.0,180.0,28.0,1.0
30069,0.778883,-1.252198,2.996417,0.531243,-0.220229,0.027856,0.0,1.0,72.0,180.0,28.0,1.0
30070,0.693817,-1.21118,2.915154,0.434093,9.5e-05,-0.496323,0.0,1.0,72.0,180.0,28.0,1.0
30071,0.565787,-1.166121,2.818187,-0.193675,0.554891,0.160978,0.0,1.0,72.0,180.0,28.0,1.0
30072,0.437858,-1.123226,2.740623,-0.337025,0.723316,0.114072,0.0,1.0,72.0,180.0,28.0,1.0
30073,0.329775,-1.077523,2.689372,-0.239865,0.914668,0.217362,0.0,1.0,72.0,180.0,28.0,1.0
30074,0.246944,-1.042758,2.659226,-0.061023,0.578113,0.256961,0.0,1.0,72.0,180.0,28.0,1.0
30075,0.198027,-1.01202,2.650396,-0.021839,0.084743,0.048541,0.0,1.0,72.0,180.0,28.0,1.0
30076,0.182411,-0.994629,2.650548,0.081104,-0.065745,0.126937,0.0,1.0,72.0,180.0,28.0,1.0
30077,0.201853,-0.994225,2.658802,0.038855,-0.115757,0.231417,0.0,1.0,72.0,180.0,28.0,1.0
30078,0.24727800000000005,-1.010867,2.678171,-0.042673,-0.111407,0.28935900000000003,0.0,1.0,72.0,180.0,28.0,1.0
30079,0.308699,-1.039392,2.712057,-0.087839,-0.173528,0.265617,0.0,1.0,72.0,180.0,28.0,1.0
30080,0.382241,-1.077394,2.758096,-0.174644,-0.493458,0.344263,0.0,1.0,72.0,180.0,28.0,1.0
30081,0.468325,-1.121468,2.81233,-0.14288299999999998,-0.657285,0.30785,0.0,1.0,72.0,180.0,28.0,1.0
30082,0.559465,-1.172294,2.861933,-0.099932,-0.687405,0.26093,0.0,1.0,72.0,180.0,28.0,1.0
30083,0.6369239999999999,-1.231061,2.904399,-0.017583,-0.507296,0.183453,0.0,1.0,72.0,180.0,28.0,1.0
30084,0.709521,-1.288504,2.967703,0.05486,0.318786,-0.028205,0.0,1.0,72.0,180.0,28.0,1.0
30085,0.795438,-1.314239,3.095634,0.004136,0.61728,-0.372606,0.0,1.0,72.0,180.0,28.0,1.0
30086,0.8725219999999999,-1.323241,-3.036591,-0.309238,-0.071367,-0.723321,0.0,1.0,72.0,180.0,28.0,1.0
30087,0.930679,-1.331143,-2.9321580000000003,-0.32960900000000004,-0.395355,-0.251421,0.0,1.0,72.0,180.0,28.0,1.0
30088,0.968859,-1.33205,-2.897843,-0.373263,-0.47577,0.230336,0.0,1.0,72.0,180.0,28.0,1.0
30089,0.971056,-1.317166,-2.940323,0.153359,-0.44631,0.7094,0.0,1.0,72.0,180.0,28.0,1.0
30090,0.955514,-1.297175,-3.014827,0.039449,-0.036163,0.535801,0.0,1.0,72.0,180.0,28.0,1.0
30091,0.971917,-1.287628,-3.034657,0.447612,1.2555690000000002,-1.067248,0.0,1.0,72.0,180.0,28.0,1.0
30092,0.946621,-1.284146,-3.025389,1.099577,1.7836009999999998,0.155656,0.0,1.0,72.0,180.0,28.0,1.0
30093,0.8379049999999999,-1.266903,-3.128312,0.239988,0.018371,0.353787,0.0,1.0,72.0,180.0,28.0,1.0
30094,0.802625,-1.254334,3.135246,0.140815,-0.14690599999999998,0.370754,0.0,1.0,72.0,180.0,28.0,1.0
30095,0.827184,-1.253808,-3.120982,-0.091678,-0.085951,0.242256,0.0,1.0,72.0,180.0,28.0,1.0
30096,0.878347,-1.257931,-3.08697,0.047197,0.151084,-0.041176,0.0,1.0,72.0,180.0,28.0,1.0
30097,0.951698,-1.261036,-3.045633,0.149811,0.269929,-0.51305,0.0,1.0,72.0,180.0,28.0,1.0
30098,0.992634,-1.256449,-3.027573,0.041209,0.294668,-0.22019,0.0,1.0,72.0,180.0,28.0,1.0
30099,0.998569,-1.252069,-3.055405,-0.1113,-0.14394,-0.354317,0.0,1.0,72.0,180.0,28.0,1.0
30100,0.965493,-1.252536,-3.104409,-0.147905,-0.216993,-0.290333,0.0,1.0,72.0,180.0,28.0,1.0
30101,0.910671,-1.253633,3.120214,0.091514,-0.29015100000000005,0.025243,0.0,1.0,72.0,180.0,28.0,1.0
30102,0.871819,-1.253709,3.07935,0.167512,-0.323545,-0.034533,0.0,1.0,72.0,180.0,28.0,1.0
30103,0.8262219999999999,-1.250092,3.039129,0.202316,-0.228188,0.047694,0.0,1.0,72.0,180.0,28.0,1.0
30104,0.767708,-1.238245,2.984754,0.22450100000000006,-0.168204,0.09528,0.0,1.0,72.0,180.0,28.0,1.0
30105,0.707684,-1.213101,2.921527,0.100217,-0.15751600000000002,-0.351299,0.0,1.0,72.0,180.0,28.0,1.0
30106,0.6224,-1.175702,2.843069,0.015475999999999997,0.00514,-0.276849,0.0,1.0,72.0,180.0,28.0,1.0
30107,0.512981,-1.134584,2.764265,0.010439,0.294325,0.1457,0.0,1.0,72.0,180.0,28.0,1.0
30108,0.396308,-1.091383,2.704056,-0.063637,0.335665,0.161396,0.0,1.0,72.0,180.0,28.0,1.0
30109,0.29288600000000004,-1.050013,2.66323,-0.017064,0.564348,0.193249,0.0,1.0,72.0,180.0,28.0,1.0
30110,0.221455,-1.017507,2.636704,0.128643,0.767546,0.349377,0.0,1.0,72.0,180.0,28.0,1.0
30111,0.179082,-0.993168,2.626609,-0.025561,0.342828,0.043462,0.0,1.0,72.0,180.0,28.0,1.0
30112,0.154077,-0.976222,2.624093,-0.091458,0.113508,0.011414,0.0,1.0,72.0,180.0,28.0,1.0
30113,0.167174,-0.975466,2.628944,0.009091,0.174982,-0.018974,0.0,1.0,72.0,180.0,28.0,1.0
30114,0.194995,-0.989251,2.6397150000000003,0.028316,0.074297,0.095156,0.0,1.0,72.0,180.0,28.0,1.0
30115,0.231396,-1.011476,2.655421,-0.043561,-0.22402,0.257716,0.0,1.0,72.0,180.0,28.0,1.0
30116,0.26864,-1.040909,2.676198,-0.157237,-0.34627800000000003,0.367974,0.0,1.0,72.0,180.0,28.0,1.0
30117,0.301522,-1.0759729999999998,2.696523,-0.204712,-0.419695,0.372828,0.0,1.0,72.0,180.0,28.0,1.0
30118,0.33223400000000003,-1.114102,2.708576,-0.107753,-0.459664,0.23288000000000006,0.0,1.0,72.0,180.0,28.0,1.0
30119,0.36221,-1.155067,2.713957,0.035842,-0.315594,0.095946,0.0,1.0,72.0,180.0,28.0,1.0
30120,0.401567,-1.196736,2.727852,0.156809,-0.15674200000000002,-0.031454,0.0,1.0,72.0,180.0,28.0,1.0
30121,0.45507,-1.234009,2.770931,0.125808,0.008388,-0.007256,0.0,1.0,72.0,180.0,28.0,1.0
30122,0.534356,-1.265366,2.872842,-0.011346,-0.074384,0.061587,0.0,1.0,72.0,180.0,28.0,1.0
30123,0.6549189999999999,-1.295307,3.029261,-0.073549,-0.045544,0.012878,0.0,1.0,72.0,180.0,28.0,1.0
30124,0.779911,-1.323201,-3.091863,-0.160154,0.002022,-0.121316,0.0,1.0,72.0,180.0,28.0,1.0
30125,0.845152,-1.341038,-2.978683,-0.391241,-0.03999,-0.33966,0.0,1.0,72.0,180.0,28.0,1.0
30126,0.855748,-1.347551,-2.919564,-0.538323,0.024602,-0.41433,0.0,1.0,72.0,180.0,28.0,1.0
30127,0.8965350000000001,-1.355732,-2.8586150000000004,-0.5610569999999999,0.08556799999999999,-0.358183,0.0,1.0,72.0,180.0,28.0,1.0
30128,0.94398,-1.360693,-2.838195,-0.328273,-0.122007,0.47102,0.0,1.0,72.0,180.0,28.0,1.0
30129,0.957613,-1.354183,-2.907626,-0.054352,-0.231422,0.626147,0.0,1.0,72.0,180.0,28.0,1.0
30130,0.90079,-1.336366,-3.063447,-0.037986,-0.177023,0.563737,0.0,1.0,72.0,180.0,28.0,1.0
30131,0.8771030000000001,-1.324616,-3.141184,0.5398350000000001,0.274687,-0.07593899999999999,0.0,1.0,72.0,180.0,28.0,1.0
30132,0.894465,-1.332659,-3.102112,0.907934,0.7364430000000001,0.36246,0.0,1.0,72.0,180.0,28.0,1.0
30133,0.95163,-1.348782,-2.992024,1.004476,1.812737,-1.116784,0.0,1.0,72.0,180.0,28.0,1.0
30134,0.877265,-1.3268950000000002,-3.08858,0.024941,-0.028249,1.204293,0.0,1.0,72.0,180.0,28.0,1.0
30135,0.844668,-1.302556,3.0782580000000004,-0.049138,-0.403341,0.387763,0.0,1.0,72.0,180.0,28.0,1.0
30136,0.898236,-1.292462,3.091149,-0.035116,-0.273038,0.131461,0.0,1.0,72.0,180.0,28.0,1.0
30137,0.949065,-1.297538,-3.138808,-0.139982,-0.044653,0.106491,0.0,1.0,72.0,180.0,28.0,1.0
30138,0.998423,-1.309901,-3.07796,-0.036781,-0.118488,-0.038241,0.0,1.0,72.0,180.0,28.0,1.0
30139,1.056115,-1.319073,-3.005971,0.013161,-0.040735,-0.020202,0.0,1.0,72.0,180.0,28.0,1.0
30140,1.080015,-1.311931,-2.987742,0.116106,-0.113242,-0.458607,0.0,1.0,72.0,180.0,28.0,1.0
30141,1.081514,-1.305561,-3.011056,-0.257106,-0.35651,-0.36566,0.0,1.0,72.0,180.0,28.0,1.0
30142,1.058158,-1.302984,-3.070176,-0.071488,-0.322278,-0.051529999999999986,0.0,1.0,72.0,180.0,28.0,1.0
30143,1.0164879999999998,-1.299446,3.1319790000000003,0.116063,-0.351304,-0.030919,0.0,1.0,72.0,180.0,28.0,1.0
30144,0.9762,-1.290232,3.060246,0.161078,-0.351768,-0.065198,0.0,1.0,72.0,180.0,28.0,1.0
30145,0.930466,-1.27845,3.010937,0.274166,-0.313787,-0.070292,0.0,1.0,72.0,180.0,28.0,1.0
30146,0.870225,-1.2634379999999998,2.968018,0.435072,-0.29713,0.032328,0.0,1.0,72.0,180.0,28.0,1.0
30147,0.794331,-1.242782,2.90831,0.415467,-0.023939,-0.184642,0.0,1.0,72.0,180.0,28.0,1.0
30148,0.692282,-1.211022,2.826662,0.294809,0.179579,-0.146756,0.0,1.0,72.0,180.0,28.0,1.0
30149,0.575617,-1.16709,2.746509,0.092553,0.503698,-0.123704,0.0,1.0,72.0,180.0,28.0,1.0
30150,0.452083,-1.119853,2.683502,-0.028159,0.90398,0.238608,0.0,1.0,72.0,180.0,28.0,1.0
30151,0.346062,-1.07406,2.64028,0.00126,1.071572,0.256141,0.0,1.0,72.0,180.0,28.0,1.0
30152,0.273328,-1.030919,2.6207540000000003,0.14411400000000002,0.8945780000000001,0.260228,0.0,1.0,72.0,180.0,28.0,1.0
30153,0.218461,-0.994795,2.621511,-0.136217,0.107138,0.2693,0.0,1.0,72.0,180.0,28.0,1.0
30154,0.188819,-0.968881,2.631863,-0.079728,-0.102619,0.298658,0.0,1.0,72.0,180.0,28.0,1.0
30155,0.189783,-0.955559,2.649955,0.039028,-0.08719,0.180048,0.0,1.0,72.0,180.0,28.0,1.0
30156,0.2159,-0.957873,2.673679,-0.030080000000000006,-0.08538,0.152962,0.0,1.0,72.0,180.0,28.0,1.0
30157,0.255413,-0.973621,2.705967,-0.096576,-0.188896,0.16303199999999998,0.0,1.0,72.0,180.0,28.0,1.0
30158,0.296836,-1.000847,2.742403,-0.142825,-0.355844,0.305548,0.0,1.0,72.0,180.0,28.0,1.0
30159,0.34180900000000003,-1.036368,2.774234,-0.169261,-0.430628,0.33873000000000003,0.0,1.0,72.0,180.0,28.0,1.0
30160,0.388043,-1.077523,2.79904,-0.13730699999999998,-0.507832,0.394609,0.0,1.0,72.0,180.0,28.0,1.0
30161,0.426812,-1.1248200000000002,2.812212,-0.099576,-0.475249,0.304389,0.0,1.0,72.0,180.0,28.0,1.0
30162,0.450425,-1.17823,2.812784,-0.057927,-0.439799,0.246962,0.0,1.0,72.0,180.0,28.0,1.0
30163,0.4636270000000001,-1.232299,2.806227,0.038491,0.208768,-0.094484,0.0,1.0,72.0,180.0,28.0,1.0
30164,0.478585,-1.273021,2.827856,-0.064332,0.631426,-0.211074,0.0,1.0,72.0,180.0,28.0,1.0
30165,0.517671,-1.299367,2.91751,-0.08694600000000001,0.019338,-0.245348,0.0,1.0,72.0,180.0,28.0,1.0
30166,0.596101,-1.331539,3.0554,-0.218567,-0.024188,-0.299937,0.0,1.0,72.0,180.0,28.0,1.0
30167,0.7042069999999999,-1.361749,-3.08142,-0.197245,0.070431,-0.067776,0.0,1.0,72.0,180.0,28.0,1.0
30168,0.810612,-1.375308,-2.980008,-0.190605,-0.093609,0.035625,0.0,1.0,72.0,180.0,28.0,1.0
30169,0.913304,-1.374324,-2.911176,-0.316832,-0.14763099999999998,-0.182623,0.0,1.0,72.0,180.0,28.0,1.0
30170,1.00109,-1.369134,-2.8542080000000003,-0.343461,-0.167372,-0.078739,0.0,1.0,72.0,180.0,28.0,1.0
30171,1.022241,-1.363899,-2.856544,-0.115494,-0.349401,0.533031,0.0,1.0,72.0,180.0,28.0,1.0
30172,0.94959,-1.351443,-2.959055,0.000592,-0.14918,0.497182,0.0,1.0,72.0,180.0,28.0,1.0
30173,0.881273,-1.343233,-3.055742,0.3888,0.409616,-0.157161,0.0,1.0,72.0,180.0,28.0,1.0
30174,0.913545,-1.359927,-3.030212,0.941261,0.607005,0.106641,0.0,1.0,72.0,180.0,28.0,1.0
30175,0.915481,-1.362586,-3.012721,0.6292949999999999,1.099173,-0.173021,0.0,1.0,72.0,180.0,28.0,1.0
30176,0.99312,-1.36383,-2.934877,0.280617,0.33631300000000003,-0.183845,0.0,1.0,72.0,180.0,28.0,1.0
30177,0.947709,-1.355122,-3.0075220000000003,0.07917300000000001,-0.120173,0.625957,0.0,1.0,72.0,180.0,28.0,1.0
30178,0.905134,-1.348258,-3.067942,0.16303800000000002,-0.160872,0.556705,0.0,1.0,72.0,180.0,28.0,1.0
30179,0.942208,-1.34943,-3.013123,0.238452,-0.073407,0.208579,0.0,1.0,72.0,180.0,28.0,1.0
30180,1.048641,-1.360391,-2.877106,-0.02274,0.03568,0.287877,0.0,1.0,72.0,180.0,28.0,1.0
30181,1.2154,-1.3741370000000002,-2.694438,-0.096745,-0.033474000000000004,0.17016199999999998,0.0,1.0,72.0,180.0,28.0,1.0
30182,1.362192,-1.383958,-2.544458,-0.293186,-0.191489,-0.483439,0.0,1.0,72.0,180.0,28.0,1.0
30183,1.452287,-1.393126,-2.452449,-0.149808,-0.26373800000000003,-0.279999,0.0,1.0,72.0,180.0,28.0,1.0
30184,1.494097,-1.402199,-2.421193,0.041765,-0.300259,-0.114954,0.0,1.0,72.0,180.0,28.0,1.0
30185,1.499157,-1.410874,-2.443033,0.173486,-0.346493,-0.061543,0.0,1.0,72.0,180.0,28.0,1.0
30186,1.476223,-1.41505,-2.491226,0.187158,-0.451061,-0.235663,0.0,1.0,72.0,180.0,28.0,1.0
30187,1.423022,-1.408848,-2.560138,0.219876,-0.475059,-0.133113,0.0,1.0,72.0,180.0,28.0,1.0
30188,1.367605,-1.3952870000000002,-2.634878,0.285516,-0.382556,-0.124077,0.0,1.0,72.0,180.0,28.0,1.0
30189,1.293218,-1.379297,-2.732149,0.37158,-0.306824,-0.225613,0.0,1.0,72.0,180.0,28.0,1.0
30190,1.214599,-1.364537,-2.829764,0.448262,-0.241469,-0.132456,0.0,1.0,72.0,180.0,28.0,1.0
30191,1.10975,-1.34687,-2.937506,0.578688,-0.23225,-0.231274,0.0,1.0,72.0,180.0,28.0,1.0
30192,0.988824,-1.322095,-3.046606,0.449722,-0.246897,-0.230091,0.0,1.0,72.0,180.0,28.0,1.0
30193,0.843633,-1.283791,3.123457,0.114469,0.087733,-0.15473399999999998,0.0,1.0,72.0,180.0,28.0,1.0
30194,0.686873,-1.24243,3.037109,-0.051901,0.37629,-0.00175,0.0,1.0,72.0,180.0,28.0,1.0
30195,0.505558,-1.196192,2.953321,0.062503,0.794766,0.322024,0.0,1.0,72.0,180.0,28.0,1.0
30196,0.370472,-1.152818,2.905183,0.070312,1.006453,0.302236,0.0,1.0,72.0,180.0,28.0,1.0
30197,0.298095,-1.113062,2.882969,0.277683,0.899438,0.319083,0.0,1.0,72.0,180.0,28.0,1.0
30198,0.240028,-1.074654,2.872243,0.108148,0.226043,0.543281,0.0,1.0,72.0,180.0,28.0,1.0
30199,0.220188,-1.043037,2.881345,-0.021245,0.248916,0.142966,0.0,1.0,72.0,180.0,28.0,1.0
30200,0.224339,-1.0221790000000002,2.900464,0.114043,0.29987600000000003,-0.389976,0.0,1.0,72.0,180.0,28.0,1.0
30201,0.253117,-1.019075,2.9382490000000003,0.103209,-0.022278,-0.087527,0.0,1.0,72.0,180.0,28.0,1.0
30202,0.30856,-1.03359,2.994662,0.049719,-0.043483,0.035137,0.0,1.0,72.0,180.0,28.0,1.0
30203,0.3642510000000001,-1.056724,3.06213,-0.060229,-0.13603900000000002,0.32868800000000004,0.0,1.0,72.0,180.0,28.0,1.0
30204,0.42008,-1.0844280000000002,3.134765,-0.124996,-0.209186,0.34580500000000003,0.0,1.0,72.0,180.0,28.0,1.0
30205,0.481813,-1.1158549999999998,-3.0807330000000004,-0.21192600000000006,-0.35591300000000003,0.392577,0.0,1.0,72.0,180.0,28.0,1.0
30206,0.5481020000000001,-1.148916,-3.027336,-0.23922,-0.430738,0.318124,0.0,1.0,72.0,180.0,28.0,1.0
30207,0.601233,-1.185761,-2.99386,-0.261809,-0.383114,0.25385,0.0,1.0,72.0,180.0,28.0,1.0
30208,0.619492,-1.227433,-2.986806,-0.22130500000000006,-0.361855,0.215012,0.0,1.0,72.0,180.0,28.0,1.0
30209,0.599579,-1.268438,-3.009103,-0.105914,0.203261,-0.079231,0.0,1.0,72.0,180.0,28.0,1.0
30210,0.541213,-1.302401,-3.048138,-0.066732,0.303152,-0.144077,0.0,1.0,72.0,180.0,28.0,1.0
30211,0.485746,-1.324052,-3.050102,-0.033099,0.015013,-0.123678,0.0,1.0,72.0,180.0,28.0,1.0
30212,0.481709,-1.342525,-2.990782,-0.064388,-0.191741,-0.403828,0.0,1.0,72.0,180.0,28.0,1.0
30213,0.5083300000000001,-1.357804,-2.91269,-0.112357,-0.137452,-0.539864,0.0,1.0,72.0,180.0,28.0,1.0
30214,0.566925,-1.364922,-2.8441650000000003,-0.024404,-0.156007,-0.282593,0.0,1.0,72.0,180.0,28.0,1.0
30215,0.6752560000000001,-1.367876,-2.783461,0.100658,0.002863,-0.198487,0.0,1.0,72.0,180.0,28.0,1.0
30216,0.8003319999999999,-1.365014,-2.723322,0.145151,0.053707000000000005,-0.446982,0.0,1.0,72.0,180.0,28.0,1.0
30217,0.838361,-1.353263,-2.702704,0.091966,0.11998699999999997,-0.736722,0.0,1.0,72.0,180.0,28.0,1.0
30218,0.816758,-1.345722,-2.700838,-0.025157,0.307815,-0.712291,0.0,1.0,72.0,180.0,28.0,1.0
30219,0.853965,-1.340612,-2.651825,-0.096997,0.154778,0.6327550000000001,0.0,1.0,72.0,180.0,28.0,1.0
