index,attitude.roll,attitude.pitch,attitude.yaw,userAcceleration.x,userAcceleration.y,userAcceleration.z,act,id,weight,height,age,gender
323577,-2.9499720000000003,-0.996808,-0.42671,0.393342,-0.419683,-0.25121,0.0,10.0,70.0,178.0,24.0,1.0
323578,-2.94857,-1.021541,-0.427084,0.304991,-0.676491,-0.332036,0.0,10.0,70.0,178.0,24.0,1.0
323579,-2.96999,-1.054299,-0.438729,-0.054848,-0.648516,-0.130527,0.0,10.0,70.0,178.0,24.0,1.0
323580,-3.011218,-1.094523,-0.464783,-0.169463,-0.635826,-0.069866,0.0,10.0,70.0,178.0,24.0,1.0
323581,-3.065948,-1.14125,-0.508191,-0.254569,-0.56423,-0.032506,0.0,10.0,70.0,178.0,24.0,1.0
323582,-3.131296,-1.187905,-0.569127,-0.15959,0.050485,-0.082436,0.0,10.0,70.0,178.0,24.0,1.0
323583,3.075777,-1.230294,-0.6399229999999999,-0.1854,0.035486000000000004,-0.042088,0.0,10.0,70.0,178.0,24.0,1.0
323584,3.004115,-1.26514,-0.697162,0.265113,0.14920999999999998,-0.032992,0.0,10.0,70.0,178.0,24.0,1.0
323585,2.952063,-1.29191,-0.729503,0.361363,-0.109755,0.041486,0.0,10.0,70.0,178.0,24.0,1.0
323586,2.929282,-1.311416,-0.738384,0.327808,-0.08334,0.086874,0.0,10.0,70.0,178.0,24.0,1.0
323587,2.954969,-1.327387,-0.710987,0.179604,0.017363,0.221589,0.0,10.0,70.0,178.0,24.0,1.0
323588,3.021203,-1.346369,-0.661263,0.023674,-0.170372,-0.195135,0.0,10.0,70.0,178.0,24.0,1.0
323589,3.053718,-1.3503120000000002,-0.635835,0.133914,0.129235,-0.189339,0.0,10.0,70.0,178.0,24.0,1.0
323590,3.064878,-1.33358,-0.612031,-0.081455,0.583287,-0.03547,0.0,10.0,70.0,178.0,24.0,1.0
323591,3.09112,-1.339601,-0.5945239999999999,0.006690000000000001,0.540126,-0.36537,0.0,10.0,70.0,178.0,24.0,1.0
323592,3.136363,-1.343977,-0.557819,-0.0262,0.995523,0.113624,0.0,10.0,70.0,178.0,24.0,1.0
323593,-3.095364,-1.333775,-0.509339,-0.309203,0.505757,0.128387,0.0,10.0,70.0,178.0,24.0,1.0
323594,-2.993545,-1.336923,-0.4340810000000001,0.196689,-0.393522,-0.455914,0.0,10.0,70.0,178.0,24.0,1.0
323595,-2.974641,-1.334986,-0.41618,0.194492,-0.4485520000000001,-0.59797,0.0,10.0,70.0,178.0,24.0,1.0
323596,-3.015234,-1.330562,-0.4451850000000001,0.055892,-0.466705,-0.07035599999999999,0.0,10.0,70.0,178.0,24.0,1.0
323597,-3.08173,-1.327816,-0.49947,0.103734,-0.214583,0.080235,0.0,10.0,70.0,178.0,24.0,1.0
323598,-3.140562,-1.335996,-0.549614,0.253398,-0.076,-0.06437799999999999,0.0,10.0,70.0,178.0,24.0,1.0
323599,3.1044240000000003,-1.351281,-0.591296,0.094997,-0.027013,0.283598,0.0,10.0,70.0,178.0,24.0,1.0
323600,3.086568,-1.362676,-0.622741,-0.112193,0.107913,0.324421,0.0,10.0,70.0,178.0,24.0,1.0
323601,3.104339,-1.37034,-0.630326,-0.203644,-0.050242,-0.10526,0.0,10.0,70.0,178.0,24.0,1.0
323602,3.120011,-1.367882,-0.629634,-0.073715,-0.517737,-0.092546,0.0,10.0,70.0,178.0,24.0,1.0
323603,3.119354,-1.3595469999999998,-0.6411600000000001,-0.077081,-0.5895859999999999,-0.009207,0.0,10.0,70.0,178.0,24.0,1.0
323604,3.10858,-1.346184,-0.663673,-0.14916600000000002,-0.062084,0.132128,0.0,10.0,70.0,178.0,24.0,1.0
323605,3.114824,-1.326907,-0.676295,-0.257348,0.237754,-0.104247,0.0,10.0,70.0,178.0,24.0,1.0
323606,-3.140404,-1.293657,-0.664783,-0.219767,0.569652,0.020964,0.0,10.0,70.0,178.0,24.0,1.0
323607,-3.0953630000000003,-1.2472219999999998,-0.625009,0.052688,0.700653,0.183522,0.0,10.0,70.0,178.0,24.0,1.0
323608,-3.048919,-1.190583,-0.5732109999999999,0.306346,0.668979,0.093878,0.0,10.0,70.0,178.0,24.0,1.0
323609,-3.0097400000000003,-1.131487,-0.523105,0.430473,0.566634,0.042147,0.0,10.0,70.0,178.0,24.0,1.0
323610,-2.988071,-1.075685,-0.490259,0.476632,0.108747,-0.094121,0.0,10.0,70.0,178.0,24.0,1.0
323611,-2.988696,-1.031686,-0.483494,0.30162100000000003,0.075123,-0.032934,0.0,10.0,70.0,178.0,24.0,1.0
323612,-2.993127,-1.002806,-0.490761,0.008511,0.05853600000000001,-0.024231,0.0,10.0,70.0,178.0,24.0,1.0
323613,-2.997823,-0.985523,-0.499298,0.05925,0.14266600000000002,-0.069472,0.0,10.0,70.0,178.0,24.0,1.0
323614,-2.996024,-0.978928,-0.5009979999999999,0.188913,0.084361,-0.106799,0.0,10.0,70.0,178.0,24.0,1.0
323615,-2.9882470000000003,-0.984613,-0.496523,0.31156100000000003,-0.165135,-0.166605,0.0,10.0,70.0,178.0,24.0,1.0
323616,-2.981485,-1.002738,-0.493057,0.349806,-0.308294,-0.158274,0.0,10.0,70.0,178.0,24.0,1.0
323617,-2.987032,-1.029528,-0.499892,0.306473,-0.544098,-0.294672,0.0,10.0,70.0,178.0,24.0,1.0
323618,-3.01608,-1.06113,-0.523403,0.074807,-0.588728,-0.228394,0.0,10.0,70.0,178.0,24.0,1.0
323619,-3.066834,-1.0957940000000002,-0.5652159999999999,-0.130118,-0.669489,-0.10951199999999997,0.0,10.0,70.0,178.0,24.0,1.0
323620,-3.136779,-1.134215,-0.6288590000000001,-0.18609,-0.660551,-0.087777,0.0,10.0,70.0,178.0,24.0,1.0
323621,3.059006,-1.172868,-0.705418,-0.057525,-0.029532,-0.23215700000000006,0.0,10.0,70.0,178.0,24.0,1.0
323622,2.953862,-1.205561,-0.7844140000000001,0.009485,0.066067,-0.093452,0.0,10.0,70.0,178.0,24.0,1.0
323623,2.849042,-1.230039,-0.8544149999999999,0.07259700000000001,0.13309,0.01874,0.0,10.0,70.0,178.0,24.0,1.0
323624,2.766461,-1.250081,-0.904064,0.251626,-0.094594,0.191033,0.0,10.0,70.0,178.0,24.0,1.0
323625,2.71622,-1.270406,-0.938652,0.29945700000000003,-0.109457,0.245731,0.0,10.0,70.0,178.0,24.0,1.0
323626,2.6925,-1.288049,-0.96186,0.328588,0.074055,0.435404,0.0,10.0,70.0,178.0,24.0,1.0
323627,2.714527,-1.302256,-0.958611,0.243318,0.261854,0.370503,0.0,10.0,70.0,178.0,24.0,1.0
323628,2.7628060000000003,-1.326097,-0.960675,0.230547,-0.035731,-0.647015,0.0,10.0,70.0,178.0,24.0,1.0
323629,2.756883,-1.341282,-0.98549,0.26959,0.052651,-0.452517,0.0,10.0,70.0,178.0,24.0,1.0
323630,2.726085,-1.331411,-0.985697,-0.180176,0.272855,0.323425,0.0,10.0,70.0,178.0,24.0,1.0
323631,2.714137,-1.337653,-1.000075,-0.248665,0.258866,-0.068025,0.0,10.0,70.0,178.0,24.0,1.0
323632,2.724011,-1.352883,-1.012927,0.127646,0.780561,-0.206864,0.0,10.0,70.0,178.0,24.0,1.0
323633,2.767514,-1.347035,-0.969122,-0.10348,1.557752,0.730884,0.0,10.0,70.0,178.0,24.0,1.0
323634,2.876306,-1.341242,-0.8795719999999999,-0.38865,0.178774,0.105502,0.0,10.0,70.0,178.0,24.0,1.0
323635,2.937761,-1.34004,-0.831901,0.102784,-0.517546,-0.554654,0.0,10.0,70.0,178.0,24.0,1.0
323636,2.9341310000000003,-1.3432540000000002,-0.834822,-0.03987,-0.7466689999999999,-0.568771,0.0,10.0,70.0,178.0,24.0,1.0
323637,2.883662,-1.34726,-0.8765379999999999,-0.076303,-0.305396,-0.079948,0.0,10.0,70.0,178.0,24.0,1.0
323638,2.832006,-1.348298,-0.911713,0.019826,0.559426,0.274379,0.0,10.0,70.0,178.0,24.0,1.0
323639,2.810715,-1.356132,-0.934166,0.051192,0.388003,0.224833,0.0,10.0,70.0,178.0,24.0,1.0
323640,2.799068,-1.36589,-0.95609,0.005379999999999999,-0.2164,0.097971,0.0,10.0,70.0,178.0,24.0,1.0
323641,2.785132,-1.370677,-0.978911,-0.120449,-0.205018,0.23473,0.0,10.0,70.0,178.0,24.0,1.0
323642,2.779989,-1.370553,-0.997381,-0.092045,-0.084342,0.045249,0.0,10.0,70.0,178.0,24.0,1.0
323643,2.785626,-1.36366,-1.000915,-0.218455,-0.093599,0.081695,0.0,10.0,70.0,178.0,24.0,1.0
323644,2.80999,-1.3480450000000002,-0.984197,-0.121796,-0.156156,0.10762,0.0,10.0,70.0,178.0,24.0,1.0
323645,2.842956,-1.32753,-0.961378,-0.026660000000000003,-0.215582,0.031277,0.0,10.0,70.0,178.0,24.0,1.0
323646,2.876472,-1.300928,-0.938964,-0.099608,-0.165176,-0.211987,0.0,10.0,70.0,178.0,24.0,1.0
323647,2.913357,-1.2653450000000002,-0.911544,-0.103012,0.061334000000000014,-0.080083,0.0,10.0,70.0,178.0,24.0,1.0
323648,2.967578,-1.217799,-0.861497,-0.030160000000000006,0.362669,0.061986,0.0,10.0,70.0,178.0,24.0,1.0
323649,3.0277830000000003,-1.169266,-0.79953,0.229116,0.365654,-0.070739,0.0,10.0,70.0,178.0,24.0,1.0
323650,3.082007,-1.12331,-0.7400359999999999,0.382146,0.192228,-0.15052,0.0,10.0,70.0,178.0,24.0,1.0
323651,3.118196,-1.080031,-0.693318,0.398993,0.186082,-0.142519,0.0,10.0,70.0,178.0,24.0,1.0
323652,-3.139535,-1.043785,-0.6590630000000001,0.087033,0.071447,-0.203763,0.0,10.0,70.0,178.0,24.0,1.0
323653,-3.11328,-1.017475,-0.63531,0.089568,0.120927,-0.113019,0.0,10.0,70.0,178.0,24.0,1.0
323654,-3.087642,-0.998186,-0.617221,0.166805,0.406627,0.088762,0.0,10.0,70.0,178.0,24.0,1.0
323655,-3.072198,-0.991664,-0.6062609999999999,0.12599200000000002,0.407157,-0.012661,0.0,10.0,70.0,178.0,24.0,1.0
323656,-3.07035,-0.997585,-0.601615,0.171508,-0.151581,-0.087562,0.0,10.0,70.0,178.0,24.0,1.0
323657,-3.074638,-1.018178,-0.599878,0.155282,-0.460345,-0.150563,0.0,10.0,70.0,178.0,24.0,1.0
323658,-3.088677,-1.051485,-0.60718,0.062228,-0.523511,-0.118029,0.0,10.0,70.0,178.0,24.0,1.0
323659,-3.1202650000000003,-1.091707,-0.630548,-0.023266,-0.584055,-0.011866,0.0,10.0,70.0,178.0,24.0,1.0
323660,3.110531,-1.135867,-0.676311,-0.21415,-0.499719,-0.149861,0.0,10.0,70.0,178.0,24.0,1.0
323661,3.02283,-1.1793049999999998,-0.754394,-0.144802,-0.253153,-0.199408,0.0,10.0,70.0,178.0,24.0,1.0
323662,2.897896,-1.215724,-0.8569829999999999,-0.089789,-0.03572,-0.266908,0.0,10.0,70.0,178.0,24.0,1.0
323663,2.749154,-1.241339,-0.962096,0.4415810000000001,0.27096,-0.220034,0.0,10.0,70.0,178.0,24.0,1.0
323664,2.58757,-1.262034,-1.057171,0.45529,0.040515,-0.02242,0.0,10.0,70.0,178.0,24.0,1.0
323665,2.442175,-1.279178,-1.145425,0.40736,-0.279069,0.215891,0.0,10.0,70.0,178.0,24.0,1.0
323666,2.355025,-1.289396,-1.208553,-0.28030900000000003,-0.702153,0.459576,0.0,10.0,70.0,178.0,24.0,1.0
323667,2.327942,-1.297069,-1.244417,-0.533846,-0.680238,0.15867,0.0,10.0,70.0,178.0,24.0,1.0
323668,2.338457,-1.312027,-1.267312,-0.543121,-0.675797,-0.274465,0.0,10.0,70.0,178.0,24.0,1.0
323669,2.346619,-1.314092,-1.25367,0.13983099999999998,0.942741,0.404072,0.0,10.0,70.0,178.0,24.0,1.0
323670,2.389608,-1.300624,-1.167848,-0.084739,1.524251,0.701434,0.0,10.0,70.0,178.0,24.0,1.0
323671,2.453293,-1.310466,-1.111016,-0.39955,1.086201,-0.058648,0.0,10.0,70.0,178.0,24.0,1.0
323672,2.557265,-1.327051,-1.040576,-0.011859,-0.084989,-0.09427,0.0,10.0,70.0,178.0,24.0,1.0
323673,2.61861,-1.33481,-0.979308,0.108682,0.068655,-0.27428,0.0,10.0,70.0,178.0,24.0,1.0
323674,2.631362,-1.343801,-0.952826,-0.272528,0.168735,-0.215106,0.0,10.0,70.0,178.0,24.0,1.0
323675,2.630159,-1.350492,-0.941156,-0.149574,0.042373,-0.06386499999999999,0.0,10.0,70.0,178.0,24.0,1.0
323676,2.588556,-1.356323,-0.969668,0.086627,-0.118904,-0.07961499999999999,0.0,10.0,70.0,178.0,24.0,1.0
323677,2.525273,-1.354219,-1.023965,0.278129,-0.12735,-0.045266,0.0,10.0,70.0,178.0,24.0,1.0
323678,2.444225,-1.34542,-1.088627,0.373773,-0.098993,0.254728,0.0,10.0,70.0,178.0,24.0,1.0
323679,2.356242,-1.336281,-1.162572,-0.027508,0.070235,0.285098,0.0,10.0,70.0,178.0,24.0,1.0
323680,2.283393,-1.32915,-1.237557,-0.344552,0.252245,0.213738,0.0,10.0,70.0,178.0,24.0,1.0
323681,2.236514,-1.3225209999999998,-1.2937459999999998,-0.45298,0.154106,0.089287,0.0,10.0,70.0,178.0,24.0,1.0
323682,2.20866,-1.312322,-1.322976,-0.463996,0.083115,0.078929,0.0,10.0,70.0,178.0,24.0,1.0
323683,2.190195,-1.295751,-1.329725,-0.358861,-0.033259,0.001216,0.0,10.0,70.0,178.0,24.0,1.0
323684,2.191239,-1.272844,-1.311662,-0.363712,0.125161,-0.099682,0.0,10.0,70.0,178.0,24.0,1.0
323685,2.23679,-1.245854,-1.2462030000000002,-0.29020100000000004,0.322366,0.039152,0.0,10.0,70.0,178.0,24.0,1.0
323686,2.318454,-1.216783,-1.141244,0.17835,0.701171,0.3388,0.0,10.0,70.0,178.0,24.0,1.0
323687,2.429075,-1.188691,-1.018748,0.203391,0.5710350000000001,0.034014,0.0,10.0,70.0,178.0,24.0,1.0
323688,2.549298,-1.161142,-0.902987,0.278114,0.468621,-0.286427,0.0,10.0,70.0,178.0,24.0,1.0
323689,2.658409,-1.134265,-0.796845,0.265627,0.7456470000000001,-0.170494,0.0,10.0,70.0,178.0,24.0,1.0
323690,2.745812,-1.114496,-0.710282,0.109,0.853852,-0.240522,0.0,10.0,70.0,178.0,24.0,1.0
323691,2.811806,-1.098187,-0.635152,-0.34936100000000003,0.681821,-0.278291,0.0,10.0,70.0,178.0,24.0,1.0
323692,2.870649,-1.080829,-0.55429,-0.218446,0.398429,-0.206969,0.0,10.0,70.0,178.0,24.0,1.0
323693,2.918269,-1.0732700000000002,-0.480113,0.028155,0.116764,-0.392893,0.0,10.0,70.0,178.0,24.0,1.0
323694,2.946311,-1.072403,-0.406843,0.26634800000000003,-0.066737,-0.469707,0.0,10.0,70.0,178.0,24.0,1.0
323695,2.950539,-1.0690879999999998,-0.330635,0.293948,-0.16288,-0.360296,0.0,10.0,70.0,178.0,24.0,1.0
323696,2.945703,-1.067004,-0.257014,0.048116,-0.245006,-0.476707,0.0,10.0,70.0,178.0,24.0,1.0
323697,2.924414,-1.058793,-0.197804,-0.030582,-0.286193,-0.44831,0.0,10.0,70.0,178.0,24.0,1.0
323698,2.888202,-1.047136,-0.152349,0.105131,-0.331861,-0.33712800000000004,0.0,10.0,70.0,178.0,24.0,1.0
323699,2.844831,-1.038367,-0.116063,0.212737,-0.272648,-0.178096,0.0,10.0,70.0,178.0,24.0,1.0
323700,2.802879,-1.038007,-0.086406,0.216607,-0.223363,-0.095763,0.0,10.0,70.0,178.0,24.0,1.0
323701,2.764359,-1.047907,-0.062005999999999985,0.07898200000000001,-0.163011,-0.067117,0.0,10.0,70.0,178.0,24.0,1.0
323702,2.724075,-1.060437,-0.044177,-0.052459000000000006,-0.043895,-0.14623699999999998,0.0,10.0,70.0,178.0,24.0,1.0
323703,2.677066,-1.066708,-0.032572000000000004,-0.101009,0.022838,-0.155522,0.0,10.0,70.0,178.0,24.0,1.0
323704,2.631212,-1.064093,-0.023087,-0.090398,-0.053197,-0.104804,0.0,10.0,70.0,178.0,24.0,1.0
323705,2.591598,-1.055353,-0.013452,-0.038013,-0.028278,0.055784,0.0,10.0,70.0,178.0,24.0,1.0
323706,2.551485,-1.046285,-0.004159,-0.078979,0.029832,0.096322,0.0,10.0,70.0,178.0,24.0,1.0
323707,2.516026,-1.040783,0.012524,-0.218821,0.231987,0.16825199999999998,0.0,10.0,70.0,178.0,24.0,1.0
323708,2.489368,-1.035512,0.044301,-0.253986,0.293471,0.237834,0.0,10.0,70.0,178.0,24.0,1.0
323709,2.476843,-1.030915,0.089706,-0.240006,0.275226,0.162418,0.0,10.0,70.0,178.0,24.0,1.0
323710,2.486832,-1.035624,0.138909,-0.200603,0.165332,-0.014661000000000004,0.0,10.0,70.0,178.0,24.0,1.0
323711,2.503149,-1.046769,0.187007,0.152865,0.14515999999999998,-0.09447,0.0,10.0,70.0,178.0,24.0,1.0
323712,2.520427,-1.0608959999999998,0.228463,0.208991,0.21070300000000006,-0.23215300000000005,0.0,10.0,70.0,178.0,24.0,1.0
323713,2.545686,-1.076929,0.259491,0.29807,0.36513,-0.382017,0.0,10.0,70.0,178.0,24.0,1.0
323714,2.560189,-1.091074,0.287656,-0.038788,-0.121757,-0.126897,0.0,10.0,70.0,178.0,24.0,1.0
323715,2.549041,-1.093847,0.300706,-0.087549,-0.281451,-0.193798,0.0,10.0,70.0,178.0,24.0,1.0
323716,2.53452,-1.089481,0.290642,-0.109743,-0.366001,-0.437465,0.0,10.0,70.0,178.0,24.0,1.0
323717,2.486694,-1.086174,0.262169,-0.110466,0.457068,-0.564332,0.0,10.0,70.0,178.0,24.0,1.0
323718,2.421064,-1.085364,0.242155,-0.227608,0.565005,-0.391551,0.0,10.0,70.0,178.0,24.0,1.0
323719,2.3676470000000003,-1.087022,0.238611,-0.233114,0.466424,-0.273484,0.0,10.0,70.0,178.0,24.0,1.0
323720,2.323381,-1.093838,0.239788,-0.159927,0.031984,-0.157137,0.0,10.0,70.0,178.0,24.0,1.0
323721,2.277504,-1.102746,0.233523,-0.154338,0.046119,-0.267927,0.0,10.0,70.0,178.0,24.0,1.0
323722,2.22587,-1.110529,0.221715,-0.064725,0.024446,-0.26365500000000003,0.0,10.0,70.0,178.0,24.0,1.0
323723,2.169532,-1.117432,0.205099,0.109186,-0.12014,-0.067355,0.0,10.0,70.0,178.0,24.0,1.0
323724,2.113907,-1.125445,0.176586,0.098219,-0.141763,-0.057503,0.0,10.0,70.0,178.0,24.0,1.0
323725,2.060385,-1.131226,0.147133,-0.142164,-0.007229999999999999,-0.084148,0.0,10.0,70.0,178.0,24.0,1.0
323726,2.009768,-1.135167,0.119939,-0.246845,0.13766099999999998,-0.108219,0.0,10.0,70.0,178.0,24.0,1.0
323727,1.962846,-1.138431,0.093319,-0.25477,0.129147,-0.10583499999999997,0.0,10.0,70.0,178.0,24.0,1.0
323728,1.921332,-1.140348,0.071822,-0.194749,-0.030528,0.067617,0.0,10.0,70.0,178.0,24.0,1.0
323729,1.877961,-1.142642,0.046815,-0.17611300000000002,-0.032811,0.139939,0.0,10.0,70.0,178.0,24.0,1.0
323730,1.828619,-1.144072,0.01427,-0.193855,-0.025362,0.14534,0.0,10.0,70.0,178.0,24.0,1.0
323731,1.773968,-1.143371,-0.025852,-0.266008,0.060453,0.053367999999999985,0.0,10.0,70.0,178.0,24.0,1.0
323732,1.719602,-1.1401709999999998,-0.068222,-0.221761,0.128221,0.077899,0.0,10.0,70.0,178.0,24.0,1.0
323733,1.66524,-1.134332,-0.111426,-0.249489,0.107618,0.105445,0.0,10.0,70.0,178.0,24.0,1.0
323734,1.616507,-1.127703,-0.15346600000000002,-0.276073,0.107541,0.080095,0.0,10.0,70.0,178.0,24.0,1.0
323735,1.579558,-1.123317,-0.193164,-0.237371,0.083399,-0.074149,0.0,10.0,70.0,178.0,24.0,1.0
323736,1.54509,-1.121339,-0.22831,-0.237349,0.117948,-0.170702,0.0,10.0,70.0,178.0,24.0,1.0
323737,1.512587,-1.121553,-0.25137,-0.231331,0.160107,0.019161,0.0,10.0,70.0,178.0,24.0,1.0
323738,1.48702,-1.124526,-0.261287,-0.172284,0.172537,0.129743,0.0,10.0,70.0,178.0,24.0,1.0
323739,1.472707,-1.129056,-0.259359,-0.146107,0.39398,0.105404,0.0,10.0,70.0,178.0,24.0,1.0
323740,1.476758,-1.134742,-0.240432,-0.22760500000000006,0.596352,0.14621099999999998,0.0,10.0,70.0,178.0,24.0,1.0
323741,1.514411,-1.143949,-0.190005,-0.382926,0.6611819999999999,-0.004028,0.0,10.0,70.0,178.0,24.0,1.0
323742,1.585409,-1.15791,-0.102406,-0.318774,0.576129,-0.009922,0.0,10.0,70.0,178.0,24.0,1.0
323743,1.6816810000000002,-1.171089,0.016866,-0.111144,0.34780700000000003,0.297759,0.0,10.0,70.0,178.0,24.0,1.0
323744,1.824035,-1.174295,0.17681,0.034399,0.08502799999999999,0.042711,0.0,10.0,70.0,178.0,24.0,1.0
323745,1.973013,-1.160787,0.342434,0.121424,0.019742,-0.312639,0.0,10.0,70.0,178.0,24.0,1.0
323746,2.098574,-1.142796,0.478992,-0.157088,-0.075172,-0.426199,0.0,10.0,70.0,178.0,24.0,1.0
323747,2.212037,-1.1266969999999998,0.604969,-0.463093,0.162706,-0.303556,0.0,10.0,70.0,178.0,24.0,1.0
323748,2.305742,-1.10962,0.7276090000000001,-0.390258,0.365121,-0.320711,0.0,10.0,70.0,178.0,24.0,1.0
323749,2.3713,-1.098364,0.83262,-0.13763599999999998,0.82795,-0.262667,0.0,10.0,70.0,178.0,24.0,1.0
323750,2.430277,-1.095376,0.929564,0.017346,0.463698,-0.36531,0.0,10.0,70.0,178.0,24.0,1.0
323751,2.485745,-1.09385,1.019355,0.091025,0.129619,-0.373796,0.0,10.0,70.0,178.0,24.0,1.0
323752,2.53306,-1.088083,1.112796,0.2303,-0.251049,-0.301777,0.0,10.0,70.0,178.0,24.0,1.0
323753,2.569763,-1.082782,1.205235,0.06665399999999999,-0.376277,-0.365921,0.0,10.0,70.0,178.0,24.0,1.0
323754,2.585945,-1.076917,1.276561,-0.084797,-0.425392,-0.301814,0.0,10.0,70.0,178.0,24.0,1.0
323755,2.586551,-1.071905,1.325248,-0.082069,-0.338013,-0.275559,0.0,10.0,70.0,178.0,24.0,1.0
323756,2.574252,-1.0688030000000002,1.356785,-0.015348,-0.34182,-0.390446,0.0,10.0,70.0,178.0,24.0,1.0
323757,2.544067,-1.066299,1.371708,0.020102,-0.424963,-0.276819,0.0,10.0,70.0,178.0,24.0,1.0
323758,2.494119,-1.0665639999999998,1.366912,0.020146,-0.28835700000000003,-0.075318,0.0,10.0,70.0,178.0,24.0,1.0
323759,2.4276020000000003,-1.070887,1.34727,-0.085396,-0.091981,0.15669,0.0,10.0,70.0,178.0,24.0,1.0
323760,2.356717,-1.076975,1.319739,-0.133719,0.195812,0.355569,0.0,10.0,70.0,178.0,24.0,1.0
323761,2.297663,-1.078422,1.302535,-0.098493,0.378232,0.505555,0.0,10.0,70.0,178.0,24.0,1.0
323762,2.278099,-1.073622,1.322929,-0.36889,0.179858,0.32568400000000003,0.0,10.0,70.0,178.0,24.0,1.0
323763,2.288579,-1.067228,1.367782,-0.414587,-0.003354,0.26518800000000003,0.0,10.0,70.0,178.0,24.0,1.0
323764,2.309791,-1.068022,1.40623,-0.410448,-0.210615,0.169425,0.0,10.0,70.0,178.0,24.0,1.0
323765,2.356045,-1.073019,1.4505370000000002,0.038917,0.5311899999999999,-0.917234,0.0,10.0,70.0,178.0,24.0,1.0
323766,2.411966,-1.084353,1.508741,0.27870100000000003,0.691331,-0.8256399999999999,0.0,10.0,70.0,178.0,24.0,1.0
323767,2.412555,-1.100573,1.542474,-0.103698,-0.045825,-0.442404,0.0,10.0,70.0,178.0,24.0,1.0
323768,2.426374,-1.109785,1.568771,0.069728,-0.512409,-0.214071,0.0,10.0,70.0,178.0,24.0,1.0
323769,2.41685,-1.105423,1.587489,0.15350999999999998,-0.088371,-0.290524,0.0,10.0,70.0,178.0,24.0,1.0
323770,2.36197,-1.099218,1.568867,0.13908299999999998,0.486223,-0.449558,0.0,10.0,70.0,178.0,24.0,1.0
323771,2.313755,-1.087897,1.5552469999999998,0.112785,0.471067,0.036016,0.0,10.0,70.0,178.0,24.0,1.0
323772,2.276672,-1.084384,1.56325,-0.126441,0.032382,0.24322800000000006,0.0,10.0,70.0,178.0,24.0,1.0
323773,2.2441720000000003,-1.093893,1.551044,-0.211306,0.028724,-0.078526,0.0,10.0,70.0,178.0,24.0,1.0
323774,2.198003,-1.109221,1.518683,-0.288033,0.090198,-0.163241,0.0,10.0,70.0,178.0,24.0,1.0
323775,2.154757,-1.120802,1.491932,-0.302694,0.028017,0.000125,0.0,10.0,70.0,178.0,24.0,1.0
323776,2.121793,-1.1311209999999998,1.472451,-0.222981,-0.118437,0.038698,0.0,10.0,70.0,178.0,24.0,1.0
323777,2.093916,-1.140932,1.45592,-0.190764,-0.163936,-0.02146,0.0,10.0,70.0,178.0,24.0,1.0
323778,2.070976,-1.147331,1.45056,-0.274059,-0.24387,0.086685,0.0,10.0,70.0,178.0,24.0,1.0
323779,2.052302,-1.1522139999999998,1.45088,-0.340589,-0.278748,0.239117,0.0,10.0,70.0,178.0,24.0,1.0
323780,2.049147,-1.156323,1.455897,-0.302811,-0.123458,0.205393,0.0,10.0,70.0,178.0,24.0,1.0
323781,2.073418,-1.158774,1.4744959999999998,-0.222876,-0.026863,0.002403,0.0,10.0,70.0,178.0,24.0,1.0
323782,2.10867,-1.161278,1.502905,-0.206395,-0.086884,0.067122,0.0,10.0,70.0,178.0,24.0,1.0
323783,2.15553,-1.159933,1.549023,-0.162962,-0.246946,0.221256,0.0,10.0,70.0,178.0,24.0,1.0
323784,2.202792,-1.153883,1.595645,-0.178144,-0.379569,0.001568,0.0,10.0,70.0,178.0,24.0,1.0
323785,2.241002,-1.147069,1.625689,-0.247679,-0.39992,-0.026504000000000003,0.0,10.0,70.0,178.0,24.0,1.0
323786,2.270352,-1.138594,1.645965,-0.303211,-0.12829100000000002,-0.023908,0.0,10.0,70.0,178.0,24.0,1.0
323787,2.303341,-1.128324,1.669195,-0.405031,0.347448,0.14865599999999998,0.0,10.0,70.0,178.0,24.0,1.0
323788,2.349309,-1.118019,1.706234,-0.602222,0.535945,-0.211838,0.0,10.0,70.0,178.0,24.0,1.0
323789,2.420087,-1.107136,1.772516,-0.571288,0.681766,-0.085379,0.0,10.0,70.0,178.0,24.0,1.0
323790,2.519226,-1.088388,1.87637,-0.33434200000000003,0.703216,-0.116792,0.0,10.0,70.0,178.0,24.0,1.0
323791,2.61295,-1.062019,1.992549,0.406516,0.234386,-0.19873,0.0,10.0,70.0,178.0,24.0,1.0
323792,2.69418,-1.032436,2.096982,0.566479,-0.066482,-0.310582,0.0,10.0,70.0,178.0,24.0,1.0
323793,2.742568,-1.004301,2.180217,0.374394,-0.158698,-0.056903,0.0,10.0,70.0,178.0,24.0,1.0
323794,2.77005,-0.987347,2.228094,0.032477,-0.149005,0.047573,0.0,10.0,70.0,178.0,24.0,1.0
323795,2.790299,-0.984719,2.2474830000000003,0.075956,0.275328,-0.203683,0.0,10.0,70.0,178.0,24.0,1.0
323796,2.80742,-0.987456,2.261846,0.090216,0.345731,-0.246396,0.0,10.0,70.0,178.0,24.0,1.0
323797,2.823523,-0.997955,2.278453,0.139256,0.015074,-0.235835,0.0,10.0,70.0,178.0,24.0,1.0
323798,2.819407,-1.017006,2.284831,0.168987,-0.434171,-0.171103,0.0,10.0,70.0,178.0,24.0,1.0
323799,2.7906880000000003,-1.040813,2.275722,0.085937,-0.492576,-0.077687,0.0,10.0,70.0,178.0,24.0,1.0
323800,2.739487,-1.068342,2.244322,-0.024693,-0.57521,0.096651,0.0,10.0,70.0,178.0,24.0,1.0
323801,2.671369,-1.100871,2.180797,-0.138939,-0.6573180000000001,0.10227,0.0,10.0,70.0,178.0,24.0,1.0
323802,2.593023,-1.133365,2.083397,-0.183954,-0.5682119999999999,-0.037917,0.0,10.0,70.0,178.0,24.0,1.0
323803,2.496956,-1.153817,1.969297,-0.216446,-0.386424,-0.20218,0.0,10.0,70.0,178.0,24.0,1.0
323804,2.395269,-1.157147,1.871957,0.225698,0.272984,-0.197768,0.0,10.0,70.0,178.0,24.0,1.0
323805,2.295815,-1.156183,1.794127,0.257617,0.223583,-0.099654,0.0,10.0,70.0,178.0,24.0,1.0
323806,2.215897,-1.162012,1.73492,0.238775,0.072736,0.022429,0.0,10.0,70.0,178.0,24.0,1.0
323807,2.1577580000000003,-1.178557,1.6787759999999998,-0.25806100000000004,-0.006636,0.187635,0.0,10.0,70.0,178.0,24.0,1.0
323808,2.121339,-1.202859,1.637921,-0.368991,-0.025524,0.37656,0.0,10.0,70.0,178.0,24.0,1.0
323809,2.106378,-1.23237,1.6146200000000002,-0.429106,-0.024562,0.466342,0.0,10.0,70.0,178.0,24.0,1.0
323810,2.123471,-1.252648,1.622931,-0.157421,0.717542,0.187201,0.0,10.0,70.0,178.0,24.0,1.0
323811,2.20147,-1.254086,1.705885,-0.209347,0.368201,-0.06450800000000001,0.0,10.0,70.0,178.0,24.0,1.0
323812,2.246775,-1.258255,1.7559080000000002,0.163877,1.0390000000000001,0.577449,0.0,10.0,70.0,178.0,24.0,1.0
323813,2.347429,-1.237247,1.867686,0.276032,0.979796,0.185654,0.0,10.0,70.0,178.0,24.0,1.0
323814,2.394718,-1.23555,1.905559,0.061853,-0.250497,-0.449597,0.0,10.0,70.0,178.0,24.0,1.0
323815,2.413255,-1.242258,1.918329,-0.133544,-0.491925,-0.333807,0.0,10.0,70.0,178.0,24.0,1.0
323816,2.4157,-1.248718,1.918284,-0.039857,0.064497,0.044133,0.0,10.0,70.0,178.0,24.0,1.0
323817,2.396577,-1.251696,1.898957,-0.006051,0.13555,0.02894,0.0,10.0,70.0,178.0,24.0,1.0
323818,2.368129,-1.252289,1.86813,-0.103684,0.201282,0.247019,0.0,10.0,70.0,178.0,24.0,1.0
323819,2.346242,-1.2465389999999998,1.848274,-0.053655,0.369099,0.47088,0.0,10.0,70.0,178.0,24.0,1.0
323820,2.333153,-1.242067,1.828475,-0.013169,0.0461,0.308019,0.0,10.0,70.0,178.0,24.0,1.0
323821,2.339658,-1.235373,1.815174,-0.13022999999999998,-0.274456,0.254603,0.0,10.0,70.0,178.0,24.0,1.0
323822,2.352977,-1.22482,1.805504,-0.271439,-0.34202,0.036867,0.0,10.0,70.0,178.0,24.0,1.0
323823,2.38326,-1.207693,1.80824,-0.315254,-0.138015,0.005809,0.0,10.0,70.0,178.0,24.0,1.0
323824,2.441836,-1.18385,1.839418,-0.334063,-0.022715,-0.005961999999999999,0.0,10.0,70.0,178.0,24.0,1.0
323825,2.522712,-1.153098,1.897884,-0.20243,0.058036,-0.110687,0.0,10.0,70.0,178.0,24.0,1.0
323826,2.614028,-1.110337,1.975179,-0.012031,0.215708,-0.158901,0.0,10.0,70.0,178.0,24.0,1.0
323827,2.695136,-1.0599379999999998,2.057937,0.23790300000000006,0.207188,-0.254124,0.0,10.0,70.0,178.0,24.0,1.0
323828,2.751751,-1.013049,2.126032,0.486386,-0.007629,-0.34522600000000003,0.0,10.0,70.0,178.0,24.0,1.0
323829,2.789786,-0.977898,2.177108,0.176045,-0.273783,-0.007388,0.0,10.0,70.0,178.0,24.0,1.0
323830,2.8215060000000003,-0.951059,2.211682,-0.003341,-0.113836,0.098083,0.0,10.0,70.0,178.0,24.0,1.0
323831,2.847256,-0.937975,2.2258880000000003,0.012555,0.194569,-0.107808,0.0,10.0,70.0,178.0,24.0,1.0
323832,2.871496,-0.935723,2.228425,0.064398,0.214259,-0.177346,0.0,10.0,70.0,178.0,24.0,1.0
323833,2.885226,-0.944099,2.221611,0.260989,-0.044023,-0.221674,0.0,10.0,70.0,178.0,24.0,1.0
323834,2.871025,-0.96141,2.202269,0.052267,-0.286659,-0.051186,0.0,10.0,70.0,178.0,24.0,1.0
323835,2.8217950000000003,-0.985918,2.16689,-0.082255,-0.358392,0.052941,0.0,10.0,70.0,178.0,24.0,1.0
323836,2.743173,-1.0190709999999998,2.10829,-0.218427,-0.443953,0.15300999999999998,0.0,10.0,70.0,178.0,24.0,1.0
323837,2.647363,-1.059608,2.021162,-0.354373,-0.438875,0.290951,0.0,10.0,70.0,178.0,24.0,1.0
323838,2.536514,-1.101007,1.901291,-0.340909,-0.251619,0.175561,0.0,10.0,70.0,178.0,24.0,1.0
323839,2.415566,-1.132896,1.7810709999999998,-0.100472,0.231105,-0.325966,0.0,10.0,70.0,178.0,24.0,1.0
323840,2.30479,-1.152285,1.69535,0.17298,0.129182,-0.198795,0.0,10.0,70.0,178.0,24.0,1.0
323841,2.203535,-1.16478,1.629614,0.225577,-0.045578,-0.07141499999999999,0.0,10.0,70.0,178.0,24.0,1.0
323842,2.127095,-1.1716540000000002,1.581189,0.253914,0.004371,0.250263,0.0,10.0,70.0,178.0,24.0,1.0
323843,2.096602,-1.182942,1.568657,-0.19468,0.077863,0.75984,0.0,10.0,70.0,178.0,24.0,1.0
323844,2.129234,-1.205616,1.565538,-0.258886,-0.08741,-0.100262,0.0,10.0,70.0,178.0,24.0,1.0
323845,2.135923,-1.230864,1.538968,-0.027581,-0.287702,-0.373118,0.0,10.0,70.0,178.0,24.0,1.0
323846,2.1878,-1.226387,1.601129,-0.392325,0.183084,0.039052,0.0,10.0,70.0,178.0,24.0,1.0
323847,2.202665,-1.224897,1.6271209999999998,-0.425068,0.101252,-0.248106,0.0,10.0,70.0,178.0,24.0,1.0
323848,2.204871,-1.233892,1.626622,-0.216319,0.26973400000000003,-0.28830300000000003,0.0,10.0,70.0,178.0,24.0,1.0
323849,2.284775,-1.217443,1.716859,-0.197285,0.833297,0.099294,0.0,10.0,70.0,178.0,24.0,1.0
323850,2.335599,-1.229732,1.75892,-0.06651699999999999,-0.171388,-0.460691,0.0,10.0,70.0,178.0,24.0,1.0
323851,2.360244,-1.240835,1.784647,-0.03599,-1.013376,-0.276554,0.0,10.0,70.0,178.0,24.0,1.0
323852,2.381668,-1.233579,1.809556,-0.083691,-0.78984,0.013064,0.0,10.0,70.0,178.0,24.0,1.0
323853,2.33912,-1.219555,1.774232,0.071596,-0.231701,0.298562,0.0,10.0,70.0,178.0,24.0,1.0
323854,2.321354,-1.203584,1.7478939999999998,-0.063114,0.670397,0.251294,0.0,10.0,70.0,178.0,24.0,1.0
323855,2.321216,-1.199631,1.732684,-0.16983299999999998,-0.035375,0.13583900000000002,0.0,10.0,70.0,178.0,24.0,1.0
323856,2.3316,-1.197894,1.720019,-0.254758,-0.103561,0.086755,0.0,10.0,70.0,178.0,24.0,1.0
323857,2.3614040000000003,-1.191605,1.7243119999999998,-0.511737,-0.000162,0.068345,0.0,10.0,70.0,178.0,24.0,1.0
323858,2.410152,-1.181593,1.747412,-0.403336,-0.009104,-0.048961000000000005,0.0,10.0,70.0,178.0,24.0,1.0
323859,2.485335,-1.1614520000000002,1.806984,-0.304505,0.019584,-0.012032,0.0,10.0,70.0,178.0,24.0,1.0
323860,2.584059,-1.125427,1.895252,0.031029,-0.048753,-0.166759,0.0,10.0,70.0,178.0,24.0,1.0
323861,2.673777,-1.072342,1.980966,0.252013,-0.060818,-0.377581,0.0,10.0,70.0,178.0,24.0,1.0
323862,2.7278860000000003,-1.011672,2.05146,0.33705300000000005,-0.097598,-0.484104,0.0,10.0,70.0,178.0,24.0,1.0
323863,2.750972,-0.956951,2.097669,0.093177,-0.494243,-0.191558,0.0,10.0,70.0,178.0,24.0,1.0
323864,2.7671490000000003,-0.918507,2.128756,-0.281386,-0.5096310000000001,-0.040912,0.0,10.0,70.0,178.0,24.0,1.0
323865,2.785516,-0.898565,2.144363,-0.10754,-0.029856,-0.002062,0.0,10.0,70.0,178.0,24.0,1.0
323866,2.812628,-0.894598,2.15328,0.26817,0.238597,-0.028488,0.0,10.0,70.0,178.0,24.0,1.0
323867,2.841801,-0.90695,2.155641,0.385864,0.333557,-0.031552,0.0,10.0,70.0,178.0,24.0,1.0
323868,2.83914,-0.931308,2.14527,0.188514,0.167295,-0.17311700000000002,0.0,10.0,70.0,178.0,24.0,1.0
323869,2.791215,-0.956451,2.124721,-0.059811,-0.19476,0.144225,0.0,10.0,70.0,178.0,24.0,1.0
323870,2.725627,-0.984816,2.091788,-0.364037,-0.405695,0.288654,0.0,10.0,70.0,178.0,24.0,1.0
323871,2.661038,-1.018514,2.041359,-0.384503,-0.518062,0.366306,0.0,10.0,70.0,178.0,24.0,1.0
323872,2.598775,-1.059693,1.959576,-0.220361,-0.313398,-0.07677,0.0,10.0,70.0,178.0,24.0,1.0
323873,2.505331,-1.0974959999999998,1.849344,0.038435,0.208198,-0.410893,0.0,10.0,70.0,178.0,24.0,1.0
323874,2.387197,-1.116978,1.750043,0.268216,0.620904,-0.349788,0.0,10.0,70.0,178.0,24.0,1.0
323875,2.265118,-1.126873,1.677588,0.346478,0.280993,0.020158,0.0,10.0,70.0,178.0,24.0,1.0
323876,2.153888,-1.141003,1.6187129999999998,0.193295,-0.27268400000000004,0.236074,0.0,10.0,70.0,178.0,24.0,1.0
323877,2.071431,-1.160293,1.555994,-0.002771,-0.456715,0.220092,0.0,10.0,70.0,178.0,24.0,1.0
323878,2.009893,-1.180022,1.4938209999999998,-0.123728,-0.500588,0.318097,0.0,10.0,70.0,178.0,24.0,1.0
323879,1.954375,-1.195431,1.424336,-0.096391,-0.256439,-0.343331,0.0,10.0,70.0,178.0,24.0,1.0
323880,1.913073,-1.200445,1.387376,0.15066400000000002,0.16122899999999998,0.045041000000000005,0.0,10.0,70.0,178.0,24.0,1.0
323881,1.920076,-1.193782,1.425809,-0.019635,0.404049,0.341986,0.0,10.0,70.0,178.0,24.0,1.0
323882,1.934565,-1.199216,1.440484,-0.077896,0.4103020000000001,-0.295902,0.0,10.0,70.0,178.0,24.0,1.0
323883,1.954383,-1.21431,1.428391,-0.062189,0.404927,-0.297322,0.0,10.0,70.0,178.0,24.0,1.0
323884,1.985864,-1.226875,1.444251,-0.149398,0.17541199999999998,-0.059048,0.0,10.0,70.0,178.0,24.0,1.0
323885,2.051855,-1.233156,1.517224,-0.150733,0.7585029999999999,0.450694,0.0,10.0,70.0,178.0,24.0,1.0
323886,2.103092,-1.240361,1.574748,-0.100469,0.265326,-0.225225,0.0,10.0,70.0,178.0,24.0,1.0
323887,2.118755,-1.249329,1.58174,-0.001004,-0.201016,-0.4998770000000001,0.0,10.0,70.0,178.0,24.0,1.0
323888,2.1325990000000004,-1.247295,1.6000219999999998,0.032856,-0.029976,0.415422,0.0,10.0,70.0,178.0,24.0,1.0
323889,2.130793,-1.238493,1.593496,0.065117,0.099766,0.432112,0.0,10.0,70.0,178.0,24.0,1.0
323890,2.1087990000000003,-1.231965,1.559443,-0.045269,0.289187,0.17506300000000002,0.0,10.0,70.0,178.0,24.0,1.0
323891,2.098873,-1.229263,1.53158,-0.17991400000000002,0.323825,0.03267,0.0,10.0,70.0,178.0,24.0,1.0
323892,2.1083,-1.230107,1.522614,-0.297133,0.058818,0.07581399999999999,0.0,10.0,70.0,178.0,24.0,1.0
323893,2.14836,-1.229714,1.540054,-0.333361,-0.003276,0.111922,0.0,10.0,70.0,178.0,24.0,1.0
323894,2.231702,-1.2246290000000002,1.599549,-0.30735300000000004,0.007210999999999999,0.131119,0.0,10.0,70.0,178.0,24.0,1.0
323895,2.345981,-1.210025,1.694696,-0.203173,-0.047167,-0.100571,0.0,10.0,70.0,178.0,24.0,1.0
323896,2.4821310000000003,-1.179969,1.806115,-0.002722,-0.024158,-0.112168,0.0,10.0,70.0,178.0,24.0,1.0
323897,2.615976,-1.123674,1.933574,0.057338,0.237282,-0.247937,0.0,10.0,70.0,178.0,24.0,1.0
323898,2.704326,-1.054509,2.0466,0.121782,0.23726,-0.278168,0.0,10.0,70.0,178.0,24.0,1.0
323899,2.753068,-0.989119,2.118817,0.203364,-0.35907100000000003,-0.039449,0.0,10.0,70.0,178.0,24.0,1.0
323900,2.774948,-0.933555,2.156225,0.255993,-0.315947,0.091524,0.0,10.0,70.0,178.0,24.0,1.0
323901,2.79822,-0.8994190000000001,2.1713310000000003,0.126892,0.014519999999999996,0.15076099999999998,0.0,10.0,70.0,178.0,24.0,1.0
323902,2.827755,-0.8860399999999999,2.176391,0.237393,0.35959800000000003,0.007434,0.0,10.0,70.0,178.0,24.0,1.0
323903,2.849175,-0.885797,2.178612,0.177271,0.34054,-0.13001400000000002,0.0,10.0,70.0,178.0,24.0,1.0
323904,2.84419,-0.8891190000000001,2.177053,0.030553,-0.058957,-0.196321,0.0,10.0,70.0,178.0,24.0,1.0
323905,2.825039,-0.8994559999999999,2.169023,-0.024003,-0.499008,-0.146119,0.0,10.0,70.0,178.0,24.0,1.0
323906,2.792988,-0.920832,2.149849,-0.068301,-0.5384,-0.049271,0.0,10.0,70.0,178.0,24.0,1.0
323907,2.749933,-0.951487,2.114852,-0.107535,-0.6545350000000001,0.07601799999999999,0.0,10.0,70.0,178.0,24.0,1.0
323908,2.690828,-0.989811,2.052612,-0.153764,-0.6437229999999999,0.118357,0.0,10.0,70.0,178.0,24.0,1.0
323909,2.600866,-1.030001,1.952086,-0.205069,-0.027176,-0.066674,0.0,10.0,70.0,178.0,24.0,1.0
323910,2.475432,-1.064416,1.826468,-0.157696,0.632193,-0.251617,0.0,10.0,70.0,178.0,24.0,1.0
323911,2.345377,-1.089904,1.712233,0.034203,0.8014819999999999,-0.223811,0.0,10.0,70.0,178.0,24.0,1.0
323912,2.234702,-1.117081,1.629917,0.205042,0.096033,0.000136,0.0,10.0,70.0,178.0,24.0,1.0
323913,2.140696,-1.142862,1.568916,0.272302,-0.327977,0.079225,0.0,10.0,70.0,178.0,24.0,1.0
323914,2.0537970000000003,-1.156734,1.512819,0.256321,-0.16534100000000002,0.464953,0.0,10.0,70.0,178.0,24.0,1.0
323915,1.987662,-1.170482,1.475626,-0.145775,-0.249155,0.804109,0.0,10.0,70.0,178.0,24.0,1.0
323916,1.983699,-1.192418,1.432575,-0.208147,-0.444539,-0.554148,0.0,10.0,70.0,178.0,24.0,1.0
323917,1.983519,-1.209011,1.383462,0.14984,-0.32726500000000003,-0.358626,0.0,10.0,70.0,178.0,24.0,1.0
323918,2.019354,-1.2011,1.433622,-0.23896,0.100293,0.494503,0.0,10.0,70.0,178.0,24.0,1.0
323919,2.060403,-1.19129,1.489802,-0.656205,0.480561,-0.09971,0.0,10.0,70.0,178.0,24.0,1.0
323920,2.070203,-1.207964,1.471488,-0.158755,0.27773600000000004,-0.655751,0.0,10.0,70.0,178.0,24.0,1.0
323921,2.126881,-1.215054,1.526526,0.303071,1.734212,1.346748,0.0,10.0,70.0,178.0,24.0,1.0
323922,2.208094,-1.208897,1.621348,-0.273716,0.629502,-0.120045,0.0,10.0,70.0,178.0,24.0,1.0
323923,2.239966,-1.232352,1.638545,-0.019445,-0.8130229999999999,-0.636213,0.0,10.0,70.0,178.0,24.0,1.0
323924,2.267857,-1.236161,1.675445,-0.064569,-0.5747329999999999,0.190609,0.0,10.0,70.0,178.0,24.0,1.0
323925,2.288885,-1.218582,1.706177,0.13373800000000002,0.158496,0.5721,0.0,10.0,70.0,178.0,24.0,1.0
323926,2.246641,-1.200235,1.670459,0.137988,0.77152,0.5866979999999999,0.0,10.0,70.0,178.0,24.0,1.0
323927,2.23421,-1.195359,1.644148,-0.03675,0.21893,0.351026,0.0,10.0,70.0,178.0,24.0,1.0
323928,2.244503,-1.193255,1.644363,-0.097813,0.130485,0.5183840000000001,0.0,10.0,70.0,178.0,24.0,1.0
323929,2.263801,-1.193172,1.6413919999999995,-0.239163,0.187705,0.481477,0.0,10.0,70.0,178.0,24.0,1.0
323930,2.3116790000000003,-1.191387,1.657795,-0.365263,-0.07292699999999999,0.080256,0.0,10.0,70.0,178.0,24.0,1.0
323931,2.385479,-1.180743,1.7086400000000002,-0.24487,-0.239357,-0.15015699999999998,0.0,10.0,70.0,178.0,24.0,1.0
323932,2.473974,-1.156908,1.780385,-0.112773,-0.28183600000000003,-0.217707,0.0,10.0,70.0,178.0,24.0,1.0
323933,2.584728,-1.110053,1.87773,0.16605899999999998,-0.066865,-0.23498,0.0,10.0,70.0,178.0,24.0,1.0
323934,2.6647540000000003,-1.050687,1.963309,0.268029,-0.046659,-0.369191,0.0,10.0,70.0,178.0,24.0,1.0
323935,2.702941,-0.988686,2.023334,0.341005,-0.047127,-0.4705720000000001,0.0,10.0,70.0,178.0,24.0,1.0
323936,2.720191,-0.935934,2.06054,0.092649,-0.395867,-0.007365000000000002,0.0,10.0,70.0,178.0,24.0,1.0
323937,2.743184,-0.901179,2.087748,-0.035152,-0.256425,-0.079073,0.0,10.0,70.0,178.0,24.0,1.0
323938,2.765564,-0.8844139999999999,2.10357,-0.140565,-0.12445,-0.117795,0.0,10.0,70.0,178.0,24.0,1.0
323939,2.789655,-0.879642,2.1078240000000004,0.125316,-0.041553,-0.143152,0.0,10.0,70.0,178.0,24.0,1.0
323940,2.804223,-0.8884989999999999,2.097599,0.243806,-0.042468,-0.122218,0.0,10.0,70.0,178.0,24.0,1.0
323941,2.790952,-0.911325,2.073915,0.273671,-0.025347,-0.218236,0.0,10.0,70.0,178.0,24.0,1.0
323942,2.734898,-0.937279,2.041531,0.06252,-0.108319,0.085886,0.0,10.0,70.0,178.0,24.0,1.0
323943,2.659079,-0.966252,1.99618,-0.234864,-0.385749,0.394718,0.0,10.0,70.0,178.0,24.0,1.0
323944,2.584016,-1.001626,1.931738,-0.524788,-0.500124,0.209659,0.0,10.0,70.0,178.0,24.0,1.0
323945,2.509123,-1.04253,1.833014,-0.365014,-0.163762,-0.309277,0.0,10.0,70.0,178.0,24.0,1.0
323946,2.416777,-1.07892,1.7208990000000002,-0.196219,0.06684,-0.401986,0.0,10.0,70.0,178.0,24.0,1.0
323947,2.301974,-1.099866,1.626833,0.435885,0.633268,-0.338516,0.0,10.0,70.0,178.0,24.0,1.0
323948,2.168299,-1.108177,1.557998,0.421226,0.076183,0.183528,0.0,10.0,70.0,178.0,24.0,1.0
323949,2.070143,-1.106416,1.524811,0.270032,-0.141155,0.403888,0.0,10.0,70.0,178.0,24.0,1.0
323950,2.043728,-1.11283,1.516125,-0.140523,-0.242641,0.50464,0.0,10.0,70.0,178.0,24.0,1.0
323951,2.054449,-1.141218,1.495751,-0.346708,-0.542488,-0.248159,0.0,10.0,70.0,178.0,24.0,1.0
323952,2.027284,-1.165399,1.451716,-0.306357,-0.527085,-0.535687,0.0,10.0,70.0,178.0,24.0,1.0
323953,2.059313,-1.1651790000000002,1.495296,-0.226202,0.57487,0.306441,0.0,10.0,70.0,178.0,24.0,1.0
323954,2.112321,-1.163494,1.555476,-0.323139,0.826131,0.462934,0.0,10.0,70.0,178.0,24.0,1.0
323955,2.114296,-1.180227,1.536085,-0.244658,0.245687,-0.375939,0.0,10.0,70.0,178.0,24.0,1.0
323956,2.158017,-1.187729,1.570826,0.226403,1.275938,1.025432,0.0,10.0,70.0,178.0,24.0,1.0
323957,2.231192,-1.175973,1.652885,-0.09878,0.160966,-0.371018,0.0,10.0,70.0,178.0,24.0,1.0
323958,2.238386,-1.1819,1.656468,-0.131333,-0.5777479999999999,-0.5744279999999999,0.0,10.0,70.0,178.0,24.0,1.0
323959,2.246135,-1.17638,1.671778,-0.14538900000000002,-0.488773,0.125588,0.0,10.0,70.0,178.0,24.0,1.0
323960,2.233102,-1.168905,1.6750310000000002,0.075915,0.676784,0.813299,0.0,10.0,70.0,178.0,24.0,1.0
323961,2.20952,-1.16667,1.647905,-0.058153,0.8605370000000001,0.127106,0.0,10.0,70.0,178.0,24.0,1.0
323962,2.210465,-1.172053,1.629088,-0.153199,0.224919,0.287923,0.0,10.0,70.0,178.0,24.0,1.0
323963,2.245189,-1.1731049999999998,1.6419099999999998,-0.218518,-0.079886,0.365013,0.0,10.0,70.0,178.0,24.0,1.0
323964,2.292872,-1.164433,1.663943,-0.30303,-0.074768,0.139494,0.0,10.0,70.0,178.0,24.0,1.0
323965,2.3800380000000003,-1.14101,1.720036,-0.268006,-0.082578,-0.017818,0.0,10.0,70.0,178.0,24.0,1.0
323966,2.48918,-1.102841,1.804713,-0.116093,-0.040945,-0.24028400000000005,0.0,10.0,70.0,178.0,24.0,1.0
323967,2.5825560000000003,-1.050294,1.890649,-0.009363,-0.004548,-0.5451229999999999,0.0,10.0,70.0,178.0,24.0,1.0
323968,2.642128,-0.985332,1.971997,0.244357,0.092432,-0.456542,0.0,10.0,70.0,178.0,24.0,1.0
323969,2.678672,-0.929038,2.036512,0.232337,-0.161167,-0.372023,0.0,10.0,70.0,178.0,24.0,1.0
323970,2.696644,-0.889876,2.0801540000000003,0.036885,-0.401597,-0.202991,0.0,10.0,70.0,178.0,24.0,1.0
323971,2.719296,-0.866448,2.112231,-0.390975,-0.4594220000000001,-0.307519,0.0,10.0,70.0,178.0,24.0,1.0
323972,2.740795,-0.852766,2.129154,-0.011059,-0.217245,-0.056442,0.0,10.0,70.0,178.0,24.0,1.0
323973,2.76804,-0.8617819999999999,2.134957,0.17616099999999998,-0.16403299999999998,0.12778299999999998,0.0,10.0,70.0,178.0,24.0,1.0
323974,2.770381,-0.892502,2.122027,0.31739,0.010113,0.030451,0.0,10.0,70.0,178.0,24.0,1.0
323975,2.72995,-0.925874,2.090426,0.13045,-0.184691,-0.031872000000000004,0.0,10.0,70.0,178.0,24.0,1.0
323976,2.664218,-0.954817,2.043979,-0.076589,-0.315399,0.031806,0.0,10.0,70.0,178.0,24.0,1.0
323977,2.588805,-0.984092,1.981857,-0.24611,-0.427649,0.186645,0.0,10.0,70.0,178.0,24.0,1.0
323978,2.503066,-1.0158200000000002,1.890068,-0.3034,-0.090666,0.038003,0.0,10.0,70.0,178.0,24.0,1.0
323979,2.385048,-1.04077,1.7698490000000002,-0.212266,0.175582,-0.097501,0.0,10.0,70.0,178.0,24.0,1.0
323980,2.257044,-1.050622,1.6641830000000002,-0.018975,0.510304,-0.120126,0.0,10.0,70.0,178.0,24.0,1.0
323981,2.142359,-1.055024,1.602051,0.345321,0.122901,0.165928,0.0,10.0,70.0,178.0,24.0,1.0
323982,2.059089,-1.064574,1.568933,0.214583,-0.203638,0.188339,0.0,10.0,70.0,178.0,24.0,1.0
323983,2.002482,-1.075519,1.539107,0.145493,-0.369034,0.206586,0.0,10.0,70.0,178.0,24.0,1.0
323984,1.972566,-1.094734,1.516645,-0.6233850000000001,-0.536572,-0.098108,0.0,10.0,70.0,178.0,24.0,1.0
323985,1.948758,-1.126812,1.454899,-0.597386,-0.677721,-0.503359,0.0,10.0,70.0,178.0,24.0,1.0
323986,1.912461,-1.141507,1.413807,-0.341244,-0.535116,-0.520393,0.0,10.0,70.0,178.0,24.0,1.0
323987,1.947336,-1.138416,1.47758,-0.6043029999999999,0.903415,0.194127,0.0,10.0,70.0,178.0,24.0,1.0
323988,1.961901,-1.153077,1.491774,-0.501413,0.864441,0.271837,0.0,10.0,70.0,178.0,24.0,1.0
323989,2.025792,-1.166384,1.542581,0.424954,1.44117,0.7247439999999999,0.0,10.0,70.0,178.0,24.0,1.0
323990,2.120741,-1.159129,1.64035,0.11113599999999997,-0.328839,-0.6959420000000001,0.0,10.0,70.0,178.0,24.0,1.0
323991,2.124639,-1.162501,1.655444,0.001822,-0.576628,-0.8891700000000001,0.0,10.0,70.0,178.0,24.0,1.0
323992,2.118143,-1.166328,1.663498,-0.187046,-0.773133,-0.580074,0.0,10.0,70.0,178.0,24.0,1.0
323993,2.122593,-1.164884,1.6699830000000002,-0.141318,0.356007,0.216977,0.0,10.0,70.0,178.0,24.0,1.0
323994,2.078244,-1.161415,1.6468080000000005,-0.129495,0.515891,0.29214,0.0,10.0,70.0,178.0,24.0,1.0
323995,2.044514,-1.159653,1.621498,-0.045461,0.313652,0.295554,0.0,10.0,70.0,178.0,24.0,1.0
323996,2.009978,-1.155733,1.585297,-0.142517,-0.059484,0.184956,0.0,10.0,70.0,178.0,24.0,1.0
323997,1.985987,-1.146234,1.556588,-0.27770700000000004,-0.120844,0.253342,0.0,10.0,70.0,178.0,24.0,1.0
323998,1.964182,-1.135839,1.535893,-0.6004079999999999,0.280856,0.187558,0.0,10.0,70.0,178.0,24.0,1.0
323999,1.956966,-1.12569,1.538702,-0.765908,0.536537,0.107063,0.0,10.0,70.0,178.0,24.0,1.0
324000,1.972852,-1.111807,1.575268,-0.686182,0.491576,-0.025432,0.0,10.0,70.0,178.0,24.0,1.0
324001,2.024071,-1.095257,1.6553369999999998,-0.063575,0.421241,0.189044,0.0,10.0,70.0,178.0,24.0,1.0
324002,2.10348,-1.076114,1.759681,0.108486,0.29070300000000004,0.185094,0.0,10.0,70.0,178.0,24.0,1.0
324003,2.193747,-1.054157,1.865579,0.224621,0.11985,0.099535,0.0,10.0,70.0,178.0,24.0,1.0
324004,2.276677,-1.035982,1.949072,0.29430500000000004,-0.061901,-0.412264,0.0,10.0,70.0,178.0,24.0,1.0
324005,2.349871,-1.024774,2.023559,0.164643,0.361086,-0.336298,0.0,10.0,70.0,178.0,24.0,1.0
324006,2.423119,-1.016983,2.106017,0.021001,1.536926,0.243875,0.0,10.0,70.0,178.0,24.0,1.0
324007,2.474028,-1.021223,2.184062,-0.19779,1.598684,-0.13835799999999998,0.0,10.0,70.0,178.0,24.0,1.0
324008,2.513582,-1.037839,2.249707,-0.211783,0.123815,-0.356845,0.0,10.0,70.0,178.0,24.0,1.0
324009,2.54036,-1.050814,2.308001,-0.088869,-0.222442,-0.30185100000000004,0.0,10.0,70.0,178.0,24.0,1.0
324010,2.547821,-1.060062,2.360821,0.17583900000000002,-0.13267,-0.282297,0.0,10.0,70.0,178.0,24.0,1.0
324011,2.542487,-1.068438,2.419789,0.242983,-0.015396,-0.132008,0.0,10.0,70.0,178.0,24.0,1.0
324012,2.526894,-1.071646,2.475444,0.058583,-0.104735,-0.233124,0.0,10.0,70.0,178.0,24.0,1.0
324013,2.497024,-1.065606,2.527011,0.056419,-0.321265,-0.351663,0.0,10.0,70.0,178.0,24.0,1.0
324014,2.457498,-1.0512860000000002,2.574467,0.113199,-0.451254,-0.28364,0.0,10.0,70.0,178.0,24.0,1.0
324015,2.419133,-1.035072,2.6137650000000003,0.164116,-0.477788,0.026059,0.0,10.0,70.0,178.0,24.0,1.0
324016,2.383188,-1.025731,2.637669,0.129637,-0.361289,0.209319,0.0,10.0,70.0,178.0,24.0,1.0
324017,2.341625,-1.022743,2.645926,-0.095471,-0.171488,0.241252,0.0,10.0,70.0,178.0,24.0,1.0
324018,2.295825,-1.0204719999999998,2.647929,-0.219504,-0.07846,0.21447600000000006,0.0,10.0,70.0,178.0,24.0,1.0
324019,2.255448,-1.015089,2.655974,-0.32195300000000004,0.002066,-0.050109,0.0,10.0,70.0,178.0,24.0,1.0
324020,2.2229810000000003,-1.006583,2.675528,-0.196312,0.067527,0.016789,0.0,10.0,70.0,178.0,24.0,1.0
324021,2.195843,-0.999745,2.702841,-0.122646,0.116674,0.055692,0.0,10.0,70.0,178.0,24.0,1.0
324022,2.176036,-0.996054,2.7381990000000003,0.055316,0.186974,0.337191,0.0,10.0,70.0,178.0,24.0,1.0
324023,2.163616,-0.993106,2.783742,0.025991000000000004,0.053799,0.426408,0.0,10.0,70.0,178.0,24.0,1.0
324024,2.164172,-0.997183,2.824133,-0.157099,-0.190059,0.185499,0.0,10.0,70.0,178.0,24.0,1.0
324025,2.173547,-1.011388,2.848853,-0.150557,-0.261189,-0.056249,0.0,10.0,70.0,178.0,24.0,1.0
324026,2.173092,-1.027306,2.859618,0.034795,-0.02136,-0.08648600000000001,0.0,10.0,70.0,178.0,24.0,1.0
324027,2.158337,-1.043867,2.854504,0.34410300000000005,0.469858,-0.028493,0.0,10.0,70.0,178.0,24.0,1.0
324028,2.14929,-1.059605,2.847137,0.405896,1.105071,0.17190999999999998,0.0,10.0,70.0,178.0,24.0,1.0
324029,2.17758,-1.067216,2.879573,-0.171882,0.723993,0.191018,0.0,10.0,70.0,178.0,24.0,1.0
324030,2.219189,-1.073761,2.916684,-0.20268,-0.446932,-0.350024,0.0,10.0,70.0,178.0,24.0,1.0
324031,2.221146,-1.083735,2.907996,-0.117742,-1.045684,-0.661409,0.0,10.0,70.0,178.0,24.0,1.0
324032,2.181029,-1.08676,2.8751830000000003,-0.24572600000000006,-0.090827,-0.369654,0.0,10.0,70.0,178.0,24.0,1.0
324033,2.136396,-1.0809,2.860879,-0.405965,0.62392,-0.129105,0.0,10.0,70.0,178.0,24.0,1.0
324034,2.117036,-1.082369,2.868857,-0.514371,1.11789,-0.028272,0.0,10.0,70.0,178.0,24.0,1.0
324035,2.085572,-1.093173,2.876744,-0.114237,0.193896,-0.165383,0.0,10.0,70.0,178.0,24.0,1.0
324036,2.048789,-1.108894,2.885051,-0.024102,0.010006,-0.120127,0.0,10.0,70.0,178.0,24.0,1.0
324037,2.001881,-1.115538,2.893317,0.125743,-0.090515,-0.128872,0.0,10.0,70.0,178.0,24.0,1.0
324038,1.947882,-1.118237,2.889578,0.25787,-0.175103,-0.040202,0.0,10.0,70.0,178.0,24.0,1.0
324039,1.889443,-1.121502,2.868112,0.143781,-0.181103,-0.045658,0.0,10.0,70.0,178.0,24.0,1.0
324040,1.830709,-1.122616,2.841765,-0.016089,-0.048729,-0.008427,0.0,10.0,70.0,178.0,24.0,1.0
324041,1.7716619999999998,-1.12266,2.811362,-0.11726,0.118138,-0.073111,0.0,10.0,70.0,178.0,24.0,1.0
324042,1.715874,-1.1233030000000002,2.78296,-0.15423299999999998,0.068223,-0.043192,0.0,10.0,70.0,178.0,24.0,1.0
324043,1.664143,-1.123423,2.75802,-0.16583499999999998,-0.087622,0.080237,0.0,10.0,70.0,178.0,24.0,1.0
324044,1.616386,-1.121102,2.73272,-0.18065,-0.056952,0.127941,0.0,10.0,70.0,178.0,24.0,1.0
324045,1.575087,-1.11741,2.708859,-0.119357,-0.0081,0.122358,0.0,10.0,70.0,178.0,24.0,1.0
324046,1.535932,-1.112126,2.683622,-0.081522,-0.026677,0.176887,0.0,10.0,70.0,178.0,24.0,1.0
324047,1.494247,-1.104179,2.655155,-0.16272,-0.007185,0.180369,0.0,10.0,70.0,178.0,24.0,1.0
324048,1.453611,-1.094766,2.6242810000000003,-0.205537,0.059207,0.133885,0.0,10.0,70.0,178.0,24.0,1.0
324049,1.417412,-1.086514,2.592245,-0.146064,0.18898,0.105662,0.0,10.0,70.0,178.0,24.0,1.0
324050,1.384962,-1.082178,2.559444,-0.09447,0.182646,0.182235,0.0,10.0,70.0,178.0,24.0,1.0
324051,1.351138,-1.079979,2.531835,-0.168363,0.211939,0.212293,0.0,10.0,70.0,178.0,24.0,1.0
324052,1.333759,-1.079887,2.527047,-0.236671,0.355202,0.165527,0.0,10.0,70.0,178.0,24.0,1.0
324053,1.332206,-1.083334,2.539832,-0.16323,0.430288,0.188652,0.0,10.0,70.0,178.0,24.0,1.0
324054,1.344961,-1.090455,2.566369,-0.162688,0.45702,0.224731,0.0,10.0,70.0,178.0,24.0,1.0
324055,1.378462,-1.101876,2.617109,-0.21048000000000006,0.421359,0.186178,0.0,10.0,70.0,178.0,24.0,1.0
324056,1.448567,-1.117612,2.707485,-0.203452,0.501074,0.205772,0.0,10.0,70.0,178.0,24.0,1.0
324057,1.556024,-1.132459,2.838803,-0.13842100000000002,0.438749,0.343001,0.0,10.0,70.0,178.0,24.0,1.0
324058,1.695917,-1.138783,2.998863,-0.008976999999999999,0.198458,0.114375,0.0,10.0,70.0,178.0,24.0,1.0
324059,1.851911,-1.13418,-3.1233,-0.012933000000000002,0.16868699999999998,-0.295722,0.0,10.0,70.0,178.0,24.0,1.0
324060,2.001139,-1.122586,-2.972456,-0.025614,0.196036,-0.409256,0.0,10.0,70.0,178.0,24.0,1.0
324061,2.125923,-1.112374,-2.841486,-0.015451,0.243644,-0.4199729999999999,0.0,10.0,70.0,178.0,24.0,1.0
324062,2.2238290000000003,-1.106469,-2.724696,-0.260325,0.6209520000000001,-0.156157,0.0,10.0,70.0,178.0,24.0,1.0
324063,2.313229,-1.103672,-2.612339,-0.236453,0.622209,-0.188515,0.0,10.0,70.0,178.0,24.0,1.0
324064,2.393535,-1.102081,-2.501116,0.003269,0.361757,-0.4183310000000001,0.0,10.0,70.0,178.0,24.0,1.0
324065,2.467139,-1.097302,-2.385767,0.154088,-0.121426,-0.450101,0.0,10.0,70.0,178.0,24.0,1.0
324066,2.535673,-1.085494,-2.262964,0.175529,-0.179883,-0.399771,0.0,10.0,70.0,178.0,24.0,1.0
324067,2.597067,-1.0735860000000002,-2.142656,0.11857,-0.244319,-0.322996,0.0,10.0,70.0,178.0,24.0,1.0
324068,2.643999,-1.06248,-2.035626,0.057853,-0.220199,-0.313789,0.0,10.0,70.0,178.0,24.0,1.0
324069,2.678868,-1.051982,-1.943804,0.013813999999999998,-0.192382,-0.314368,0.0,10.0,70.0,178.0,24.0,1.0
324070,2.697453,-1.043657,-1.86667,0.07913400000000001,-0.16228399999999998,-0.360043,0.0,10.0,70.0,178.0,24.0,1.0
324071,2.695321,-1.037481,-1.802126,0.13531400000000002,-0.148068,-0.394355,0.0,10.0,70.0,178.0,24.0,1.0
324072,2.679177,-1.031953,-1.751903,0.188,-0.233532,-0.257129,0.0,10.0,70.0,178.0,24.0,1.0
324073,2.65492,-1.030329,-1.719602,0.257132,-0.286988,-0.166201,0.0,10.0,70.0,178.0,24.0,1.0
324074,2.625513,-1.03483,-1.704354,0.250883,-0.311589,-0.145985,0.0,10.0,70.0,178.0,24.0,1.0
324075,2.5911880000000003,-1.044264,-1.703931,0.155815,-0.332542,-0.112626,0.0,10.0,70.0,178.0,24.0,1.0
324076,2.549284,-1.05582,-1.716346,0.019508,-0.251759,-0.044964,0.0,10.0,70.0,178.0,24.0,1.0
324077,2.497466,-1.066543,-1.737597,-0.054595000000000005,-0.053758000000000014,0.114305,0.0,10.0,70.0,178.0,24.0,1.0
324078,2.434333,-1.074354,-1.763721,-0.05994600000000001,0.033529,0.174783,0.0,10.0,70.0,178.0,24.0,1.0
324079,2.374445,-1.074767,-1.779159,-0.047316,0.125633,0.268877,0.0,10.0,70.0,178.0,24.0,1.0
324080,2.347011,-1.066161,-1.755184,-0.104992,0.551239,0.6318779999999999,0.0,10.0,70.0,178.0,24.0,1.0
324081,2.361562,-1.060438,-1.70275,-0.207167,0.273854,0.568422,0.0,10.0,70.0,178.0,24.0,1.0
324082,2.399519,-1.066615,-1.654292,-0.338805,-0.257406,-0.147645,0.0,10.0,70.0,178.0,24.0,1.0
324083,2.424655,-1.075827,-1.617687,-0.045814,0.056784,-0.558761,0.0,10.0,70.0,178.0,24.0,1.0
324084,2.42329,-1.085972,-1.5909870000000002,0.11915,0.600641,-0.700581,0.0,10.0,70.0,178.0,24.0,1.0
324085,2.427321,-1.105367,-1.571474,0.380401,0.8805870000000001,-0.511217,0.0,10.0,70.0,178.0,24.0,1.0
324086,2.464035,-1.117448,-1.528949,0.244194,0.3975530000000001,0.039224,0.0,10.0,70.0,178.0,24.0,1.0
324087,2.512424,-1.112738,-1.457117,0.220125,-0.259218,0.043645,0.0,10.0,70.0,178.0,24.0,1.0
324088,2.517357,-1.113933,-1.4240620000000002,0.328354,-1.155833,-0.330483,0.0,10.0,70.0,178.0,24.0,1.0
324089,2.4527810000000003,-1.119764,-1.451458,0.040219,-0.288593,-0.24663,0.0,10.0,70.0,178.0,24.0,1.0
324090,2.39493,-1.113445,-1.487607,-0.112652,0.387092,-0.289575,0.0,10.0,70.0,178.0,24.0,1.0
324091,2.360923,-1.106712,-1.505829,-0.073268,0.715174,-0.548535,0.0,10.0,70.0,178.0,24.0,1.0
324092,2.334066,-1.108126,-1.501076,-0.05255,0.097583,0.083487,0.0,10.0,70.0,178.0,24.0,1.0
324093,2.302196,-1.117838,-1.499717,-0.028147,-0.104875,-0.036034,0.0,10.0,70.0,178.0,24.0,1.0
324094,2.259482,-1.127845,-1.510838,-0.020869,-0.140917,-0.119369,0.0,10.0,70.0,178.0,24.0,1.0
324095,2.213703,-1.1386969999999998,-1.531336,0.005947,-0.13842000000000002,-0.11239,0.0,10.0,70.0,178.0,24.0,1.0
324096,2.173032,-1.147765,-1.553841,0.048912,-0.03105,-0.140709,0.0,10.0,70.0,178.0,24.0,1.0
324097,2.139752,-1.15213,-1.567847,0.041041,-0.024411,-0.026546,0.0,10.0,70.0,178.0,24.0,1.0
324098,2.111229,-1.154193,-1.577208,-0.034524,-0.074533,0.069242,0.0,10.0,70.0,178.0,24.0,1.0
324099,2.086941,-1.155706,-1.588207,-0.141897,-0.07574,0.05813400000000001,0.0,10.0,70.0,178.0,24.0,1.0
324100,2.070446,-1.157543,-1.598135,-0.186579,-0.070147,0.064096,0.0,10.0,70.0,178.0,24.0,1.0
324101,2.0663080000000003,-1.159841,-1.597966,-0.283359,-0.108634,0.210325,0.0,10.0,70.0,178.0,24.0,1.0
324102,2.087842,-1.1617,-1.581873,-0.325969,-0.175308,0.123704,0.0,10.0,70.0,178.0,24.0,1.0
324103,2.1232830000000003,-1.162481,-1.552904,-0.185469,-0.333318,0.129485,0.0,10.0,70.0,178.0,24.0,1.0
324104,2.150039,-1.161396,-1.526637,-0.175846,-0.287172,-0.015862,0.0,10.0,70.0,178.0,24.0,1.0
324105,2.18257,-1.157122,-1.497847,-0.179053,-0.244141,-0.033134,0.0,10.0,70.0,178.0,24.0,1.0
324106,2.21175,-1.151989,-1.474423,-0.178046,-0.039078,-0.032794,0.0,10.0,70.0,178.0,24.0,1.0
324107,2.233418,-1.15343,-1.468535,-0.059862,-0.114813,-0.262118,0.0,10.0,70.0,178.0,24.0,1.0
324108,2.2578560000000003,-1.154151,-1.457218,-0.018785,-0.195091,-0.207423,0.0,10.0,70.0,178.0,24.0,1.0
324109,2.283639,-1.149184,-1.441368,-0.033211000000000004,-0.051316,-0.11014000000000003,0.0,10.0,70.0,178.0,24.0,1.0
324110,2.298381,-1.142426,-1.430883,-0.095918,0.192361,-0.071512,0.0,10.0,70.0,178.0,24.0,1.0
324111,2.315085,-1.136702,-1.418443,-0.283058,0.330587,0.047111,0.0,10.0,70.0,178.0,24.0,1.0
324112,2.364593,-1.129792,-1.384225,-0.390628,0.419315,-0.097663,0.0,10.0,70.0,178.0,24.0,1.0
324113,2.448,-1.11558,-1.3130959999999998,-0.162552,0.5013850000000001,-0.011163,0.0,10.0,70.0,178.0,24.0,1.0
324114,2.55879,-1.087679,-1.204958,0.194822,0.605813,0.186889,0.0,10.0,70.0,178.0,24.0,1.0
324115,2.672933,-1.045713,-1.087825,0.500354,0.4872260000000001,0.106379,0.0,10.0,70.0,178.0,24.0,1.0
324116,2.767491,-0.998435,-0.987021,0.510054,0.131589,-0.252349,0.0,10.0,70.0,178.0,24.0,1.0
324117,2.8167720000000003,-0.95117,-0.922614,0.4204270000000001,-0.29548,-0.538621,0.0,10.0,70.0,178.0,24.0,1.0
324118,2.829913,-0.905959,-0.8914559999999999,0.153101,-0.428954,-0.237087,0.0,10.0,70.0,178.0,24.0,1.0
324119,2.837613,-0.870925,-0.8823719999999999,0.040329,-0.006472,-0.08783099999999999,0.0,10.0,70.0,178.0,24.0,1.0
324120,2.85323,-0.854709,-0.8792719999999999,0.23204,0.4498430000000001,0.018044,0.0,10.0,70.0,178.0,24.0,1.0
324121,2.871511,-0.8613129999999999,-0.869548,0.39867,0.631606,-0.131603,0.0,10.0,70.0,178.0,24.0,1.0
324122,2.881903,-0.87959,-0.854585,0.264246,-0.177552,-0.281841,0.0,10.0,70.0,178.0,24.0,1.0
324123,2.8779,-0.908068,-0.844569,0.233646,-0.38875,-0.307281,0.0,10.0,70.0,178.0,24.0,1.0
324124,2.859379,-0.943276,-0.844203,0.174477,-0.523933,-0.339966,0.0,10.0,70.0,178.0,24.0,1.0
324125,2.826484,-0.982382,-0.86224,-0.275775,-0.7670640000000001,0.166769,0.0,10.0,70.0,178.0,24.0,1.0
324126,2.78151,-1.026234,-0.909414,-0.233906,-0.780968,0.133354,0.0,10.0,70.0,178.0,24.0,1.0
324127,2.716693,-1.075073,-0.99613,-0.160298,-0.445009,-0.187161,0.0,10.0,70.0,178.0,24.0,1.0
324128,2.615288,-1.11552,-1.112991,0.025321,0.153115,-0.393454,0.0,10.0,70.0,178.0,24.0,1.0
324129,2.501262,-1.137085,-1.220917,0.224531,0.533277,-0.401297,0.0,10.0,70.0,178.0,24.0,1.0
324130,2.395807,-1.146339,-1.293918,0.4457680000000001,0.27665,0.021154,0.0,10.0,70.0,178.0,24.0,1.0
324131,2.321892,-1.159153,-1.332974,0.157147,-0.459982,0.300271,0.0,10.0,70.0,178.0,24.0,1.0
324132,2.275661,-1.179416,-1.370944,-0.043436,-0.6451020000000001,0.316612,0.0,10.0,70.0,178.0,24.0,1.0
324133,2.242339,-1.202026,-1.414992,-0.386573,-0.451326,-0.049774,0.0,10.0,70.0,178.0,24.0,1.0
324134,2.218499,-1.22274,-1.447185,-0.11076,-0.104466,-0.443588,0.0,10.0,70.0,178.0,24.0,1.0
324135,2.216073,-1.228907,-1.433003,0.027762,0.455949,0.279023,0.0,10.0,70.0,178.0,24.0,1.0
324136,2.301376,-1.210386,-1.329311,-0.067548,1.04696,0.5397029999999999,0.0,10.0,70.0,178.0,24.0,1.0
324137,2.382918,-1.202453,-1.250718,-0.118174,0.899274,0.211909,0.0,10.0,70.0,178.0,24.0,1.0
324138,2.420398,-1.220114,-1.234854,0.030271,-0.464728,-0.878127,0.0,10.0,70.0,178.0,24.0,1.0
324139,2.440173,-1.230722,-1.213255,0.312504,-0.088284,0.375827,0.0,10.0,70.0,178.0,24.0,1.0
324140,2.439572,-1.216725,-1.166409,0.4391350000000001,1.930165,0.907776,0.0,10.0,70.0,178.0,24.0,1.0
324141,2.465059,-1.2271219999999998,-1.155636,-0.16888599999999998,0.4642850000000001,-0.4780430000000001,0.0,10.0,70.0,178.0,24.0,1.0
324142,2.4986040000000003,-1.236564,-1.118995,-0.090514,-0.631491,-0.305831,0.0,10.0,70.0,178.0,24.0,1.0
324143,2.517336,-1.224345,-1.084899,0.058738,-0.456834,0.5542630000000001,0.0,10.0,70.0,178.0,24.0,1.0
324144,2.476827,-1.214138,-1.121497,0.221045,0.379902,0.403433,0.0,10.0,70.0,178.0,24.0,1.0
324145,2.453249,-1.209096,-1.166967,-0.008190000000000001,0.895331,0.072987,0.0,10.0,70.0,178.0,24.0,1.0
324146,2.484779,-1.202985,-1.161159,-0.064305,0.24475500000000006,0.114462,0.0,10.0,70.0,178.0,24.0,1.0
324147,2.558537,-1.187776,-1.119395,-0.06078500000000001,-0.172825,0.029414,0.0,10.0,70.0,178.0,24.0,1.0
324148,2.640196,-1.15611,-1.06704,0.012022,-0.211248,-0.06923,0.0,10.0,70.0,178.0,24.0,1.0
324149,2.734528,-1.112276,-1.007578,-0.011419,-0.301372,-0.256314,0.0,10.0,70.0,178.0,24.0,1.0
324150,2.80801,-1.051665,-0.954764,0.01848,-0.208339,-0.4444770000000001,0.0,10.0,70.0,178.0,24.0,1.0
324151,2.839175,-0.97706,-0.913985,0.327046,-0.026534,-0.539223,0.0,10.0,70.0,178.0,24.0,1.0
324152,2.846805,-0.90653,-0.888832,0.274688,-0.254502,-0.356362,0.0,10.0,70.0,178.0,24.0,1.0
324153,2.851989,-0.850707,-0.873268,0.200795,-0.3619,-0.246074,0.0,10.0,70.0,178.0,24.0,1.0
324154,2.856781,-0.812263,-0.8709370000000001,0.0073370000000000015,-0.037781,-0.22676,0.0,10.0,70.0,178.0,24.0,1.0
324155,2.862493,-0.787687,-0.874175,0.229384,0.065126,-0.16786600000000002,0.0,10.0,70.0,178.0,24.0,1.0
324156,2.876566,-0.7837310000000001,-0.88171,0.456171,-0.030726,-0.059693,0.0,10.0,70.0,178.0,24.0,1.0
324157,2.881978,-0.8036399999999999,-0.898334,0.388107,-0.105141,-0.081194,0.0,10.0,70.0,178.0,24.0,1.0
324158,2.858054,-0.8394379999999999,-0.920026,0.271228,-0.123785,0.108382,0.0,10.0,70.0,178.0,24.0,1.0
324159,2.811002,-0.879733,-0.946982,0.135233,-0.289261,0.192817,0.0,10.0,70.0,178.0,24.0,1.0
324160,2.760399,-0.920693,-0.986778,-0.045868,-0.43422,0.276609,0.0,10.0,70.0,178.0,24.0,1.0
324161,2.714888,-0.971704,-1.049629,-0.316888,-0.219585,-0.129642,0.0,10.0,70.0,178.0,24.0,1.0
324162,2.656205,-1.033018,-1.1387040000000002,-0.294061,-0.0016710000000000002,-0.389182,0.0,10.0,70.0,178.0,24.0,1.0
324163,2.570877,-1.0825870000000002,-1.229773,-0.227052,0.214955,-0.5129100000000001,0.0,10.0,70.0,178.0,24.0,1.0
324164,2.461862,-1.110801,-1.304347,0.398807,0.432086,-0.104818,0.0,10.0,70.0,178.0,24.0,1.0
324165,2.340332,-1.125769,-1.360475,0.330316,0.234654,0.176001,0.0,10.0,70.0,178.0,24.0,1.0
324166,2.2550060000000003,-1.133852,-1.400715,0.270304,0.100848,0.385428,0.0,10.0,70.0,178.0,24.0,1.0
324167,2.210614,-1.150432,-1.431756,0.226055,-0.271293,0.691489,0.0,10.0,70.0,178.0,24.0,1.0
324168,2.200809,-1.185357,-1.479561,0.01873,-0.370496,0.087632,0.0,10.0,70.0,178.0,24.0,1.0
324169,2.174255,-1.214395,-1.545527,-0.020119,-0.431558,-0.5164449999999999,0.0,10.0,70.0,178.0,24.0,1.0
324170,2.187706,-1.209734,-1.521414,-0.15571,-0.033484,0.15794,0.0,10.0,70.0,178.0,24.0,1.0
324171,2.254218,-1.19161,-1.4461,-0.441503,0.19759,0.042405,0.0,10.0,70.0,178.0,24.0,1.0
324172,2.273069,-1.202475,-1.441571,-0.177448,0.084355,-0.739725,0.0,10.0,70.0,178.0,24.0,1.0
324173,2.264651,-1.225108,-1.458753,0.514031,1.17546,0.4215140000000001,0.0,10.0,70.0,178.0,24.0,1.0
324174,2.328011,-1.220919,-1.387147,0.491537,1.986824,1.25419,0.0,10.0,70.0,178.0,24.0,1.0
324175,2.426521,-1.228631,-1.307672,0.119856,-0.478911,-0.666324,0.0,10.0,70.0,178.0,24.0,1.0
324176,2.468398,-1.231656,-1.261724,0.095476,-1.118868,-0.545411,0.0,10.0,70.0,178.0,24.0,1.0
324177,2.494126,-1.210377,-1.231617,-0.041749,-1.1550790000000002,-0.20549,0.0,10.0,70.0,178.0,24.0,1.0
324178,2.498597,-1.183704,-1.235841,0.0554,0.210266,0.5277930000000001,0.0,10.0,70.0,178.0,24.0,1.0
324179,2.450809,-1.169673,-1.284741,0.235946,1.429215,0.20525,0.0,10.0,70.0,178.0,24.0,1.0
324180,2.453425,-1.176775,-1.312929,-0.08036599999999999,0.570448,0.176226,0.0,10.0,70.0,178.0,24.0,1.0
324181,2.489355,-1.185661,-1.30326,-0.252556,0.052134,0.078351,0.0,10.0,70.0,178.0,24.0,1.0
324182,2.543463,-1.185646,-1.27391,-0.35588000000000003,-0.184936,0.078622,0.0,10.0,70.0,178.0,24.0,1.0
324183,2.611664,-1.166808,-1.231258,-0.263218,-0.19808,-0.137686,0.0,10.0,70.0,178.0,24.0,1.0
324184,2.686401,-1.131527,-1.178387,-0.04948,0.037808,-0.104559,0.0,10.0,70.0,178.0,24.0,1.0
324185,2.765998,-1.073037,-1.113619,0.233125,0.196724,-0.145518,0.0,10.0,70.0,178.0,24.0,1.0
324186,2.820138,-1.0028549999999998,-1.053807,0.5767909999999999,0.266166,-0.303196,0.0,10.0,70.0,178.0,24.0,1.0
324187,2.849619,-0.939889,-1.012331,0.595775,0.017107,-0.454276,0.0,10.0,70.0,178.0,24.0,1.0
324188,2.8639330000000003,-0.894057,-0.983452,0.3093,-0.384767,-0.11528900000000003,0.0,10.0,70.0,178.0,24.0,1.0
324189,2.895055,-0.868909,-0.95973,-0.007942,-0.297103,-0.106138,0.0,10.0,70.0,178.0,24.0,1.0
324190,2.932484,-0.867192,-0.946659,0.097495,-0.034305,-0.077828,0.0,10.0,70.0,178.0,24.0,1.0
324191,2.967649,-0.880122,-0.940301,0.219155,0.037975,-0.234612,0.0,10.0,70.0,178.0,24.0,1.0
324192,2.982781,-0.8984129999999999,-0.940473,0.252239,-0.101996,-0.385619,0.0,10.0,70.0,178.0,24.0,1.0
324193,2.969774,-0.921332,-0.94662,0.24368,-0.311865,-0.357304,0.0,10.0,70.0,178.0,24.0,1.0
324194,2.925925,-0.946294,-0.962379,0.117951,-0.4240930000000001,-0.148257,0.0,10.0,70.0,178.0,24.0,1.0
324195,2.860711,-0.972337,-0.992573,0.00022200000000000006,-0.525713,0.021278,0.0,10.0,70.0,178.0,24.0,1.0
324196,2.788605,-1.004646,-1.042428,-0.24400500000000006,-0.635842,0.432012,0.0,10.0,70.0,178.0,24.0,1.0
324197,2.704223,-1.046432,-1.124364,-0.300465,-0.357601,0.246913,0.0,10.0,70.0,178.0,24.0,1.0
324198,2.598385,-1.089633,-1.235938,-0.202074,-0.172834,-0.039371,0.0,10.0,70.0,178.0,24.0,1.0
324199,2.490723,-1.114085,-1.32749,0.438396,0.473846,-0.625215,0.0,10.0,70.0,178.0,24.0,1.0
324200,2.399403,-1.124999,-1.376983,0.441438,0.31237800000000004,-0.102875,0.0,10.0,70.0,178.0,24.0,1.0
324201,2.338374,-1.1366040000000002,-1.400066,0.260737,0.192155,0.469122,0.0,10.0,70.0,178.0,24.0,1.0
324202,2.3456,-1.160035,-1.392591,0.068729,0.326347,0.5599109999999999,0.0,10.0,70.0,178.0,24.0,1.0
324203,2.362034,-1.200678,-1.409872,-0.012695,-0.089236,-0.214383,0.0,10.0,70.0,178.0,24.0,1.0
324204,2.354144,-1.222488,-1.426808,0.124812,-0.325984,-0.110908,0.0,10.0,70.0,178.0,24.0,1.0
324205,2.42164,-1.1976719999999998,-1.344159,-0.110932,0.057744,0.04287,0.0,10.0,70.0,178.0,24.0,1.0
324206,2.416704,-1.192896,-1.331724,-0.206766,0.22400100000000006,0.073524,0.0,10.0,70.0,178.0,24.0,1.0
324207,2.439124,-1.1941389999999998,-1.311941,0.418978,1.606646,0.128485,0.0,10.0,70.0,178.0,24.0,1.0
324208,2.533057,-1.176187,-1.231891,0.08769500000000001,1.019831,0.131582,0.0,10.0,70.0,178.0,24.0,1.0
324209,2.550238,-1.184128,-1.197402,0.14791500000000002,-0.5848770000000001,-0.461098,0.0,10.0,70.0,178.0,24.0,1.0
324210,2.568882,-1.190503,-1.177264,-0.223318,-0.799024,-0.187366,0.0,10.0,70.0,178.0,24.0,1.0
324211,2.544694,-1.195215,-1.197351,-0.0433,-0.111645,0.021545,0.0,10.0,70.0,178.0,24.0,1.0
324212,2.50912,-1.195214,-1.227782,0.091701,0.548343,0.099367,0.0,10.0,70.0,178.0,24.0,1.0
324213,2.485354,-1.1927219999999998,-1.248386,0.15978,0.395498,0.112426,0.0,10.0,70.0,178.0,24.0,1.0
324214,2.470201,-1.1871459999999998,-1.259363,0.085976,0.013919,0.313097,0.0,10.0,70.0,178.0,24.0,1.0
324215,2.468536,-1.180005,-1.265975,0.007774,-0.049013,0.470883,0.0,10.0,70.0,178.0,24.0,1.0
324216,2.480321,-1.17585,-1.274755,-0.265196,0.016725999999999998,0.07706,0.0,10.0,70.0,178.0,24.0,1.0
324217,2.501237,-1.172187,-1.279387,-0.279184,0.118407,-0.023999,0.0,10.0,70.0,178.0,24.0,1.0
324218,2.552651,-1.154532,-1.248223,-0.132742,0.041342,-0.029087,0.0,10.0,70.0,178.0,24.0,1.0
324219,2.6350830000000003,-1.118679,-1.185841,0.056088,0.07034,-0.014913,0.0,10.0,70.0,178.0,24.0,1.0
324220,2.725243,-1.066472,-1.115316,0.098662,-0.017988,-0.407304,0.0,10.0,70.0,178.0,24.0,1.0
324221,2.792576,-1.001159,-1.051079,0.149491,-0.045038,-0.7094520000000001,0.0,10.0,70.0,178.0,24.0,1.0
324222,2.81928,-0.92878,-1.000049,0.149023,-0.20717,-0.556614,0.0,10.0,70.0,178.0,24.0,1.0
324223,2.824616,-0.8702139999999999,-0.96991,0.114266,-0.51758,-0.271961,0.0,10.0,70.0,178.0,24.0,1.0
324224,2.836453,-0.841491,-0.944758,0.0004969999999999999,-0.5225390000000001,-0.202256,0.0,10.0,70.0,178.0,24.0,1.0
324225,2.851217,-0.8349110000000001,-0.931296,0.116747,-0.269206,-0.134969,0.0,10.0,70.0,178.0,24.0,1.0
324226,2.8687970000000003,-0.840751,-0.925536,0.181117,-0.17783800000000002,-0.252324,0.0,10.0,70.0,178.0,24.0,1.0
324227,2.883042,-0.8560129999999999,-0.930397,0.394123,-0.072801,-0.382833,0.0,10.0,70.0,178.0,24.0,1.0
324228,2.87494,-0.8875799999999999,-0.948183,0.421012,0.030179,-0.322363,0.0,10.0,70.0,178.0,24.0,1.0
324229,2.825068,-0.924582,-0.980336,0.260414,0.108659,0.07425599999999999,0.0,10.0,70.0,178.0,24.0,1.0
324230,2.75722,-0.947873,-1.022298,-0.078153,-0.024746,0.623154,0.0,10.0,70.0,178.0,24.0,1.0
324231,2.697352,-0.971474,-1.072892,-0.294134,-0.13161099999999998,0.668855,0.0,10.0,70.0,178.0,24.0,1.0
324232,2.6412,-1.01135,-1.146837,-0.216683,-0.001205,-0.082551,0.0,10.0,70.0,178.0,24.0,1.0
324233,2.573939,-1.051688,-1.22249,0.08178300000000001,0.389963,-0.415954,0.0,10.0,70.0,178.0,24.0,1.0
324234,2.4858990000000003,-1.080453,-1.284051,0.402606,0.539063,-0.290024,0.0,10.0,70.0,178.0,24.0,1.0
324235,2.396398,-1.101571,-1.333434,0.406716,0.319538,-0.130781,0.0,10.0,70.0,178.0,24.0,1.0
324236,2.331764,-1.121536,-1.377446,0.237032,-0.31329,0.049704000000000005,0.0,10.0,70.0,178.0,24.0,1.0
324237,2.268889,-1.14168,-1.432733,0.248626,-0.396516,0.165821,0.0,10.0,70.0,178.0,24.0,1.0
324238,2.21135,-1.15858,-1.480802,0.033406,-0.504339,0.415645,0.0,10.0,70.0,178.0,24.0,1.0
324239,2.182249,-1.170228,-1.512051,-0.327259,-0.239595,-0.434611,0.0,10.0,70.0,178.0,24.0,1.0
324240,2.161139,-1.177826,-1.533666,-0.169062,-0.05317,-0.527802,0.0,10.0,70.0,178.0,24.0,1.0
324241,2.155371,-1.179151,-1.517117,-0.11966,0.076206,-0.344716,0.0,10.0,70.0,178.0,24.0,1.0
324242,2.195464,-1.182952,-1.468793,-0.352218,0.126413,0.034507,0.0,10.0,70.0,178.0,24.0,1.0
324243,2.231432,-1.20265,-1.451616,-0.329611,0.119143,0.034852999999999995,0.0,10.0,70.0,178.0,24.0,1.0
324244,2.286086,-1.212335,-1.409016,0.584105,1.097849,0.567086,0.0,10.0,70.0,178.0,24.0,1.0
324245,2.373961,-1.19042,-1.302668,0.17993299999999998,1.545764,0.656064,0.0,10.0,70.0,178.0,24.0,1.0
324246,2.431233,-1.204307,-1.256476,-0.018288,0.243838,-0.7976409999999999,0.0,10.0,70.0,178.0,24.0,1.0
324247,2.472265,-1.2009040000000002,-1.207915,-0.171165,-1.125268,-0.120401,0.0,10.0,70.0,178.0,24.0,1.0
324248,2.513657,-1.1798879999999998,-1.166057,0.017176,-0.362903,0.379945,0.0,10.0,70.0,178.0,24.0,1.0
324249,2.479279,-1.1688120000000002,-1.204708,0.326997,1.080415,0.454167,0.0,10.0,70.0,178.0,24.0,1.0
324250,2.478301,-1.1679959999999998,-1.230257,0.092788,1.18303,0.221282,0.0,10.0,70.0,178.0,24.0,1.0
324251,2.518545,-1.165886,-1.210226,-0.035752,0.114615,0.299021,0.0,10.0,70.0,178.0,24.0,1.0
324252,2.556265,-1.1621629999999998,-1.197549,-0.205254,-0.277238,-0.003164,0.0,10.0,70.0,178.0,24.0,1.0
324253,2.608259,-1.142424,-1.178093,-0.32553000000000004,-0.116735,0.013252000000000002,0.0,10.0,70.0,178.0,24.0,1.0
324254,2.683117,-1.1059450000000002,-1.137392,-0.217092,0.002001,-0.151526,0.0,10.0,70.0,178.0,24.0,1.0
324255,2.755013,-1.050637,-1.082398,0.03921,0.029675,-0.422992,0.0,10.0,70.0,178.0,24.0,1.0
324256,2.802729,-0.980599,-1.027671,0.16933,0.07635,-0.591579,0.0,10.0,70.0,178.0,24.0,1.0
324257,2.819813,-0.911453,-0.988383,0.396933,-0.161473,-0.6482100000000001,0.0,10.0,70.0,178.0,24.0,1.0
324258,2.824942,-0.859001,-0.965873,0.439521,-0.619983,-0.308059,0.0,10.0,70.0,178.0,24.0,1.0
324259,2.838278,-0.831767,-0.952232,0.093388,-0.202365,-0.13056199999999998,0.0,10.0,70.0,178.0,24.0,1.0
324260,2.854459,-0.827491,-0.948875,0.137102,-0.100982,-0.114191,0.0,10.0,70.0,178.0,24.0,1.0
324261,2.873529,-0.837327,-0.952763,0.165157,-0.11163,-0.1598,0.0,10.0,70.0,178.0,24.0,1.0
324262,2.884159,-0.8578620000000001,-0.965916,0.155471,-0.292014,-0.344591,0.0,10.0,70.0,178.0,24.0,1.0
324263,2.868429,-0.8864290000000001,-0.987773,0.178803,-0.296914,-0.314972,0.0,10.0,70.0,178.0,24.0,1.0
324264,2.821501,-0.918475,-1.0179790000000002,0.133446,-0.235229,-0.093738,0.0,10.0,70.0,178.0,24.0,1.0
324265,2.750114,-0.949674,-1.062946,-0.084148,-0.169519,0.236059,0.0,10.0,70.0,178.0,24.0,1.0
324266,2.668119,-0.980831,-1.1231209999999998,-0.30146300000000004,0.043857,0.455257,0.0,10.0,70.0,178.0,24.0,1.0
324267,2.578703,-1.021655,-1.206039,-0.195488,0.338387,0.14893,0.0,10.0,70.0,178.0,24.0,1.0
324268,2.488758,-1.066624,-1.299362,0.160832,0.677434,-0.2799,0.0,10.0,70.0,178.0,24.0,1.0
324269,2.400974,-1.1040370000000002,-1.366424,0.539226,0.454533,-0.212024,0.0,10.0,70.0,178.0,24.0,1.0
324270,2.313628,-1.131974,-1.412189,0.37104,-0.12742,0.091295,0.0,10.0,70.0,178.0,24.0,1.0
324271,2.2509740000000003,-1.151642,-1.445807,0.201917,-0.17036099999999998,0.226705,0.0,10.0,70.0,178.0,24.0,1.0
324272,2.217402,-1.177333,-1.469979,-0.165377,-0.263309,0.299692,0.0,10.0,70.0,178.0,24.0,1.0
324273,2.184784,-1.212755,-1.527004,-0.020481,-0.379944,-0.466435,0.0,10.0,70.0,178.0,24.0,1.0
324274,2.149203,-1.224602,-1.560501,0.239506,-0.289166,0.196874,0.0,10.0,70.0,178.0,24.0,1.0
324275,2.2199470000000003,-1.201771,-1.46432,-0.288382,0.209044,0.5649,0.0,10.0,70.0,178.0,24.0,1.0
324276,2.258339,-1.199786,-1.429582,-0.370984,0.127121,-0.363708,0.0,10.0,70.0,178.0,24.0,1.0
324277,2.246535,-1.224334,-1.459299,0.24423000000000006,0.438204,-0.682739,0.0,10.0,70.0,178.0,24.0,1.0
324278,2.3014900000000003,-1.225651,-1.404858,0.292054,1.460448,0.692635,0.0,10.0,70.0,178.0,24.0,1.0
324279,2.363634,-1.21889,-1.328416,-0.088293,0.407108,0.264724,0.0,10.0,70.0,178.0,24.0,1.0
324280,2.400054,-1.224619,-1.292132,0.067496,-0.423358,-0.463141,0.0,10.0,70.0,178.0,24.0,1.0
324281,2.406355,-1.21999,-1.279735,-0.190525,-1.023065,-0.173449,0.0,10.0,70.0,178.0,24.0,1.0
324282,2.41994,-1.201655,-1.269654,-0.091323,-0.030828,0.249601,0.0,10.0,70.0,178.0,24.0,1.0
324283,2.388301,-1.181966,-1.291349,0.128866,0.6325689999999999,0.456611,0.0,10.0,70.0,178.0,24.0,1.0
324284,2.3893,-1.178647,-1.298997,0.092757,0.16818,0.290963,0.0,10.0,70.0,178.0,24.0,1.0
324285,2.423852,-1.180513,-1.280963,-0.004879,-0.047802,0.308555,0.0,10.0,70.0,178.0,24.0,1.0
324286,2.477726,-1.173404,-1.2514040000000002,-0.109203,-0.168274,0.186384,0.0,10.0,70.0,178.0,24.0,1.0
324287,2.554016,-1.148486,-1.204989,-0.173707,-0.136677,-0.127681,0.0,10.0,70.0,178.0,24.0,1.0
324288,2.651686,-1.109356,-1.141424,-0.056774,-0.068905,-0.258903,0.0,10.0,70.0,178.0,24.0,1.0
324289,2.733215,-1.048742,-1.074108,0.031207,0.024561000000000003,-0.347845,0.0,10.0,70.0,178.0,24.0,1.0
324290,2.78588,-0.982468,-1.012557,0.3980530000000001,-0.155539,-0.439976,0.0,10.0,70.0,178.0,24.0,1.0
324291,2.811347,-0.927775,-0.974544,0.42571,-0.264781,-0.305885,0.0,10.0,70.0,178.0,24.0,1.0
324292,2.835537,-0.88402,-0.946056,0.394092,-0.24605700000000005,-0.188835,0.0,10.0,70.0,178.0,24.0,1.0
324293,2.859545,-0.8572559999999999,-0.925644,0.152202,0.341927,-0.113097,0.0,10.0,70.0,178.0,24.0,1.0
324294,2.883029,-0.8484790000000001,-0.907555,0.223032,0.21968,-0.09071,0.0,10.0,70.0,178.0,24.0,1.0
324295,2.895055,-0.8500209999999999,-0.898259,0.257838,0.077685,-0.029136,0.0,10.0,70.0,178.0,24.0,1.0
324296,2.890566,-0.860878,-0.8991709999999999,0.136625,-0.5590890000000001,-0.188558,0.0,10.0,70.0,178.0,24.0,1.0
324297,2.864818,-0.8789,-0.914529,0.056654,-0.505145,-0.199983,0.0,10.0,70.0,178.0,24.0,1.0
324298,2.816271,-0.904274,-0.948003,-0.06262100000000001,-0.495922,-0.194539,0.0,10.0,70.0,178.0,24.0,1.0
324299,2.749158,-0.935333,-1.002001,-0.098164,-0.5554680000000001,-0.064825,0.0,10.0,70.0,178.0,24.0,1.0
324300,2.663298,-0.969936,-1.081561,-0.149567,-0.405172,-0.026789,0.0,10.0,70.0,178.0,24.0,1.0
324301,2.551447,-1.000378,-1.178511,-0.141353,0.287231,-0.023199,0.0,10.0,70.0,178.0,24.0,1.0
324302,2.434876,-1.02653,-1.273239,0.141413,0.613701,-0.238744,0.0,10.0,70.0,178.0,24.0,1.0
324303,2.327598,-1.053395,-1.343041,0.278154,0.560244,-0.22752600000000006,0.0,10.0,70.0,178.0,24.0,1.0
324304,2.245101,-1.07486,-1.381209,0.488831,-0.101798,0.031257,0.0,10.0,70.0,178.0,24.0,1.0
324305,2.196211,-1.074975,-1.38598,0.18657,0.123626,0.462755,0.0,10.0,70.0,178.0,24.0,1.0
324306,2.218071,-1.0847950000000002,-1.358294,-0.021107,0.133462,0.334064,0.0,10.0,70.0,178.0,24.0,1.0
324307,2.203896,-1.132835,-1.401868,-0.280769,-0.809625,-0.364586,0.0,10.0,70.0,178.0,24.0,1.0
324308,2.166884,-1.149318,-1.434357,0.049898000000000005,-0.031763,0.07532,0.0,10.0,70.0,178.0,24.0,1.0
324309,2.221232,-1.130217,-1.36186,-0.233606,0.516897,0.273003,0.0,10.0,70.0,178.0,24.0,1.0
324310,2.224505,-1.141227,-1.373984,0.396321,1.460682,-0.036457,0.0,10.0,70.0,178.0,24.0,1.0
324311,2.26022,-1.144749,-1.352449,-0.269762,1.116997,0.388051,0.0,10.0,70.0,178.0,24.0,1.0
324312,2.364482,-1.13451,-1.266527,-0.191424,-0.380647,-0.437541,0.0,10.0,70.0,178.0,24.0,1.0
324313,2.372457,-1.133557,-1.234662,-0.21955,-0.704569,-0.476938,0.0,10.0,70.0,178.0,24.0,1.0
324314,2.378562,-1.133214,-1.216893,-0.330344,-0.551287,-0.242597,0.0,10.0,70.0,178.0,24.0,1.0
324315,2.347925,-1.134859,-1.234431,-0.003184,0.371297,0.08404500000000001,0.0,10.0,70.0,178.0,24.0,1.0
324316,2.300428,-1.140893,-1.260017,-0.016084,0.630422,0.104353,0.0,10.0,70.0,178.0,24.0,1.0
324317,2.276063,-1.146424,-1.278644,0.066018,0.14683800000000002,0.278674,0.0,10.0,70.0,178.0,24.0,1.0
324318,2.244119,-1.148687,-1.3015370000000002,-0.059126,-0.096797,0.26607800000000004,0.0,10.0,70.0,178.0,24.0,1.0
324319,2.215392,-1.145443,-1.326567,-0.221512,-0.078694,0.179001,0.0,10.0,70.0,178.0,24.0,1.0
324320,2.19063,-1.139712,-1.347828,-0.331419,-0.058126,0.080515,0.0,10.0,70.0,178.0,24.0,1.0
324321,2.1744830000000004,-1.130904,-1.354946,-0.375148,0.18001099999999998,0.08953,0.0,10.0,70.0,178.0,24.0,1.0
324322,2.180055,-1.113854,-1.33114,-0.350721,0.315363,0.32016700000000003,0.0,10.0,70.0,178.0,24.0,1.0
324323,2.196505,-1.096398,-1.301488,-0.31414699999999995,0.107518,-0.171798,0.0,10.0,70.0,178.0,24.0,1.0
324324,2.244351,-1.072972,-1.243967,-0.20939,0.16198,-0.239855,0.0,10.0,70.0,178.0,24.0,1.0
324325,2.316659,-1.0413629999999998,-1.155272,0.170416,0.236348,0.074241,0.0,10.0,70.0,178.0,24.0,1.0
324326,2.390647,-1.009787,-1.070553,0.211624,0.096,-0.248543,0.0,10.0,70.0,178.0,24.0,1.0
324327,2.457231,-0.983939,-0.99957,0.268881,0.043276,-0.414355,0.0,10.0,70.0,178.0,24.0,1.0
324328,2.508876,-0.96516,-0.937302,0.285772,0.253894,-0.336885,0.0,10.0,70.0,178.0,24.0,1.0
324329,2.562549,-0.949353,-0.872151,0.109782,1.553156,-0.048923,0.0,10.0,70.0,178.0,24.0,1.0
324330,2.610262,-0.943658,-0.801917,0.159136,1.583356,-0.162884,0.0,10.0,70.0,178.0,24.0,1.0
324331,2.64626,-0.952075,-0.742326,0.102264,0.455048,-0.353781,0.0,10.0,70.0,178.0,24.0,1.0
324332,2.662423,-0.961493,-0.688276,0.17265999999999998,-0.082467,-0.325202,0.0,10.0,70.0,178.0,24.0,1.0
324333,2.66341,-0.968548,-0.635074,0.165653,-0.10475,-0.292022,0.0,10.0,70.0,178.0,24.0,1.0
324334,2.662757,-0.975995,-0.579919,0.062125,-0.067884,-0.271835,0.0,10.0,70.0,178.0,24.0,1.0
324335,2.656153,-0.98165,-0.5286420000000001,0.16436900000000002,-0.267191,-0.371056,0.0,10.0,70.0,178.0,24.0,1.0
324336,2.639064,-0.979091,-0.4830060000000001,0.227877,-0.284642,-0.359856,0.0,10.0,70.0,178.0,24.0,1.0
324337,2.6092,-0.96985,-0.4446640000000001,0.269304,-0.272235,-0.318684,0.0,10.0,70.0,178.0,24.0,1.0
324338,2.570012,-0.957418,-0.41552,0.230342,-0.27420500000000003,-0.219096,0.0,10.0,70.0,178.0,24.0,1.0
324339,2.532513,-0.946649,-0.394755,0.177699,-0.296035,-0.040647,0.0,10.0,70.0,178.0,24.0,1.0
324340,2.498529,-0.940355,-0.384356,0.137371,-0.284925,0.037147,0.0,10.0,70.0,178.0,24.0,1.0
324341,2.466746,-0.937439,-0.381548,-0.097662,-0.122558,0.0101,0.0,10.0,70.0,178.0,24.0,1.0
324342,2.438391,-0.935809,-0.379805,-0.165877,-0.111369,-0.023644,0.0,10.0,70.0,178.0,24.0,1.0
324343,2.409972,-0.933364,-0.376202,-0.2367,-0.059715,-0.013827,0.0,10.0,70.0,178.0,24.0,1.0
324344,2.379317,-0.92955,-0.367898,-0.223529,0.247691,0.179458,0.0,10.0,70.0,178.0,24.0,1.0
324345,2.347893,-0.927029,-0.35383600000000004,-0.210785,0.354914,0.184781,0.0,10.0,70.0,178.0,24.0,1.0
324346,2.321765,-0.924435,-0.328059,-0.013799,0.381666,0.302035,0.0,10.0,70.0,178.0,24.0,1.0
324347,2.311718,-0.923791,-0.287536,-0.13187100000000002,0.160115,0.190668,0.0,10.0,70.0,178.0,24.0,1.0
324348,2.312987,-0.929846,-0.243215,-0.219568,0.027223,0.110583,0.0,10.0,70.0,178.0,24.0,1.0
324349,2.317483,-0.939516,-0.202882,-0.132295,-0.144431,-0.116793,0.0,10.0,70.0,178.0,24.0,1.0
324350,2.3090330000000003,-0.948561,-0.177627,0.220475,0.167159,-0.337635,0.0,10.0,70.0,178.0,24.0,1.0
324351,2.291111,-0.963853,-0.172204,0.368413,0.298829,-0.447292,0.0,10.0,70.0,178.0,24.0,1.0
324352,2.283175,-0.981034,-0.171577,0.444133,0.6603359999999999,-0.09712,0.0,10.0,70.0,178.0,24.0,1.0
324353,2.295754,-0.98073,-0.145628,0.044436,0.093153,0.244463,0.0,10.0,70.0,178.0,24.0,1.0
324354,2.33126,-0.968087,-0.101919,-0.073989,-0.227261,0.106169,0.0,10.0,70.0,178.0,24.0,1.0
324355,2.335285,-0.963111,-0.094264,-0.10027,-0.797992,-0.5083439999999999,0.0,10.0,70.0,178.0,24.0,1.0
324356,2.298351,-0.964282,-0.115066,-0.330935,0.197067,-0.489915,0.0,10.0,70.0,178.0,24.0,1.0
324357,2.2662310000000003,-0.970962,-0.131313,-0.679059,1.343577,-0.494467,0.0,10.0,70.0,178.0,24.0,1.0
324358,2.24421,-0.987917,-0.138142,-0.509151,0.806415,-0.580687,0.0,10.0,70.0,178.0,24.0,1.0
324359,2.220885,-1.00891,-0.13209,-0.264072,0.053941,-0.32593,0.0,10.0,70.0,178.0,24.0,1.0
324360,2.172834,-1.026949,-0.12551500000000002,-0.031342,-0.19627,-0.341385,0.0,10.0,70.0,178.0,24.0,1.0
324361,2.113021,-1.035795,-0.122186,0.167451,-0.109231,-0.25453600000000004,0.0,10.0,70.0,178.0,24.0,1.0
324362,2.057587,-1.037326,-0.120826,0.30801300000000004,-0.123743,-0.061336,0.0,10.0,70.0,178.0,24.0,1.0
324363,2.011572,-1.032584,-0.120527,0.409033,-0.190154,0.129435,0.0,10.0,70.0,178.0,24.0,1.0
324364,1.966241,-1.028166,-0.129405,0.141037,-0.15783699999999998,0.089898,0.0,10.0,70.0,178.0,24.0,1.0
324365,1.919463,-1.024424,-0.14899500000000002,-0.115976,0.07251,-0.050744,0.0,10.0,70.0,178.0,24.0,1.0
324366,1.879959,-1.024316,-0.170104,-0.280271,0.151119,-0.122351,0.0,10.0,70.0,178.0,24.0,1.0
324367,1.845801,-1.024706,-0.186571,-0.270963,0.115119,-0.041007,0.0,10.0,70.0,178.0,24.0,1.0
324368,1.816223,-1.025527,-0.199172,-0.210697,0.033333,0.07798,0.0,10.0,70.0,178.0,24.0,1.0
324369,1.786299,-1.02644,-0.212936,-0.17437,-0.021049,0.123697,0.0,10.0,70.0,178.0,24.0,1.0
324370,1.751214,-1.02613,-0.23027,-0.267575,0.033951,0.117644,0.0,10.0,70.0,178.0,24.0,1.0
324371,1.717654,-1.0247700000000002,-0.249227,-0.27712800000000004,0.132176,0.038911,0.0,10.0,70.0,178.0,24.0,1.0
324372,1.687872,-1.023533,-0.270421,-0.221481,0.11872,0.046015,0.0,10.0,70.0,178.0,24.0,1.0
324373,1.66033,-1.022506,-0.29318,-0.22664,0.124702,0.064083,0.0,10.0,70.0,178.0,24.0,1.0
324374,1.649102,-1.027281,-0.305087,-0.1876,0.131409,-0.042361,0.0,10.0,70.0,178.0,24.0,1.0
324375,1.633407,-1.033883,-0.321066,-0.121424,0.03852,-0.145818,0.0,10.0,70.0,178.0,24.0,1.0
324376,1.606524,-1.037463,-0.340387,-0.115391,0.032041,-0.085802,0.0,10.0,70.0,178.0,24.0,1.0
324377,1.585727,-1.040266,-0.349973,-0.076029,0.14242,-0.038164,0.0,10.0,70.0,178.0,24.0,1.0
324378,1.566529,-1.044972,-0.351791,0.001852,0.283374,-0.0348,0.0,10.0,70.0,178.0,24.0,1.0
324379,1.545444,-1.039864,-0.353111,-0.154959,0.459594,0.11272,0.0,10.0,70.0,178.0,24.0,1.0
324380,1.537257,-1.037057,-0.352095,-0.312985,0.427389,0.017594,0.0,10.0,70.0,178.0,24.0,1.0
324381,1.533766,-1.037526,-0.345009,-0.263462,0.373623,0.063162,0.0,10.0,70.0,178.0,24.0,1.0
324382,1.547593,-1.041279,-0.316637,-0.227831,0.354051,0.054154,0.0,10.0,70.0,178.0,24.0,1.0
324383,1.5859219999999998,-1.047849,-0.257922,-0.155944,0.35630500000000004,0.18016,0.0,10.0,70.0,178.0,24.0,1.0
324384,1.648405,-1.053754,-0.169414,-0.14871700000000002,0.284935,0.175848,0.0,10.0,70.0,178.0,24.0,1.0
324385,1.740666,-1.054276,-0.052111000000000005,-0.15323299999999998,0.100092,0.130715,0.0,10.0,70.0,178.0,24.0,1.0
324386,1.853114,-1.04725,0.076974,-0.14238900000000002,0.042228,-0.183131,0.0,10.0,70.0,178.0,24.0,1.0
324387,1.959463,-1.0348540000000002,0.195154,-0.124857,0.056457000000000014,-0.482818,0.0,10.0,70.0,178.0,24.0,1.0
324388,2.050689,-1.020613,0.301587,-0.078709,0.309299,-0.421577,0.0,10.0,70.0,178.0,24.0,1.0
324389,2.131379,-1.006535,0.403885,-0.040458,0.5331899999999999,-0.325716,0.0,10.0,70.0,178.0,24.0,1.0
324390,2.202481,-0.99527,0.502831,-0.051488,0.603065,-0.223021,0.0,10.0,70.0,178.0,24.0,1.0
324391,2.269157,-0.98642,0.596176,-0.05259,0.402241,-0.35488800000000004,0.0,10.0,70.0,178.0,24.0,1.0
324392,2.326981,-0.981709,0.682135,-0.042601,0.10846300000000003,-0.43388,0.0,10.0,70.0,178.0,24.0,1.0
324393,2.374294,-0.978445,0.765944,0.015763,-0.010203,-0.5083989999999999,0.0,10.0,70.0,178.0,24.0,1.0
324394,2.414626,-0.972573,0.854999,0.11363,-0.186109,-0.34378400000000003,0.0,10.0,70.0,178.0,24.0,1.0
324395,2.4472270000000003,-0.965004,0.940269,0.094699,-0.16484,-0.289082,0.0,10.0,70.0,178.0,24.0,1.0
324396,2.469051,-0.959126,1.015389,0.038861,-0.151713,-0.326397,0.0,10.0,70.0,178.0,24.0,1.0
324397,2.47816,-0.95386,1.079742,-0.087353,-0.12672,-0.403279,0.0,10.0,70.0,178.0,24.0,1.0
324398,2.475342,-0.948181,1.136834,-0.087297,-0.187234,-0.365564,0.0,10.0,70.0,178.0,24.0,1.0
324399,2.459094,-0.944007,1.180649,-0.01166,-0.274194,-0.27887,0.0,10.0,70.0,178.0,24.0,1.0
324400,2.430952,-0.94324,1.207013,0.04081,-0.297441,-0.17976199999999998,0.0,10.0,70.0,178.0,24.0,1.0
324401,2.392751,-0.947397,1.214896,0.048177,-0.278986,-0.146029,0.0,10.0,70.0,178.0,24.0,1.0
324402,2.348051,-0.955264,1.209334,0.013601,-0.118957,-0.048033,0.0,10.0,70.0,178.0,24.0,1.0
324403,2.298186,-0.964407,1.197042,-0.065694,-0.027751,0.022796,0.0,10.0,70.0,178.0,24.0,1.0
324404,2.241853,-0.970881,1.181959,-0.092494,0.08079,0.14558800000000002,0.0,10.0,70.0,178.0,24.0,1.0
324405,2.1874740000000004,-0.974421,1.171981,-0.044524,0.24830700000000006,0.21400500000000006,0.0,10.0,70.0,178.0,24.0,1.0
324406,2.153302,-0.972421,1.180325,-0.051577,0.4521600000000001,0.321438,0.0,10.0,70.0,178.0,24.0,1.0
324407,2.1506990000000004,-0.96829,1.219818,-0.197399,0.310268,0.474269,0.0,10.0,70.0,178.0,24.0,1.0
324408,2.170799,-0.971076,1.264294,-0.33034,-0.150491,0.318335,0.0,10.0,70.0,178.0,24.0,1.0
324409,2.19351,-0.982037,1.292875,-0.374291,-0.244564,-0.159916,0.0,10.0,70.0,178.0,24.0,1.0
324410,2.206345,-0.99225,1.318223,-0.251498,0.005454,-0.474295,0.0,10.0,70.0,178.0,24.0,1.0
324411,2.20254,-1.00578,1.335718,-0.032229,0.554773,-0.611866,0.0,10.0,70.0,178.0,24.0,1.0
324412,2.189997,-1.0268,1.336934,0.39755,0.828542,-0.53004,0.0,10.0,70.0,178.0,24.0,1.0
324413,2.200109,-1.037572,1.355309,0.264224,0.426715,-0.006688,0.0,10.0,70.0,178.0,24.0,1.0
324414,2.233318,-1.033075,1.40711,0.131641,-0.201102,0.010352,0.0,10.0,70.0,178.0,24.0,1.0
324415,2.211777,-1.035065,1.411724,0.243736,-0.98958,-0.308574,0.0,10.0,70.0,178.0,24.0,1.0
324416,2.145555,-1.035862,1.371039,-0.072278,-0.03973,-0.033571,0.0,10.0,70.0,178.0,24.0,1.0
324417,2.113586,-1.029595,1.345448,-0.248581,0.8996540000000001,-0.491374,0.0,10.0,70.0,178.0,24.0,1.0
324418,2.083197,-1.028928,1.3383459999999998,-0.327258,0.513309,-0.255213,0.0,10.0,70.0,178.0,24.0,1.0
324419,2.056022,-1.033628,1.340815,-0.182019,0.103089,0.089022,0.0,10.0,70.0,178.0,24.0,1.0
324420,2.020729,-1.040542,1.333776,-0.18518,0.026482,-0.112835,0.0,10.0,70.0,178.0,24.0,1.0
324421,1.98197,-1.045533,1.323899,-0.143326,-0.027363,-0.117668,0.0,10.0,70.0,178.0,24.0,1.0
324422,1.942262,-1.05147,1.309682,0.023079,-0.123113,0.029985,0.0,10.0,70.0,178.0,24.0,1.0
324423,1.903851,-1.057146,1.289483,0.022021,-0.109924,0.02564,0.0,10.0,70.0,178.0,24.0,1.0
324424,1.866227,-1.060109,1.269855,-0.011527,-0.067599,0.024929,0.0,10.0,70.0,178.0,24.0,1.0
324425,1.833252,-1.061858,1.253331,-0.14083199999999998,0.039961,0.008227,0.0,10.0,70.0,178.0,24.0,1.0
324426,1.810763,-1.062685,1.242009,-0.168794,0.037651,0.002975,0.0,10.0,70.0,178.0,24.0,1.0
324427,1.799752,-1.062843,1.2386620000000002,-0.207884,0.013587,0.019615,0.0,10.0,70.0,178.0,24.0,1.0
324428,1.800444,-1.061949,1.246677,-0.365886,-0.072327,0.176015,0.0,10.0,70.0,178.0,24.0,1.0
324429,1.817653,-1.061963,1.26531,-0.391743,-0.139915,0.193018,0.0,10.0,70.0,178.0,24.0,1.0
324430,1.847783,-1.062718,1.300164,-0.307764,-0.193993,0.4401600000000001,0.0,10.0,70.0,178.0,24.0,1.0
324431,1.876299,-1.064435,1.329206,-0.451718,-0.125171,0.435884,0.0,10.0,70.0,178.0,24.0,1.0
324432,1.918405,-1.0683,1.346452,-0.315919,-0.154947,-0.18881,0.0,10.0,70.0,178.0,24.0,1.0
324433,1.97207,-1.066822,1.3820290000000002,-0.14146,-0.4122,-0.047917,0.0,10.0,70.0,178.0,24.0,1.0
324434,2.011605,-1.058294,1.422142,-0.180648,-0.32843,-0.012046,0.0,10.0,70.0,178.0,24.0,1.0
324435,2.037785,-1.051663,1.446135,-0.219721,-0.041345,-0.11961,0.0,10.0,70.0,178.0,24.0,1.0
324436,2.063641,-1.047283,1.466306,-0.095257,0.206441,-0.021549,0.0,10.0,70.0,178.0,24.0,1.0
324437,2.079584,-1.044516,1.477001,-0.106828,0.262149,-0.012098,0.0,10.0,70.0,178.0,24.0,1.0
324438,2.08428,-1.044743,1.478743,-0.213062,0.340908,0.013041,0.0,10.0,70.0,178.0,24.0,1.0
324439,2.09316,-1.044694,1.485522,-0.313597,0.337591,-0.025903,0.0,10.0,70.0,178.0,24.0,1.0
324440,2.129047,-1.038311,1.521607,-0.315608,0.31878,0.092734,0.0,10.0,70.0,178.0,24.0,1.0
324441,2.196073,-1.022822,1.591416,-0.163083,0.257075,0.14246199999999998,0.0,10.0,70.0,178.0,24.0,1.0
324442,2.28103,-0.998099,1.676977,0.111117,0.33453,0.147807,0.0,10.0,70.0,178.0,24.0,1.0
324443,2.383021,-0.962498,1.781843,0.325585,0.344493,-0.119418,0.0,10.0,70.0,178.0,24.0,1.0
324444,2.474686,-0.923891,1.882252,0.325427,0.08615700000000001,-0.333776,0.0,10.0,70.0,178.0,24.0,1.0
324445,2.538528,-0.888034,1.962203,0.095034,-0.225234,-0.460892,0.0,10.0,70.0,178.0,24.0,1.0
324446,2.574126,-0.861202,2.0185720000000003,-0.233568,-0.387365,-0.15238800000000002,0.0,10.0,70.0,178.0,24.0,1.0
324447,2.599698,-0.8463069999999999,2.051006,-0.057426,0.015765,-0.061406,0.0,10.0,70.0,178.0,24.0,1.0
324448,2.632453,-0.844584,2.066657,0.16188,0.354585,-0.104046,0.0,10.0,70.0,178.0,24.0,1.0
324449,2.647482,-0.8571549999999999,2.072202,0.191745,0.385633,-0.081648,0.0,10.0,70.0,178.0,24.0,1.0
324450,2.645698,-0.87623,2.074105,0.17247300000000002,-0.148687,-0.147149,0.0,10.0,70.0,178.0,24.0,1.0
324451,2.626863,-0.902579,2.064026,0.085436,-0.426071,-0.179088,0.0,10.0,70.0,178.0,24.0,1.0
324452,2.589641,-0.934174,2.036577,-0.003366,-0.505143,-0.215521,0.0,10.0,70.0,178.0,24.0,1.0
324453,2.536557,-0.966695,1.993778,-0.142482,-0.514877,-0.007881,0.0,10.0,70.0,178.0,24.0,1.0
324454,2.459524,-0.996671,1.922496,-0.255363,-0.545219,0.239054,0.0,10.0,70.0,178.0,24.0,1.0
324455,2.356967,-1.022234,1.810358,-0.229067,-0.326542,0.080071,0.0,10.0,70.0,178.0,24.0,1.0
324456,2.233821,-1.0320790000000002,1.6810770000000002,-0.113567,0.412446,-0.227883,0.0,10.0,70.0,178.0,24.0,1.0
324457,2.121336,-1.030742,1.5922690000000002,0.316845,1.218842,-0.361552,0.0,10.0,70.0,178.0,24.0,1.0
324458,2.031982,-1.036972,1.557288,0.12546400000000002,0.121417,0.199074,0.0,10.0,70.0,178.0,24.0,1.0
324459,1.964316,-1.051884,1.53899,-0.225497,-0.769559,0.365534,0.0,10.0,70.0,178.0,24.0,1.0
324460,1.91575,-1.07368,1.502336,-0.549534,-1.191965,0.42521,0.0,10.0,70.0,178.0,24.0,1.0
324461,1.87738,-1.100316,1.438979,-0.716001,-0.984689,-0.024704,0.0,10.0,70.0,178.0,24.0,1.0
324462,1.854177,-1.1079290000000002,1.410208,-0.179832,0.066101,-0.382948,0.0,10.0,70.0,178.0,24.0,1.0
324463,1.884932,-1.10271,1.460143,0.13264,1.11309,0.101572,0.0,10.0,70.0,178.0,24.0,1.0
324464,1.922468,-1.105889,1.506861,-0.439559,1.289319,0.134824,0.0,10.0,70.0,178.0,24.0,1.0
324465,1.965075,-1.131702,1.530772,-0.414976,0.308196,-0.072546,0.0,10.0,70.0,178.0,24.0,1.0
324466,1.979277,-1.149747,1.544973,0.282489,-0.220415,-0.063898,0.0,10.0,70.0,178.0,24.0,1.0
324467,1.980389,-1.142806,1.574743,0.474363,1.853275,0.445923,0.0,10.0,70.0,178.0,24.0,1.0
324468,2.017503,-1.14345,1.591961,0.071924,0.7325699999999999,-0.327054,0.0,10.0,70.0,178.0,24.0,1.0
324469,2.039632,-1.152806,1.605864,-0.116148,0.003421,-0.278721,0.0,10.0,70.0,178.0,24.0,1.0
324470,2.100681,-1.147446,1.657556,-0.51448,-0.320348,0.23244,0.0,10.0,70.0,178.0,24.0,1.0
324471,2.143893,-1.136759,1.687666,-0.40368,0.440457,0.647094,0.0,10.0,70.0,178.0,24.0,1.0
324472,2.20087,-1.129573,1.721559,-0.289485,0.657278,0.389712,0.0,10.0,70.0,178.0,24.0,1.0
324473,2.305839,-1.10878,1.80867,0.204666,-0.15038900000000002,-0.012963,0.0,10.0,70.0,178.0,24.0,1.0
324474,2.428011,-1.066262,1.913682,0.279069,-0.328998,-0.117823,0.0,10.0,70.0,178.0,24.0,1.0
324475,2.531254,-1.008299,1.994258,0.283425,-0.450342,-0.242463,0.0,10.0,70.0,178.0,24.0,1.0
324476,2.5933490000000003,-0.93982,2.050646,0.141433,0.017957,-0.520011,0.0,10.0,70.0,178.0,24.0,1.0
324477,2.617302,-0.874901,2.087269,0.224186,0.097358,-0.264281,0.0,10.0,70.0,178.0,24.0,1.0
324478,2.647197,-0.836101,2.108332,0.259292,0.076813,-0.034056,0.0,10.0,70.0,178.0,24.0,1.0
324479,2.674027,-0.816178,2.119332,0.011646,0.07763400000000001,-0.144565,0.0,10.0,70.0,178.0,24.0,1.0
324480,2.69296,-0.8096300000000001,2.123502,0.049841,0.107907,-0.100417,0.0,10.0,70.0,178.0,24.0,1.0
324481,2.706624,-0.815421,2.117297,0.176786,-0.101061,-0.139925,0.0,10.0,70.0,178.0,24.0,1.0
324482,2.70433,-0.8324590000000001,2.099319,0.156683,-0.357402,-0.288014,0.0,10.0,70.0,178.0,24.0,1.0
324483,2.67475,-0.8587049999999999,2.069266,-0.135787,-0.3807,-0.181609,0.0,10.0,70.0,178.0,24.0,1.0
324484,2.6114900000000003,-0.8908530000000001,2.02457,-0.230413,-0.399908,-0.12514,0.0,10.0,70.0,178.0,24.0,1.0
324485,2.525097,-0.9194,1.962048,-0.361609,-0.500484,0.14841700000000002,0.0,10.0,70.0,178.0,24.0,1.0
324486,2.426075,-0.946008,1.873853,-0.404267,-0.390036,0.391613,0.0,10.0,70.0,178.0,24.0,1.0
324487,2.316632,-0.97985,1.75707,-0.051796,0.4222260000000001,-0.213884,0.0,10.0,70.0,178.0,24.0,1.0
324488,2.21979,-1.010882,1.655909,0.458278,1.039418,-0.366771,0.0,10.0,70.0,178.0,24.0,1.0
324489,2.140855,-1.039127,1.601791,0.5269189999999999,0.7656930000000001,-0.249798,0.0,10.0,70.0,178.0,24.0,1.0
324490,2.070533,-1.0605440000000002,1.579341,-0.001115,-0.292589,0.14719000000000002,0.0,10.0,70.0,178.0,24.0,1.0
324491,2.048201,-1.086303,1.583715,-0.416075,-0.35575100000000004,0.172502,0.0,10.0,70.0,178.0,24.0,1.0
324492,2.041003,-1.123033,1.582446,-0.454412,-0.489186,0.32265900000000003,0.0,10.0,70.0,178.0,24.0,1.0
324493,2.025228,-1.140457,1.564453,0.092556,-0.164073,0.342317,0.0,10.0,70.0,178.0,24.0,1.0
324494,2.091076,-1.126275,1.627828,0.184038,0.416886,0.35432600000000003,0.0,10.0,70.0,178.0,24.0,1.0
324495,2.11518,-1.126934,1.642454,0.052357000000000015,0.643501,-0.687804,0.0,10.0,70.0,178.0,24.0,1.0
324496,2.10967,-1.141579,1.61891,0.26124400000000003,0.725993,0.255971,0.0,10.0,70.0,178.0,24.0,1.0
324497,2.186827,-1.125661,1.707943,0.238753,1.133397,0.7985770000000001,0.0,10.0,70.0,178.0,24.0,1.0
324498,2.231779,-1.126849,1.744604,-0.043345,-0.29777800000000004,-0.384091,0.0,10.0,70.0,178.0,24.0,1.0
324499,2.249814,-1.1274030000000002,1.761062,-0.345518,-0.596584,-0.201463,0.0,10.0,70.0,178.0,24.0,1.0
324500,2.25795,-1.129276,1.7677470000000002,-0.5066189999999999,-0.438618,0.091687,0.0,10.0,70.0,178.0,24.0,1.0
324501,2.241112,-1.126775,1.745063,0.037859,0.436126,0.314496,0.0,10.0,70.0,178.0,24.0,1.0
324502,2.2187900000000003,-1.121889,1.7141540000000002,0.14213499999999998,0.794574,0.11948,0.0,10.0,70.0,178.0,24.0,1.0
324503,2.225516,-1.116738,1.710738,-0.192216,0.444008,0.392702,0.0,10.0,70.0,178.0,24.0,1.0
324504,2.260412,-1.112287,1.725023,-0.279472,-0.015701,0.285914,0.0,10.0,70.0,178.0,24.0,1.0
324505,2.312037,-1.102201,1.745737,-0.259803,-0.239753,-0.016963,0.0,10.0,70.0,178.0,24.0,1.0
324506,2.390711,-1.075121,1.799432,-0.246446,-0.106439,-0.13094,0.0,10.0,70.0,178.0,24.0,1.0
324507,2.487871,-1.030101,1.879699,-0.085797,0.152048,-0.19216,0.0,10.0,70.0,178.0,24.0,1.0
324508,2.569083,-0.9683,1.965412,0.237337,0.280569,-0.341463,0.0,10.0,70.0,178.0,24.0,1.0
324509,2.622491,-0.905596,2.038945,0.468946,0.092723,-0.456301,0.0,10.0,70.0,178.0,24.0,1.0
324510,2.651902,-0.854835,2.086278,0.422322,-0.080802,-0.5038590000000001,0.0,10.0,70.0,178.0,24.0,1.0
324511,2.674844,-0.8215600000000001,2.115314,-0.002306,-0.262361,-0.044582,0.0,10.0,70.0,178.0,24.0,1.0
324512,2.696604,-0.807918,2.129362,-0.1848,-0.0993,-0.211691,0.0,10.0,70.0,178.0,24.0,1.0
324513,2.714621,-0.806094,2.132407,-0.031284,-0.044495,-0.170511,0.0,10.0,70.0,178.0,24.0,1.0
324514,2.7307650000000003,-0.819051,2.128507,0.2092,-0.093764,-0.14902200000000002,0.0,10.0,70.0,178.0,24.0,1.0
324515,2.725687,-0.846777,2.113006,0.159457,-0.195362,-0.18619,0.0,10.0,70.0,178.0,24.0,1.0
324516,2.6838610000000003,-0.8799,2.083041,0.082262,-0.202057,-0.119921,0.0,10.0,70.0,178.0,24.0,1.0
324517,2.614687,-0.911049,2.038777,-0.017988,-0.26452800000000004,-0.033048,0.0,10.0,70.0,178.0,24.0,1.0
324518,2.536361,-0.940444,1.978993,-0.390668,-0.394612,0.194335,0.0,10.0,70.0,178.0,24.0,1.0
324519,2.454726,-0.972183,1.893014,-0.366034,-0.321708,0.138352,0.0,10.0,70.0,178.0,24.0,1.0
324520,2.365063,-1.003474,1.7885,-0.291741,-0.185567,-0.040241000000000006,0.0,10.0,70.0,178.0,24.0,1.0
324521,2.267178,-1.0248540000000002,1.701612,0.319933,0.686469,-0.240965,0.0,10.0,70.0,178.0,24.0,1.0
324522,2.159387,-1.03949,1.64155,0.368336,0.6056729999999999,-0.003992,0.0,10.0,70.0,178.0,24.0,1.0
324523,2.074902,-1.0448110000000002,1.6048870000000002,0.376737,0.394737,0.299637,0.0,10.0,70.0,178.0,24.0,1.0
324524,2.026181,-1.057582,1.56277,0.187797,-0.190186,0.403221,0.0,10.0,70.0,178.0,24.0,1.0
324525,1.973295,-1.083801,1.491163,0.177308,-0.231399,0.259254,0.0,10.0,70.0,178.0,24.0,1.0
324526,1.924315,-1.105515,1.423976,0.096378,-0.248401,0.149174,0.0,10.0,70.0,178.0,24.0,1.0
324527,1.904117,-1.112393,1.3838469999999998,0.248239,-0.188051,-0.185585,0.0,10.0,70.0,178.0,24.0,1.0
324528,1.908573,-1.107181,1.399068,-0.024132,-0.069765,0.088548,0.0,10.0,70.0,178.0,24.0,1.0
324529,1.965177,-1.09989,1.46539,-0.223597,0.080553,0.479087,0.0,10.0,70.0,178.0,24.0,1.0
324530,2.006615,-1.109633,1.479159,-0.525034,-0.172665,-0.440645,0.0,10.0,70.0,178.0,24.0,1.0
324531,2.025944,-1.120946,1.462433,-0.361156,-0.143173,-0.817994,0.0,10.0,70.0,178.0,24.0,1.0
324532,2.061902,-1.127848,1.487537,0.29180900000000004,1.200146,0.767171,0.0,10.0,70.0,178.0,24.0,1.0
324533,2.101091,-1.127613,1.543667,0.149063,1.797018,1.277558,0.0,10.0,70.0,178.0,24.0,1.0
324534,2.150557,-1.152346,1.574319,-0.481696,0.488105,-0.443687,0.0,10.0,70.0,178.0,24.0,1.0
324535,2.167354,-1.170443,1.598823,-0.212558,-0.8642059999999999,-0.285376,0.0,10.0,70.0,178.0,24.0,1.0
324536,2.189905,-1.172071,1.637586,-0.348103,-0.8606590000000001,0.122418,0.0,10.0,70.0,178.0,24.0,1.0
324537,2.16629,-1.167159,1.6198,-0.049965,0.160134,0.557372,0.0,10.0,70.0,178.0,24.0,1.0
324538,2.132282,-1.15464,1.586451,0.341385,1.124733,0.198276,0.0,10.0,70.0,178.0,24.0,1.0
324539,2.114412,-1.151926,1.5582280000000002,0.179052,0.293955,0.053834,0.0,10.0,70.0,178.0,24.0,1.0
324540,2.106476,-1.156408,1.5358,-0.194632,-0.204684,0.228159,0.0,10.0,70.0,178.0,24.0,1.0
324541,2.096412,-1.1600469999999998,1.506037,-0.393628,0.01253,0.200336,0.0,10.0,70.0,178.0,24.0,1.0
324542,2.09998,-1.16004,1.491252,-0.528185,0.351461,-0.037851,0.0,10.0,70.0,178.0,24.0,1.0
324543,2.134235,-1.153887,1.522444,-0.286234,0.28962,0.06821100000000001,0.0,10.0,70.0,178.0,24.0,1.0
324544,2.201715,-1.138242,1.588809,0.027936,0.22763000000000005,0.15806099999999998,0.0,10.0,70.0,178.0,24.0,1.0
324545,2.2886,-1.109139,1.677416,0.095266,0.207849,0.07935700000000001,0.0,10.0,70.0,178.0,24.0,1.0
324546,2.387478,-1.073799,1.772363,0.137485,0.151759,-1.4e-05,0.0,10.0,70.0,178.0,24.0,1.0
324547,2.49008,-1.030259,1.872219,0.162977,0.000951,-0.269417,0.0,10.0,70.0,178.0,24.0,1.0
324548,2.569841,-0.978106,1.957635,0.25508600000000003,-0.17226,-0.284325,0.0,10.0,70.0,178.0,24.0,1.0
324549,2.620567,-0.924588,2.017545,0.226676,-0.172869,-0.410122,0.0,10.0,70.0,178.0,24.0,1.0
324550,2.652661,-0.882576,2.059604,-0.040786,-0.422371,-0.214108,0.0,10.0,70.0,178.0,24.0,1.0
324551,2.681388,-0.854625,2.088913,-0.180625,-0.304419,-0.277635,0.0,10.0,70.0,178.0,24.0,1.0
324552,2.706169,-0.836672,2.102084,0.272983,-0.004488000000000001,-0.003709000000000001,0.0,10.0,70.0,178.0,24.0,1.0
324553,2.730815,-0.8434790000000001,2.1016060000000003,0.4901970000000001,0.021975,0.106785,0.0,10.0,70.0,178.0,24.0,1.0
324554,2.726942,-0.863157,2.085739,-0.036966000000000006,-0.248088,-0.210384,0.0,10.0,70.0,178.0,24.0,1.0
324555,2.699748,-0.8809600000000001,2.061254,-0.106635,-0.36037,-0.07923999999999999,0.0,10.0,70.0,178.0,24.0,1.0
324556,2.655106,-0.905058,2.026297,-0.238603,-0.490761,-0.048861,0.0,10.0,70.0,178.0,24.0,1.0
324557,2.593527,-0.93081,1.976689,-0.507091,-0.769374,-0.050728,0.0,10.0,70.0,178.0,24.0,1.0
324558,2.520699,-0.964936,1.901257,-0.445886,-0.684821,-0.132963,0.0,10.0,70.0,178.0,24.0,1.0
324559,2.418279,-0.995415,1.799664,-0.366216,-0.5176649999999999,-0.21903000000000006,0.0,10.0,70.0,178.0,24.0,1.0
324560,2.291304,-1.011628,1.6983119999999998,0.378218,0.984777,-0.301819,0.0,10.0,70.0,178.0,24.0,1.0
324561,2.1520490000000003,-1.022465,1.618963,0.55206,1.189162,-0.075928,0.0,10.0,70.0,178.0,24.0,1.0
324562,2.045233,-1.028114,1.574575,0.63912,0.923779,0.357612,0.0,10.0,70.0,178.0,24.0,1.0
324563,2.028414,-1.033031,1.5761379999999998,0.073127,0.015489,0.782883,0.0,10.0,70.0,178.0,24.0,1.0
324564,2.067329,-1.062874,1.582137,-0.1519,-0.22155,0.315504,0.0,10.0,70.0,178.0,24.0,1.0
324565,2.0188040000000003,-1.110617,1.49995,-0.394783,-0.59507,-0.106573,0.0,10.0,70.0,178.0,24.0,1.0
324566,2.007933,-1.110465,1.50354,-0.29185700000000003,0.404128,0.158703,0.0,10.0,70.0,178.0,24.0,1.0
324567,2.122362,-1.082866,1.627748,-0.400572,1.082546,0.957024,0.0,10.0,70.0,178.0,24.0,1.0
324568,2.160874,-1.0893,1.649633,-0.351831,1.186817,0.26860900000000004,0.0,10.0,70.0,178.0,24.0,1.0
324569,2.211721,-1.09831,1.685715,0.135005,0.17087,0.13933299999999998,0.0,10.0,70.0,178.0,24.0,1.0
324570,2.253154,-1.094933,1.73734,0.135011,0.109241,0.138233,0.0,10.0,70.0,178.0,24.0,1.0
324571,2.256479,-1.10443,1.735434,-0.225336,-0.15323299999999998,-0.100448,0.0,10.0,70.0,178.0,24.0,1.0
324572,2.241935,-1.114521,1.7154650000000002,-0.27998,-0.125575,-0.330368,0.0,10.0,70.0,178.0,24.0,1.0
324573,2.229941,-1.119291,1.7110470000000002,-0.072684,0.370808,0.164117,0.0,10.0,70.0,178.0,24.0,1.0
324574,2.229515,-1.117573,1.720409,0.051881,0.634361,0.5052369999999999,0.0,10.0,70.0,178.0,24.0,1.0
324575,2.228985,-1.117705,1.7204849999999998,0.056852,0.176021,0.504867,0.0,10.0,70.0,178.0,24.0,1.0
324576,2.251661,-1.113369,1.7293740000000002,0.009541,0.011607,0.5310090000000001,0.0,10.0,70.0,178.0,24.0,1.0
324577,2.296505,-1.101264,1.7450740000000002,-0.226565,-0.057445,0.11814,0.0,10.0,70.0,178.0,24.0,1.0
324578,2.389265,-1.075908,1.7972169999999998,-0.285797,-0.022066,-0.260397,0.0,10.0,70.0,178.0,24.0,1.0
324579,2.497043,-1.024568,1.879875,-0.182003,0.049654,-0.33678400000000003,0.0,10.0,70.0,178.0,24.0,1.0
324580,2.578193,-0.956956,1.955824,0.164666,-0.080275,-0.5206729999999999,0.0,10.0,70.0,178.0,24.0,1.0
324581,2.616829,-0.901199,2.005651,0.30293200000000003,-0.176772,-0.6341359999999999,0.0,10.0,70.0,178.0,24.0,1.0
324582,2.645411,-0.862908,2.045952,0.16555799999999998,-0.362795,-0.213081,0.0,10.0,70.0,178.0,24.0,1.0
324583,2.673572,-0.8403360000000001,2.079708,-0.11398,-0.006556,-0.215836,0.0,10.0,70.0,178.0,24.0,1.0
324584,2.696068,-0.840098,2.098273,-0.278397,-0.040408,-0.338431,0.0,10.0,70.0,178.0,24.0,1.0
324585,2.712397,-0.8472270000000001,2.101438,0.008731000000000001,-0.141995,-0.194648,0.0,10.0,70.0,178.0,24.0,1.0
324586,2.717928,-0.8646530000000001,2.090159,0.060489,-0.427587,-0.270243,0.0,10.0,70.0,178.0,24.0,1.0
324587,2.689592,-0.892515,2.059972,0.065717,-0.521541,-0.237262,0.0,10.0,70.0,178.0,24.0,1.0
324588,2.626573,-0.923305,2.014756,0.157948,-0.432411,-0.011895,0.0,10.0,70.0,178.0,24.0,1.0
324589,2.542625,-0.945421,1.949733,0.04064,-0.30309899999999995,0.216109,0.0,10.0,70.0,178.0,24.0,1.0
324590,2.451875,-0.959951,1.867929,-0.176534,0.027821,0.186495,0.0,10.0,70.0,178.0,24.0,1.0
324591,2.353162,-0.973353,1.7769549999999998,-0.03389,0.607947,0.021425,0.0,10.0,70.0,178.0,24.0,1.0
324592,2.253126,-0.9876,1.698839,0.18314,0.8997139999999999,0.017524,0.0,10.0,70.0,178.0,24.0,1.0
324593,2.170192,-1.006532,1.650235,0.108453,0.314427,0.21742,0.0,10.0,70.0,178.0,24.0,1.0
324594,2.117707,-1.02576,1.614399,0.120836,0.100107,0.249623,0.0,10.0,70.0,178.0,24.0,1.0
324595,2.086824,-1.053901,1.582254,-0.032325,0.184735,0.244759,0.0,10.0,70.0,178.0,24.0,1.0
324596,2.077285,-1.094622,1.547665,-0.160933,-0.296363,-0.362043,0.0,10.0,70.0,178.0,24.0,1.0
324597,2.023221,-1.127253,1.486137,-0.019585,-0.403542,-0.224798,0.0,10.0,70.0,178.0,24.0,1.0
324598,2.0560560000000003,-1.125756,1.532359,0.004004,-0.273168,0.2725,0.0,10.0,70.0,178.0,24.0,1.0
324599,2.12971,-1.114569,1.61041,-0.431887,0.22792,0.302747,0.0,10.0,70.0,178.0,24.0,1.0
324600,2.120404,-1.132001,1.589838,-0.233814,-0.22814,-0.986979,0.0,10.0,70.0,178.0,24.0,1.0
324601,2.133748,-1.144906,1.604708,-0.050884,0.006382,-0.8335020000000001,0.0,10.0,70.0,178.0,24.0,1.0
324602,2.21294,-1.134971,1.708159,-0.137857,0.783648,0.004749000000000001,0.0,10.0,70.0,178.0,24.0,1.0
324603,2.23646,-1.159065,1.727711,-0.114545,0.773741,0.010431,0.0,10.0,70.0,178.0,24.0,1.0
324604,2.258044,-1.168825,1.752387,-0.19869,-0.8876379999999999,-0.380511,0.0,10.0,70.0,178.0,24.0,1.0
324605,2.298832,-1.153809,1.797929,0.077401,0.040185000000000005,0.632776,0.0,10.0,70.0,178.0,24.0,1.0
324606,2.28159,-1.13388,1.785791,0.165574,0.4484010000000001,0.419116,0.0,10.0,70.0,178.0,24.0,1.0
324607,2.2671360000000003,-1.124362,1.760623,0.126802,0.722565,0.018801,0.0,10.0,70.0,178.0,24.0,1.0
324608,2.267183,-1.120009,1.755279,-0.220738,0.098385,0.405108,0.0,10.0,70.0,178.0,24.0,1.0
324609,2.259506,-1.120668,1.737182,-0.307163,0.192077,0.371408,0.0,10.0,70.0,178.0,24.0,1.0
324610,2.275272,-1.120373,1.733442,-0.48317,0.406515,0.191765,0.0,10.0,70.0,178.0,24.0,1.0
324611,2.3180110000000003,-1.112076,1.762384,-0.457857,0.234743,-0.12052,0.0,10.0,70.0,178.0,24.0,1.0
324612,2.400423,-1.090342,1.833609,-0.211547,0.036494,0.160723,0.0,10.0,70.0,178.0,24.0,1.0
324613,2.500025,-1.050991,1.924044,0.027298000000000003,-0.007961,-0.049783,0.0,10.0,70.0,178.0,24.0,1.0
324614,2.583381,-0.997287,2.008709,0.192103,-0.107717,-0.405516,0.0,10.0,70.0,178.0,24.0,1.0
324615,2.634794,-0.933709,2.082728,0.17873699999999998,-0.099227,-0.649112,0.0,10.0,70.0,178.0,24.0,1.0
324616,2.64942,-0.869816,2.135197,0.13956300000000002,-0.229832,-0.518425,0.0,10.0,70.0,178.0,24.0,1.0
324617,2.664935,-0.8208799999999999,2.176988,0.109389,-0.477184,-0.066662,0.0,10.0,70.0,178.0,24.0,1.0
324618,2.681808,-0.792086,2.202932,-0.010254,-0.189466,-0.080881,0.0,10.0,70.0,178.0,24.0,1.0
324619,2.702649,-0.7824840000000001,2.215941,0.321649,0.172276,-0.017835,0.0,10.0,70.0,178.0,24.0,1.0
324620,2.725551,-0.794975,2.219523,0.379103,0.16265,-0.074553,0.0,10.0,70.0,178.0,24.0,1.0
324621,2.715509,-0.814368,2.2145040000000003,0.19151,0.098987,-0.186151,0.0,10.0,70.0,178.0,24.0,1.0
324622,2.682342,-0.8339690000000001,2.201277,-0.058964,-0.197239,0.023553,0.0,10.0,70.0,178.0,24.0,1.0
324623,2.636409,-0.8601639999999999,2.176387,-0.180871,-0.252777,0.067798,0.0,10.0,70.0,178.0,24.0,1.0
324624,2.58646,-0.895532,2.135022,-0.300136,-0.410013,0.225713,0.0,10.0,70.0,178.0,24.0,1.0
324625,2.53057,-0.940547,2.0655330000000003,-0.240789,-0.672383,0.13533299999999998,0.0,10.0,70.0,178.0,24.0,1.0
324626,2.437892,-0.982067,1.959545,-0.195807,-0.249799,-0.210639,0.0,10.0,70.0,178.0,24.0,1.0
324627,2.314058,-1.008602,1.846735,0.062907,0.462522,-0.439655,0.0,10.0,70.0,178.0,24.0,1.0
324628,2.186098,-1.025918,1.766729,0.315867,0.8738440000000001,-0.340249,0.0,10.0,70.0,178.0,24.0,1.0
324629,2.072176,-1.035983,1.729123,0.132001,0.020663,0.212122,0.0,10.0,70.0,178.0,24.0,1.0
324630,2.003639,-1.039292,1.711428,0.177561,-0.214066,0.407953,0.0,10.0,70.0,178.0,24.0,1.0
324631,1.96519,-1.041735,1.6840389999999998,0.310454,-0.166535,0.608796,0.0,10.0,70.0,178.0,24.0,1.0
324632,1.952255,-1.048692,1.660894,0.076388,-0.17059000000000002,0.327834,0.0,10.0,70.0,178.0,24.0,1.0
324633,1.96961,-1.067205,1.624233,-0.17842,-0.394593,-0.730745,0.0,10.0,70.0,178.0,24.0,1.0
324634,1.969846,-1.071029,1.620309,-0.121469,-0.016305,-0.05517,0.0,10.0,70.0,178.0,24.0,1.0
324635,2.002551,-1.070363,1.660336,-0.632169,0.39559,0.258753,0.0,10.0,70.0,178.0,24.0,1.0
324636,2.028487,-1.091353,1.6611599999999995,-0.418124,1.091508,-0.126637,0.0,10.0,70.0,178.0,24.0,1.0
324637,2.105971,-1.1058370000000002,1.7203509999999995,-0.012004,1.83257,1.0083879999999998,0.0,10.0,70.0,178.0,24.0,1.0
324638,2.166903,-1.120108,1.774639,-0.100692,-0.074205,-0.606486,0.0,10.0,70.0,178.0,24.0,1.0
324639,2.171452,-1.136072,1.787529,-0.201949,-0.81908,-0.55395,0.0,10.0,70.0,178.0,24.0,1.0
324640,2.207419,-1.130545,1.835677,-0.30209400000000003,-0.622693,-0.121756,0.0,10.0,70.0,178.0,24.0,1.0
324641,2.209179,-1.112033,1.85499,0.106609,0.409292,0.4684140000000001,0.0,10.0,70.0,178.0,24.0,1.0
324642,2.186325,-1.102392,1.845395,0.137042,0.481077,0.337536,0.0,10.0,70.0,178.0,24.0,1.0
324643,2.172175,-1.10073,1.832172,0.099668,0.36896,0.149007,0.0,10.0,70.0,178.0,24.0,1.0
324644,2.15311,-1.101282,1.813426,-0.206818,-0.00925,0.236889,0.0,10.0,70.0,178.0,24.0,1.0
324645,2.139976,-1.099175,1.794557,-0.211634,-0.008295,0.240861,0.0,10.0,70.0,178.0,24.0,1.0
324646,2.138014,-1.095843,1.783666,-0.513001,-0.026246,0.051421,0.0,10.0,70.0,178.0,24.0,1.0
324647,2.149572,-1.089832,1.795292,-0.641892,-0.146086,0.001076,0.0,10.0,70.0,178.0,24.0,1.0
324648,2.177915,-1.072743,1.831804,-0.43368,-0.010182,0.202728,0.0,10.0,70.0,178.0,24.0,1.0
324649,2.224752,-1.0523049999999998,1.881259,-0.23107600000000006,0.020073,-0.112198,0.0,10.0,70.0,178.0,24.0,1.0
324650,2.288951,-1.026314,1.950844,0.013368,0.199597,-0.189929,0.0,10.0,70.0,178.0,24.0,1.0
324651,2.3551490000000004,-0.994515,2.037143,0.107882,0.233481,-0.120026,0.0,10.0,70.0,178.0,24.0,1.0
324652,2.409697,-0.966826,2.1140220000000003,0.175804,0.182253,-0.295888,0.0,10.0,70.0,178.0,24.0,1.0
324653,2.448987,-0.946148,2.173443,0.302553,0.074024,-0.246996,0.0,10.0,70.0,178.0,24.0,1.0
324654,2.482532,-0.936265,2.22025,0.249703,0.003656,0.008496,0.0,10.0,70.0,178.0,24.0,1.0
324655,2.5100130000000003,-0.935633,2.253688,0.043606,0.215259,-0.021671,0.0,10.0,70.0,178.0,24.0,1.0
324656,2.527635,-0.938138,2.279219,-0.035866,0.396117,-0.020184,0.0,10.0,70.0,178.0,24.0,1.0
324657,2.530733,-0.948078,2.290858,-0.015149,0.224692,-0.032164,0.0,10.0,70.0,178.0,24.0,1.0
324658,2.514879,-0.962722,2.289672,0.08748,-0.145274,-0.112529,0.0,10.0,70.0,178.0,24.0,1.0
324659,2.484664,-0.977924,2.280978,0.132004,-0.2436,-0.067071,0.0,10.0,70.0,178.0,24.0,1.0
324660,2.446383,-0.992177,2.269194,0.137164,-0.237975,-0.053586,0.0,10.0,70.0,178.0,24.0,1.0
324661,2.408256,-1.0041790000000002,2.251661,-0.005259000000000001,-0.359987,-0.088158,0.0,10.0,70.0,178.0,24.0,1.0
324662,2.365171,-1.011123,2.22427,-0.086591,-0.379212,-0.12597,0.0,10.0,70.0,178.0,24.0,1.0
324663,2.318167,-1.010251,2.191261,-0.07066,-0.339718,-0.143271,0.0,10.0,70.0,178.0,24.0,1.0
324664,2.264467,-1.0065540000000002,2.152404,0.020315,-0.17582,-0.086329,0.0,10.0,70.0,178.0,24.0,1.0
324665,2.195667,-1.001679,2.110223,0.033753,-0.11293,0.070026,0.0,10.0,70.0,178.0,24.0,1.0
324666,2.121163,-0.996281,2.074587,-0.027418,0.030967,0.229217,0.0,10.0,70.0,178.0,24.0,1.0
324667,2.056252,-0.991515,2.048528,-0.07271799999999999,0.120129,0.418366,0.0,10.0,70.0,178.0,24.0,1.0
324668,2.023664,-0.989069,2.041346,-0.096524,0.230998,0.7863479999999999,0.0,10.0,70.0,178.0,24.0,1.0
324669,2.032204,-0.991235,2.048417,-0.265621,0.19943,0.982712,0.0,10.0,70.0,178.0,24.0,1.0
324670,2.049968,-1.007998,2.032739,-0.285717,-0.052018,0.418606,0.0,10.0,70.0,178.0,24.0,1.0
324671,2.065452,-1.027702,2.013687,0.153042,0.163082,0.04573,0.0,10.0,70.0,178.0,24.0,1.0
324672,2.0852310000000003,-1.045608,2.028608,0.166166,0.543737,0.076149,0.0,10.0,70.0,178.0,24.0,1.0
324673,2.115907,-1.062397,2.06752,-0.174482,0.529246,-0.100498,0.0,10.0,70.0,178.0,24.0,1.0
324674,2.11778,-1.0906790000000002,2.048469,0.297863,0.13761099999999998,-1.048411,0.0,10.0,70.0,178.0,24.0,1.0
324675,2.094517,-1.10808,2.0187,0.60549,0.07473099999999999,0.275545,0.0,10.0,70.0,178.0,24.0,1.0
324676,2.185669,-1.080245,2.116218,-0.284451,0.548316,0.383741,0.0,10.0,70.0,178.0,24.0,1.0
324677,2.206,-1.072296,2.126793,-0.165581,-0.045979,-0.781848,0.0,10.0,70.0,178.0,24.0,1.0
324678,2.132708,-1.082704,2.066019,0.241016,0.140987,-0.581196,0.0,10.0,70.0,178.0,24.0,1.0
324679,2.0775,-1.089201,2.031213,-0.024572,0.645161,-0.396247,0.0,10.0,70.0,178.0,24.0,1.0
324680,2.017154,-1.09924,1.990405,-0.128832,0.390449,-0.135049,0.0,10.0,70.0,178.0,24.0,1.0
324681,1.957092,-1.110514,1.948837,-0.140833,0.065956,-0.139981,0.0,10.0,70.0,178.0,24.0,1.0
324682,1.899989,-1.116138,1.918979,-0.068859,0.009243,-0.202805,0.0,10.0,70.0,178.0,24.0,1.0
324683,1.844254,-1.116008,1.898617,0.022124,-0.030648,-0.004417,0.0,10.0,70.0,178.0,24.0,1.0
324684,1.806517,-1.112024,1.888095,0.115257,-0.192572,0.044511,0.0,10.0,70.0,178.0,24.0,1.0
324685,1.773897,-1.106245,1.876252,0.122288,-0.270488,0.081461,0.0,10.0,70.0,178.0,24.0,1.0
324686,1.7234919999999998,-1.1002379999999998,1.843434,-0.021742,-0.20409,0.115457,0.0,10.0,70.0,178.0,24.0,1.0
324687,1.66615,-1.094448,1.7994,-0.202085,0.011517,0.003249,0.0,10.0,70.0,178.0,24.0,1.0
324688,1.614389,-1.089078,1.761168,-0.282056,0.057998,0.010556,0.0,10.0,70.0,178.0,24.0,1.0
324689,1.569583,-1.083599,1.73094,-0.174719,0.057666,0.10493800000000003,0.0,10.0,70.0,178.0,24.0,1.0
324690,1.525782,-1.077466,1.703684,-0.17965,0.060554,0.12568,0.0,10.0,70.0,178.0,24.0,1.0
324691,1.487618,-1.070216,1.6840419999999998,-0.123336,0.103576,0.229357,0.0,10.0,70.0,178.0,24.0,1.0
324692,1.4588020000000002,-1.0632620000000002,1.670759,-0.24396,0.109956,0.371594,0.0,10.0,70.0,178.0,24.0,1.0
324693,1.434473,-1.057587,1.655137,-0.277538,0.14172,0.278607,0.0,10.0,70.0,178.0,24.0,1.0
324694,1.410064,-1.053519,1.634702,-0.280831,0.175128,0.151087,0.0,10.0,70.0,178.0,24.0,1.0
324695,1.388493,-1.050129,1.617614,-0.145049,0.190572,0.046912,0.0,10.0,70.0,178.0,24.0,1.0
324696,1.371261,-1.047718,1.608683,-0.132959,0.219453,0.081912,0.0,10.0,70.0,178.0,24.0,1.0
324697,1.354239,-1.046522,1.607916,-0.115201,0.241979,0.144531,0.0,10.0,70.0,178.0,24.0,1.0
324698,1.34129,-1.04567,1.613256,-0.148618,0.151951,0.27318200000000004,0.0,10.0,70.0,178.0,24.0,1.0
324699,1.344823,-1.04624,1.632417,-0.191827,0.211465,0.245101,0.0,10.0,70.0,178.0,24.0,1.0
324700,1.361625,-1.049381,1.665229,-0.288073,0.370144,0.08138200000000001,0.0,10.0,70.0,178.0,24.0,1.0
324701,1.388974,-1.054835,1.7124099999999998,-0.366322,0.32813400000000004,-0.050574,0.0,10.0,70.0,178.0,24.0,1.0
324702,1.439239,-1.064691,1.791031,-0.35059,0.420649,-0.05864700000000001,0.0,10.0,70.0,178.0,24.0,1.0
324703,1.502139,-1.074511,1.89487,-0.151152,0.466376,0.039777,0.0,10.0,70.0,178.0,24.0,1.0
324704,1.5964,-1.077482,2.027689,0.07295399999999999,0.254714,0.232842,0.0,10.0,70.0,178.0,24.0,1.0
324705,1.717891,-1.071397,2.1724240000000004,0.073521,0.157042,0.18683,0.0,10.0,70.0,178.0,24.0,1.0
324706,1.8357900000000005,-1.060737,2.295563,-0.057698,0.216472,-0.278471,0.0,10.0,70.0,178.0,24.0,1.0
324707,1.942651,-1.050385,2.404488,-0.117879,0.216965,-0.438554,0.0,10.0,70.0,178.0,24.0,1.0
324708,2.026871,-1.043584,2.502057,-0.221439,0.278442,-0.455383,0.0,10.0,70.0,178.0,24.0,1.0
324709,2.0934220000000003,-1.040277,2.598209,-0.456346,0.434849,-0.319043,0.0,10.0,70.0,178.0,24.0,1.0
324710,2.152978,-1.036876,2.696118,-0.200156,0.448538,-0.368153,0.0,10.0,70.0,178.0,24.0,1.0
324711,2.20165,-1.0356610000000002,2.79251,-0.085717,0.36444,-0.379522,0.0,10.0,70.0,178.0,24.0,1.0
324712,2.246018,-1.036525,2.888187,0.002355,-0.046553,-0.322761,0.0,10.0,70.0,178.0,24.0,1.0
324713,2.288486,-1.038069,2.984977,0.019456,-0.105673,-0.30875,0.0,10.0,70.0,178.0,24.0,1.0
324714,2.326169,-1.040441,3.0833,-0.012831,-0.113467,-0.233803,0.0,10.0,70.0,178.0,24.0,1.0
324715,2.359148,-1.043195,-3.104398,-0.058434,-0.045063,-0.24980700000000006,0.0,10.0,70.0,178.0,24.0,1.0
324716,2.383239,-1.045257,-3.016016,-0.08668200000000001,-0.017488999999999998,-0.286882,0.0,10.0,70.0,178.0,24.0,1.0
324717,2.399035,-1.045121,-2.930488,0.01669,0.014668,-0.354506,0.0,10.0,70.0,178.0,24.0,1.0
324718,2.409226,-1.040599,-2.848839,0.09315,-0.029196,-0.29124,0.0,10.0,70.0,178.0,24.0,1.0
324719,2.415037,-1.034848,-2.774539,0.136759,-0.056943,-0.226084,0.0,10.0,70.0,178.0,24.0,1.0
324720,2.414666,-1.031645,-2.7145330000000003,0.223275,-0.168631,-0.059846,0.0,10.0,70.0,178.0,24.0,1.0
324721,2.407131,-1.032021,-2.668692,0.176208,-0.194336,-0.062228,0.0,10.0,70.0,178.0,24.0,1.0
324722,2.395045,-1.034528,-2.633527,0.07546699999999999,-0.21744,-0.086478,0.0,10.0,70.0,178.0,24.0,1.0
324723,2.3799900000000003,-1.038206,-2.606662,-0.010627,-0.192565,-0.070727,0.0,10.0,70.0,178.0,24.0,1.0
324724,2.361705,-1.042663,-2.585473,-0.025387,-0.14651,-0.04175,0.0,10.0,70.0,178.0,24.0,1.0
324725,2.338461,-1.047389,-2.568124,-0.05384,-0.134462,0.044571,0.0,10.0,70.0,178.0,24.0,1.0
324726,2.307386,-1.052335,-2.556476,-0.049203,-0.101615,0.136629,0.0,10.0,70.0,178.0,24.0,1.0
324727,2.2692900000000003,-1.055576,-2.549551,-0.065775,-0.017294,0.207031,0.0,10.0,70.0,178.0,24.0,1.0
324728,2.23016,-1.058601,-2.54176,-0.22110900000000006,0.125354,0.274719,0.0,10.0,70.0,178.0,24.0,1.0
324729,2.205253,-1.062785,-2.519109,-0.310577,0.24738,0.300601,0.0,10.0,70.0,178.0,24.0,1.0
324730,2.211841,-1.069743,-2.477519,-0.331604,0.4621560000000001,0.232333,0.0,10.0,70.0,178.0,24.0,1.0
324731,2.242878,-1.08149,-2.418778,-0.17740699999999998,0.183396,-0.035354000000000003,0.0,10.0,70.0,178.0,24.0,1.0
324732,2.267436,-1.092805,-2.350889,-0.08006,0.011738,-0.102109,0.0,10.0,70.0,178.0,24.0,1.0
324733,2.27098,-1.106069,-2.30416,-0.027541000000000003,-0.037712,-0.102212,0.0,10.0,70.0,178.0,24.0,1.0
324734,2.260736,-1.120286,-2.291113,0.6661229999999999,0.204465,-0.379266,0.0,10.0,70.0,178.0,24.0,1.0
324735,2.249652,-1.133525,-2.291327,0.6723779999999999,0.19878,-0.368018,0.0,10.0,70.0,178.0,24.0,1.0
324736,2.252285,-1.130786,-2.272216,0.381374,0.202766,0.190008,0.0,10.0,70.0,178.0,24.0,1.0
324737,2.281677,-1.121925,-2.233135,0.097344,-0.236036,0.235317,0.0,10.0,70.0,178.0,24.0,1.0
324738,2.2890900000000003,-1.123131,-2.227145,-0.012567,-0.887956,-0.218576,0.0,10.0,70.0,178.0,24.0,1.0
324739,2.230678,-1.13292,-2.277401,-0.056931,-0.630004,-0.435615,0.0,10.0,70.0,178.0,24.0,1.0
324740,2.1567380000000003,-1.137118,-2.328885,-0.266596,0.460066,-0.4868810000000001,0.0,10.0,70.0,178.0,24.0,1.0
324741,2.127613,-1.136791,-2.328395,-0.6074039999999999,0.967528,-0.217359,0.0,10.0,70.0,178.0,24.0,1.0
324742,2.107946,-1.1431790000000002,-2.31575,-0.538817,0.399034,-0.13535,0.0,10.0,70.0,178.0,24.0,1.0
324743,2.070152,-1.154543,-2.310768,-0.147494,-0.17660399999999998,-0.366344,0.0,10.0,70.0,178.0,24.0,1.0
324744,2.022724,-1.160412,-2.301095,0.208637,-0.049673,-0.058484,0.0,10.0,70.0,178.0,24.0,1.0
324745,1.983512,-1.161251,-2.2907990000000003,0.306121,0.099681,0.007405,0.0,10.0,70.0,178.0,24.0,1.0
324746,1.946212,-1.160787,-2.28743,0.327336,-0.018603,-0.045368,0.0,10.0,70.0,178.0,24.0,1.0
324747,1.914768,-1.161385,-2.290069,0.325179,-0.314649,-0.07649700000000001,0.0,10.0,70.0,178.0,24.0,1.0
324748,1.882295,-1.157989,-2.296571,0.25493000000000005,-0.271864,-0.063581,0.0,10.0,70.0,178.0,24.0,1.0
324749,1.845859,-1.152011,-2.310055,0.074512,-0.021051,-0.084003,0.0,10.0,70.0,178.0,24.0,1.0
324750,1.805707,-1.147942,-2.331836,-0.135534,0.092153,-0.138375,0.0,10.0,70.0,178.0,24.0,1.0
324751,1.761391,-1.146145,-2.357961,-0.159049,0.092113,-0.117081,0.0,10.0,70.0,178.0,24.0,1.0
324752,1.716551,-1.144334,-2.382093,-0.1288,0.035183,-0.040164,0.0,10.0,70.0,178.0,24.0,1.0
324753,1.671186,-1.140941,-2.406582,-0.101292,-0.054152,0.139113,0.0,10.0,70.0,178.0,24.0,1.0
324754,1.623668,-1.135792,-2.433689,-0.14512,0.087211,0.287529,0.0,10.0,70.0,178.0,24.0,1.0
324755,1.577053,-1.13136,-2.460121,-0.239544,0.185096,0.329125,0.0,10.0,70.0,178.0,24.0,1.0
324756,1.53717,-1.129505,-2.482518,-0.253074,0.241002,0.25857600000000003,0.0,10.0,70.0,178.0,24.0,1.0
324757,1.512435,-1.131106,-2.49398,-0.178983,0.130898,0.137284,0.0,10.0,70.0,178.0,24.0,1.0
324758,1.5137,-1.136261,-2.484509,-0.105826,0.015572,0.06863999999999999,0.0,10.0,70.0,178.0,24.0,1.0
324759,1.52867,-1.143332,-2.464951,-0.007755,-0.010713,0.125033,0.0,10.0,70.0,178.0,24.0,1.0
324760,1.559304,-1.154513,-2.429479,0.029906,0.125426,0.158867,0.0,10.0,70.0,178.0,24.0,1.0
324761,1.5945120000000002,-1.164803,-2.389502,0.028087,0.353491,0.099079,0.0,10.0,70.0,178.0,24.0,1.0
324762,1.6493950000000002,-1.177066,-2.329055,0.14800000000000002,0.5588,0.030532,0.0,10.0,70.0,178.0,24.0,1.0
324763,1.724146,-1.186135,-2.24688,0.21117,0.373337,0.057231,0.0,10.0,70.0,178.0,24.0,1.0
324764,1.8384080000000005,-1.185734,-2.131573,0.187096,0.125593,0.263182,0.0,10.0,70.0,178.0,24.0,1.0
324765,1.986296,-1.176248,-2.0027630000000003,0.195323,0.030687,0.053114,0.0,10.0,70.0,178.0,24.0,1.0
324766,2.131528,-1.159394,-1.873786,0.113883,-0.094112,-0.263838,0.0,10.0,70.0,178.0,24.0,1.0
324767,2.254469,-1.1293030000000002,-1.744981,0.05379,-0.180207,-0.471029,0.0,10.0,70.0,178.0,24.0,1.0
324768,2.346512,-1.094555,-1.646923,-0.115322,0.055580999999999985,-0.302175,0.0,10.0,70.0,178.0,24.0,1.0
324769,2.408074,-1.069718,-1.578213,-0.028901,0.33762600000000004,-0.043742,0.0,10.0,70.0,178.0,24.0,1.0
324770,2.456476,-1.051628,-1.5175,0.222113,0.517663,-0.178836,0.0,10.0,70.0,178.0,24.0,1.0
324771,2.504369,-1.03836,-1.453013,0.294066,0.230819,-0.399335,0.0,10.0,70.0,178.0,24.0,1.0
324772,2.552597,-1.0274370000000002,-1.384939,0.25069400000000003,-0.269856,-0.386293,0.0,10.0,70.0,178.0,24.0,1.0
324773,2.595527,-1.017425,-1.322033,0.029772000000000007,-0.427723,-0.286124,0.0,10.0,70.0,178.0,24.0,1.0
324774,2.625425,-1.009252,-1.27504,-0.023992,-0.410292,-0.302754,0.0,10.0,70.0,178.0,24.0,1.0
324775,2.64741,-1.002972,-1.241414,-0.030897000000000008,-0.394129,-0.283366,0.0,10.0,70.0,178.0,24.0,1.0
324776,2.662202,-1.000456,-1.217403,-0.035586,-0.505993,-0.184659,0.0,10.0,70.0,178.0,24.0,1.0
324777,2.664502,-1.000737,-1.204978,-0.046002,-0.5428270000000001,-0.15969,0.0,10.0,70.0,178.0,24.0,1.0
324778,2.649961,-1.003663,-1.206457,-0.068476,-0.578521,-0.128076,0.0,10.0,70.0,178.0,24.0,1.0
324779,2.616228,-1.009335,-1.2242110000000002,-0.215537,-0.569455,-0.102213,0.0,10.0,70.0,178.0,24.0,1.0
324780,2.568567,-1.016928,-1.254547,-0.233685,-0.573473,-0.08355499999999999,0.0,10.0,70.0,178.0,24.0,1.0
324781,2.515607,-1.02686,-1.292697,-0.294685,-0.334346,-0.180069,0.0,10.0,70.0,178.0,24.0,1.0
324782,2.460023,-1.039942,-1.336984,-0.13338699999999998,-0.205591,-0.099681,0.0,10.0,70.0,178.0,24.0,1.0
324783,2.400864,-1.052316,-1.384703,0.002108,-0.039578,0.001819,0.0,10.0,70.0,178.0,24.0,1.0
324784,2.3337220000000003,-1.063991,-1.433692,0.125252,0.076674,0.136053,0.0,10.0,70.0,178.0,24.0,1.0
324785,2.264483,-1.082624,-1.488381,0.29191500000000004,0.077166,0.091108,0.0,10.0,70.0,178.0,24.0,1.0
324786,2.207969,-1.105803,-1.536359,0.231484,-0.134562,-0.076552,0.0,10.0,70.0,178.0,24.0,1.0
324787,2.16968,-1.120443,-1.567397,0.112374,-0.280344,-0.108027,0.0,10.0,70.0,178.0,24.0,1.0
324788,2.153173,-1.126866,-1.570365,-0.048976,-0.16662000000000002,0.051043,0.0,10.0,70.0,178.0,24.0,1.0
324789,2.1646490000000003,-1.135048,-1.543079,-0.280875,0.226365,-0.046999,0.0,10.0,70.0,178.0,24.0,1.0
324790,2.1837,-1.157043,-1.516359,-0.40178,0.462342,-0.5183939999999999,0.0,10.0,70.0,178.0,24.0,1.0
324791,2.238978,-1.1636030000000002,-1.436316,-0.008611,0.111824,0.545916,0.0,10.0,70.0,178.0,24.0,1.0
324792,2.344462,-1.14826,-1.3203120000000002,0.036219,0.124462,0.490212,0.0,10.0,70.0,178.0,24.0,1.0
324793,2.3793450000000003,-1.157041,-1.286466,0.105429,-0.028975,-0.129518,0.0,10.0,70.0,178.0,24.0,1.0
