index,attitude.roll,attitude.pitch,attitude.yaw,userAcceleration.x,userAcceleration.y,userAcceleration.z,act,id,weight,height,age,gender
353027,-1.123516,-1.292288,-1.7320259999999998,-0.131662,0.111211,-0.667305,0.0,11.0,60.0,167.0,33.0,1.0
353028,-1.05911,-1.267199,-1.69199,-0.017403000000000002,0.140322,-0.880019,0.0,11.0,60.0,167.0,33.0,1.0
353029,-0.949932,-1.231575,-1.614139,-0.032116000000000006,0.08056100000000001,-0.737916,0.0,11.0,60.0,167.0,33.0,1.0
353030,-0.8260280000000001,-1.1834,-1.517686,0.121537,-0.205757,0.048979,0.0,11.0,60.0,167.0,33.0,1.0
353031,-0.719143,-1.119932,-1.429846,-0.045191,-0.353104,0.459567,0.0,11.0,60.0,167.0,33.0,1.0
353032,-0.646183,-1.057872,-1.363346,-0.113876,-0.478002,0.860325,0.0,11.0,60.0,167.0,33.0,1.0
353033,-0.602165,-1.014138,-1.310315,0.289918,-0.640178,1.113717,0.0,11.0,60.0,167.0,33.0,1.0
353034,-0.543999,-0.994603,-1.268917,0.50574,-1.078105,0.583738,0.0,11.0,60.0,167.0,33.0,1.0
353035,-0.491573,-0.98727,-1.246679,0.493874,-0.471183,0.55807,0.0,11.0,60.0,167.0,33.0,1.0
353036,-0.446207,-0.994752,-1.22995,0.408224,-0.115754,0.546309,0.0,11.0,60.0,167.0,33.0,1.0
353037,-0.414857,-1.027526,-1.2259870000000002,0.403074,-0.044163,0.365146,0.0,11.0,60.0,167.0,33.0,1.0
353038,-0.420276,-1.074105,-1.241434,0.389142,-0.06730499999999999,0.327108,0.0,11.0,60.0,167.0,33.0,1.0
353039,-0.4771,-1.132152,-1.289676,0.124335,-0.332254,0.033837,0.0,11.0,60.0,167.0,33.0,1.0
353040,-0.624183,-1.186721,-1.405681,0.16169,-0.284247,-0.14715699999999998,0.0,11.0,60.0,167.0,33.0,1.0
353041,-0.828319,-1.2168709999999998,-1.557635,-0.313765,0.365234,-0.107119,0.0,11.0,60.0,167.0,33.0,1.0
353042,-0.976663,-1.230921,-1.629625,-0.797265,1.846495,-0.307527,0.0,11.0,60.0,167.0,33.0,1.0
353043,-1.064514,-1.239321,-1.661043,-0.166457,0.910928,-0.868265,0.0,11.0,60.0,167.0,33.0,1.0
353044,-1.138952,-1.248105,-1.699336,-0.104149,0.039865,-0.7091310000000001,0.0,11.0,60.0,167.0,33.0,1.0
353045,-1.19206,-1.261077,-1.731626,-0.168506,-0.310574,-0.489968,0.0,11.0,60.0,167.0,33.0,1.0
353046,-1.225978,-1.271238,-1.762372,-0.325474,-0.554497,-0.405791,0.0,11.0,60.0,167.0,33.0,1.0
353047,-1.2494040000000002,-1.275519,-1.792674,-0.24824,-0.531261,0.004734,0.0,11.0,60.0,167.0,33.0,1.0
353048,-1.200797,-1.273987,-1.7643259999999998,0.251935,-0.051443,0.96608,0.0,11.0,60.0,167.0,33.0,1.0
353049,-1.134048,-1.265933,-1.707023,-0.135414,1.069855,-0.446232,0.0,11.0,60.0,167.0,33.0,1.0
353050,-1.2399950000000002,-1.264856,-1.717596,-0.09451,1.162418,-0.7111350000000001,0.0,11.0,60.0,167.0,33.0,1.0
353051,-1.268407,-1.253048,-1.64528,-0.589479,1.858454,-1.058617,0.0,11.0,60.0,167.0,33.0,1.0
353052,-1.163209,-1.236617,-1.571755,-0.191832,0.41085,0.7686689999999999,0.0,11.0,60.0,167.0,33.0,1.0
353053,-1.099156,-1.238322,-1.556443,0.291262,-0.001253,0.625949,0.0,11.0,60.0,167.0,33.0,1.0
353054,-1.103169,-1.257238,-1.583792,0.378978,0.101355,0.516858,0.0,11.0,60.0,167.0,33.0,1.0
353055,-1.181508,-1.272255,-1.6388630000000002,0.130969,0.386992,0.351739,0.0,11.0,60.0,167.0,33.0,1.0
353056,-1.3080379999999998,-1.284117,-1.713971,-0.106048,0.189661,0.15772,0.0,11.0,60.0,167.0,33.0,1.0
353057,-1.471008,-1.291897,-1.825943,-0.23245900000000005,-0.15127000000000002,0.105977,0.0,11.0,60.0,167.0,33.0,1.0
353058,-1.618481,-1.290247,-1.947478,-0.238378,-0.41087,0.006486,0.0,11.0,60.0,167.0,33.0,1.0
353059,-1.715415,-1.279489,-2.048844,-0.15279700000000002,-0.4259020000000001,-0.225624,0.0,11.0,60.0,167.0,33.0,1.0
353060,-1.773449,-1.264081,-2.125725,-0.066942,-0.392234,-0.281501,0.0,11.0,60.0,167.0,33.0,1.0
353061,-1.813097,-1.244881,-2.178842,0.194637,-0.31361500000000003,-0.22283200000000006,0.0,11.0,60.0,167.0,33.0,1.0
353062,-1.838932,-1.224757,-2.203909,0.204399,-0.333668,-0.220091,0.0,11.0,60.0,167.0,33.0,1.0
353063,-1.857205,-1.203707,-2.216251,0.207785,-0.578228,-0.167812,0.0,11.0,60.0,167.0,33.0,1.0
353064,-1.871535,-1.1804290000000002,-2.232646,0.236948,-0.758678,-0.040775,0.0,11.0,60.0,167.0,33.0,1.0
353065,-1.88073,-1.15654,-2.251504,0.256448,-0.543071,0.008022,0.0,11.0,60.0,167.0,33.0,1.0
353066,-1.896069,-1.131504,-2.268582,0.378945,0.137397,-0.327072,0.0,11.0,60.0,167.0,33.0,1.0
353067,-1.900384,-1.108548,-2.270603,0.437257,0.5541510000000001,-0.5663779999999999,0.0,11.0,60.0,167.0,33.0,1.0
353068,-1.878863,-1.091404,-2.249855,0.548696,0.4338,-0.5612560000000001,0.0,11.0,60.0,167.0,33.0,1.0
353069,-1.85053,-1.076898,-2.206156,0.428575,0.16884000000000002,-0.743344,0.0,11.0,60.0,167.0,33.0,1.0
353070,-1.804576,-1.06284,-2.131575,0.535762,0.312203,-0.8765139999999999,0.0,11.0,60.0,167.0,33.0,1.0
353071,-1.706468,-1.058338,-2.006908,0.718795,0.502375,-0.574603,0.0,11.0,60.0,167.0,33.0,1.0
353072,-1.606152,-1.069069,-1.862637,0.360822,0.6441819999999999,0.428785,0.0,11.0,60.0,167.0,33.0,1.0
353073,-1.497654,-1.090637,-1.7238349999999998,-0.083342,0.473552,1.15343,0.0,11.0,60.0,167.0,33.0,1.0
353074,-1.404135,-1.111645,-1.589098,-0.297259,0.640849,1.295184,0.0,11.0,60.0,167.0,33.0,1.0
353075,-1.320562,-1.125382,-1.442174,-0.141706,2.0029790000000003,0.509426,0.0,11.0,60.0,167.0,33.0,1.0
353076,-1.230251,-1.1286,-1.309231,-0.033057,1.042368,0.026913,0.0,11.0,60.0,167.0,33.0,1.0
353077,-1.121639,-1.129475,-1.179909,-0.123584,0.5271020000000001,0.068549,0.0,11.0,60.0,167.0,33.0,1.0
353078,-1.026459,-1.131406,-1.072168,-0.209525,0.463076,0.469185,0.0,11.0,60.0,167.0,33.0,1.0
353079,-0.927797,-1.1418620000000002,-0.976706,-0.34644899999999995,0.598083,0.738384,0.0,11.0,60.0,167.0,33.0,1.0
353080,-0.839883,-1.155512,-0.8880379999999999,-0.204112,0.468955,0.629441,0.0,11.0,60.0,167.0,33.0,1.0
353081,-0.8181149999999999,-1.165095,-0.8002859999999999,-0.062238,0.156797,0.583675,0.0,11.0,60.0,167.0,33.0,1.0
353082,-0.842783,-1.170094,-0.7073520000000001,0.270944,-0.100872,0.757709,0.0,11.0,60.0,167.0,33.0,1.0
353083,-0.8365809999999999,-1.165678,-0.622025,0.288184,-0.308094,0.502115,0.0,11.0,60.0,167.0,33.0,1.0
353084,-0.8501639999999999,-1.158872,-0.563192,0.007969,-0.5021680000000001,0.5597489999999999,0.0,11.0,60.0,167.0,33.0,1.0
353085,-0.879875,-1.150451,-0.522436,-0.049104,-0.6965939999999999,0.5978859999999999,0.0,11.0,60.0,167.0,33.0,1.0
353086,-0.93008,-1.143067,-0.498915,-0.078953,-0.71565,0.427657,0.0,11.0,60.0,167.0,33.0,1.0
353087,-1.000176,-1.135715,-0.485729,-0.013294,-0.659994,0.30617,0.0,11.0,60.0,167.0,33.0,1.0
353088,-1.081747,-1.128315,-0.475614,-0.004628,-0.222311,0.06704299999999999,0.0,11.0,60.0,167.0,33.0,1.0
353089,-1.1589040000000002,-1.119721,-0.4611560000000001,0.016854,-0.218597,0.040412,0.0,11.0,60.0,167.0,33.0,1.0
353090,-1.177735,-1.099642,-0.39755,-0.21153400000000006,0.6726,-0.933749,0.0,11.0,60.0,167.0,33.0,1.0
353091,-1.128209,-1.079133,-0.283134,0.240687,0.775876,-0.8691959999999999,0.0,11.0,60.0,167.0,33.0,1.0
353092,-1.077364,-1.076281,-0.176217,0.429094,0.44756,-0.600431,0.0,11.0,60.0,167.0,33.0,1.0
353093,-1.020768,-1.087173,-0.071478,0.780788,-0.035737,0.238323,0.0,11.0,60.0,167.0,33.0,1.0
353094,-0.966465,-1.100031,0.030551,0.929184,-0.075914,0.029235,0.0,11.0,60.0,167.0,33.0,1.0
353095,-0.940656,-1.109504,0.109018,0.87129,-0.134919,-0.06342,0.0,11.0,60.0,167.0,33.0,1.0
353096,-0.928938,-1.120897,0.156313,0.853558,-0.183206,-0.062694,0.0,11.0,60.0,167.0,33.0,1.0
353097,-0.8577809999999999,-1.117012,0.21467,-1.123609,2.113,0.138442,0.0,11.0,60.0,167.0,33.0,1.0
353098,-0.8273520000000001,-1.11969,0.276028,-0.62817,0.922926,0.026742,0.0,11.0,60.0,167.0,33.0,1.0
353099,-0.826053,-1.139755,0.296998,-0.087743,-0.47831,0.974973,0.0,11.0,60.0,167.0,33.0,1.0
353100,-0.854469,-1.152782,0.252294,-0.123777,-0.27109,1.202019,0.0,11.0,60.0,167.0,33.0,1.0
353101,-0.895223,-1.128209,0.163384,-0.362529,0.159647,1.200253,0.0,11.0,60.0,167.0,33.0,1.0
353102,-0.980213,-1.086009,0.138047,-0.611593,0.5351020000000001,0.815513,0.0,11.0,60.0,167.0,33.0,1.0
353103,-1.158412,-1.07271,0.125194,0.522895,0.562359,0.5238430000000001,0.0,11.0,60.0,167.0,33.0,1.0
353104,-1.343282,-1.085499,0.072161,0.53965,0.556321,0.437582,0.0,11.0,60.0,167.0,33.0,1.0
353105,-1.429548,-1.10775,0.030294,0.203543,0.200412,-0.114731,0.0,11.0,60.0,167.0,33.0,1.0
353106,-1.464707,-1.130209,0.001066,0.114069,0.060175,-0.028618,0.0,11.0,60.0,167.0,33.0,1.0
353107,-1.515772,-1.150844,-0.044431,0.117908,0.024621,0.050102,0.0,11.0,60.0,167.0,33.0,1.0
353108,-1.593577,-1.167302,-0.112887,-0.104958,-0.058565,-0.005098,0.0,11.0,60.0,167.0,33.0,1.0
353109,-1.685152,-1.173771,-0.178044,-0.239666,-0.239995,-0.298058,0.0,11.0,60.0,167.0,33.0,1.0
353110,-1.763043,-1.170634,-0.207501,0.004194,-0.263786,-0.271025,0.0,11.0,60.0,167.0,33.0,1.0
353111,-1.819297,-1.166211,-0.231857,0.221473,-0.19429,-0.212445,0.0,11.0,60.0,167.0,33.0,1.0
353112,-1.852965,-1.161971,-0.260272,0.178098,-0.140947,-0.064315,0.0,11.0,60.0,167.0,33.0,1.0
353113,-1.875364,-1.157129,-0.280195,0.214913,-0.142353,0.158955,0.0,11.0,60.0,167.0,33.0,1.0
353114,-1.902928,-1.150076,-0.295464,0.271115,-0.155608,0.18672,0.0,11.0,60.0,167.0,33.0,1.0
353115,-1.942198,-1.140517,-0.30731,0.238622,0.020457,-0.108519,0.0,11.0,60.0,167.0,33.0,1.0
353116,-2.008527,-1.128822,-0.322172,0.218689,0.258857,-0.629484,0.0,11.0,60.0,167.0,33.0,1.0
353117,-2.098436,-1.117223,-0.34423400000000004,0.188196,0.311119,-0.645941,0.0,11.0,60.0,167.0,33.0,1.0
353118,-2.136041,-1.113426,-0.353696,0.16836900000000002,0.376587,-0.601481,0.0,11.0,60.0,167.0,33.0,1.0
353119,-2.098481,-1.116791,-0.32812,0.181991,0.4189600000000001,-0.673086,0.0,11.0,60.0,167.0,33.0,1.0
353120,-2.0328880000000003,-1.122903,-0.256516,0.264152,0.631872,-0.748762,0.0,11.0,60.0,167.0,33.0,1.0
353121,-1.927545,-1.134105,-0.120429,0.016103,0.66791,-0.511975,0.0,11.0,60.0,167.0,33.0,1.0
353122,-1.765752,-1.145226,0.058992,-0.003785,0.441034,0.079967,0.0,11.0,60.0,167.0,33.0,1.0
353123,-1.611969,-1.151657,0.235013,0.306082,0.264493,0.5140560000000001,0.0,11.0,60.0,167.0,33.0,1.0
353124,-1.466762,-1.150719,0.418779,0.321285,0.291578,0.6829310000000001,0.0,11.0,60.0,167.0,33.0,1.0
353125,-1.31469,-1.144842,0.588696,0.341312,0.447952,0.427725,0.0,11.0,60.0,167.0,33.0,1.0
353126,-1.173455,-1.137682,0.715633,0.297688,0.635779,0.072519,0.0,11.0,60.0,167.0,33.0,1.0
353127,-1.057647,-1.1384,0.8082560000000001,0.070074,0.728511,0.170531,0.0,11.0,60.0,167.0,33.0,1.0
353128,-0.970332,-1.144335,0.900314,-0.090397,0.493221,0.457079,0.0,11.0,60.0,167.0,33.0,1.0
353129,-0.911259,-1.1475540000000002,0.996422,0.089882,0.120434,0.435229,0.0,11.0,60.0,167.0,33.0,1.0
353130,-0.849518,-1.147832,1.094341,0.195188,-0.063473,0.34581300000000004,0.0,11.0,60.0,167.0,33.0,1.0
353131,-0.789926,-1.145938,1.188801,0.101875,-0.229777,0.421867,0.0,11.0,60.0,167.0,33.0,1.0
353132,-0.749551,-1.139423,1.27224,0.020919,-0.350989,0.428204,0.0,11.0,60.0,167.0,33.0,1.0
353133,-0.732004,-1.133804,1.33833,0.072867,-0.503883,0.510266,0.0,11.0,60.0,167.0,33.0,1.0
353134,-0.734718,-1.128406,1.383399,-0.01053,-0.599425,0.5252819999999999,0.0,11.0,60.0,167.0,33.0,1.0
353135,-0.759713,-1.122966,1.405327,-0.071366,-0.659323,0.526621,0.0,11.0,60.0,167.0,33.0,1.0
353136,-0.809762,-1.119464,1.401496,-0.082696,-0.7458600000000001,0.32363400000000003,0.0,11.0,60.0,167.0,33.0,1.0
353137,-0.886599,-1.1180450000000002,1.3699709999999998,-0.045723,-0.60283,0.039559,0.0,11.0,60.0,167.0,33.0,1.0
353138,-0.996745,-1.116986,1.304414,0.100128,-0.197871,-0.095007,0.0,11.0,60.0,167.0,33.0,1.0
353139,-1.139834,-1.117142,1.21448,-0.058427,0.486631,-0.446883,0.0,11.0,60.0,167.0,33.0,1.0
353140,-1.228366,-1.120619,1.174572,-0.10299,0.889059,-0.794967,0.0,11.0,60.0,167.0,33.0,1.0
353141,-1.218916,-1.12026,1.228077,0.057566,0.5663090000000001,-0.773075,0.0,11.0,60.0,167.0,33.0,1.0
353142,-1.178786,-1.123424,1.291083,0.253202,-0.231726,-0.844342,0.0,11.0,60.0,167.0,33.0,1.0
353143,-1.127904,-1.123511,1.33779,0.244209,-0.231764,-0.824257,0.0,11.0,60.0,167.0,33.0,1.0
353144,-1.0441200000000002,-1.119332,1.364876,0.115086,0.12779400000000002,1.653704,0.0,11.0,60.0,167.0,33.0,1.0
353145,-0.988958,-1.1199370000000002,1.37524,0.049584,0.005475,0.294944,0.0,11.0,60.0,167.0,33.0,1.0
353146,-0.984428,-1.121452,1.380792,0.342494,-0.204413,0.405668,0.0,11.0,60.0,167.0,33.0,1.0
353147,-1.002749,-1.11692,1.377437,0.344887,-0.159466,0.731805,0.0,11.0,60.0,167.0,33.0,1.0
353148,-1.037427,-1.113719,1.369135,-0.197293,0.411888,0.010075,0.0,11.0,60.0,167.0,33.0,1.0
353149,-1.072084,-1.112753,1.366722,-0.17285699999999998,0.31185100000000004,-0.069768,0.0,11.0,60.0,167.0,33.0,1.0
353150,-1.08936,-1.115483,1.352581,0.111709,0.142618,0.238367,0.0,11.0,60.0,167.0,33.0,1.0
353151,-1.117797,-1.121877,1.323534,0.316118,0.271966,0.330749,0.0,11.0,60.0,167.0,33.0,1.0
353152,-1.1941700000000002,-1.130876,1.281479,0.327227,0.24324,0.210245,0.0,11.0,60.0,167.0,33.0,1.0
353153,-1.295581,-1.139953,1.22599,0.354964,0.232545,0.009383,0.0,11.0,60.0,167.0,33.0,1.0
353154,-1.375196,-1.147128,1.173706,0.061558,0.088978,-0.101756,0.0,11.0,60.0,167.0,33.0,1.0
353155,-1.44099,-1.151584,1.128737,-0.005004,0.061657,-0.160874,0.0,11.0,60.0,167.0,33.0,1.0
353156,-1.4974610000000002,-1.151238,1.093316,-0.041786,0.068329,-0.246734,0.0,11.0,60.0,167.0,33.0,1.0
353157,-1.539145,-1.148896,1.061065,0.096968,0.17341099999999998,-0.570263,0.0,11.0,60.0,167.0,33.0,1.0
353158,-1.555221,-1.145979,1.035953,0.146153,0.193317,-0.66155,0.0,11.0,60.0,167.0,33.0,1.0
353159,-1.532197,-1.146783,1.034722,0.193932,0.06894700000000001,-0.5454939999999999,0.0,11.0,60.0,167.0,33.0,1.0
353160,-1.448965,-1.148981,1.093992,0.272467,-0.150522,-0.507709,0.0,11.0,60.0,167.0,33.0,1.0
353161,-1.315383,-1.139249,1.208533,0.36625,-0.284785,-0.42321,0.0,11.0,60.0,167.0,33.0,1.0
353162,-1.15774,-1.1190719999999998,1.339276,0.209204,-0.64373,0.503941,0.0,11.0,60.0,167.0,33.0,1.0
353163,-1.012462,-1.086148,1.468981,0.048569,-0.848477,1.0824200000000002,0.0,11.0,60.0,167.0,33.0,1.0
353164,-0.925323,-1.059913,1.564163,0.061002,-1.041136,1.131281,0.0,11.0,60.0,167.0,33.0,1.0
353165,-0.878742,-1.048402,1.629107,0.326851,-1.34409,0.555697,0.0,11.0,60.0,167.0,33.0,1.0
353166,-0.8508680000000001,-1.044436,1.666166,0.8137260000000001,-0.8976459999999999,0.577349,0.0,11.0,60.0,167.0,33.0,1.0
353167,-0.803383,-1.057518,1.6871580000000002,1.020958,-0.620255,0.470978,0.0,11.0,60.0,167.0,33.0,1.0
353168,-0.7678699999999999,-1.084431,1.691113,0.390738,-0.178303,0.297527,0.0,11.0,60.0,167.0,33.0,1.0
353169,-0.773694,-1.121957,1.657307,0.12997999999999998,-0.069576,0.22715900000000006,0.0,11.0,60.0,167.0,33.0,1.0
353170,-0.854351,-1.151737,1.574047,-0.15726700000000002,0.084727,0.245759,0.0,11.0,60.0,167.0,33.0,1.0
353171,-0.996164,-1.1628690000000002,1.474588,-0.324329,0.924432,-0.514316,0.0,11.0,60.0,167.0,33.0,1.0
353172,-1.111578,-1.173887,1.415783,0.251607,0.943157,-0.866757,0.0,11.0,60.0,167.0,33.0,1.0
353173,-1.151899,-1.1862,1.39244,0.096388,0.458319,-1.098951,0.0,11.0,60.0,167.0,33.0,1.0
353174,-1.190085,-1.207153,1.351271,-0.157628,0.173227,-0.675058,0.0,11.0,60.0,167.0,33.0,1.0
353175,-1.258028,-1.230083,1.300742,-0.27725700000000003,0.455997,-0.111508,0.0,11.0,60.0,167.0,33.0,1.0
353176,-1.263391,-1.235833,1.314877,-0.098074,0.529989,0.549878,0.0,11.0,60.0,167.0,33.0,1.0
353177,-1.2009379999999998,-1.242943,1.361342,-0.071046,0.112499,1.02825,0.0,11.0,60.0,167.0,33.0,1.0
353178,-1.155018,-1.244123,1.401354,-0.508774,0.51193,-0.726441,0.0,11.0,60.0,167.0,33.0,1.0
353179,-1.239721,-1.249188,1.392626,-0.16151400000000002,0.604372,0.082468,0.0,11.0,60.0,167.0,33.0,1.0
353180,-1.225216,-1.248062,1.405106,0.01079,1.002525,-0.445927,0.0,11.0,60.0,167.0,33.0,1.0
353181,-1.216283,-1.249267,1.397795,0.096133,0.905403,0.134722,0.0,11.0,60.0,167.0,33.0,1.0
353182,-1.197386,-1.243196,1.427066,0.148026,0.35871,0.205512,0.0,11.0,60.0,167.0,33.0,1.0
353183,-1.202819,-1.236366,1.4526940000000002,-0.182976,0.382643,-0.5187390000000001,0.0,11.0,60.0,167.0,33.0,1.0
353184,-1.161315,-1.2282620000000002,1.486429,-0.13091,0.323642,-0.367516,0.0,11.0,60.0,167.0,33.0,1.0
353185,-1.0726639999999998,-1.21457,1.539601,-0.061367,0.213675,-0.3904780000000001,0.0,11.0,60.0,167.0,33.0,1.0
353186,-0.96121,-1.190598,1.620677,0.089384,-0.27907,0.031739,0.0,11.0,60.0,167.0,33.0,1.0
353187,-0.855349,-1.1569200000000002,1.7055360000000002,-0.045894,-0.642009,0.5373100000000001,0.0,11.0,60.0,167.0,33.0,1.0
353188,-0.778647,-1.122271,1.769178,-0.039676,-0.8391059999999999,0.767382,0.0,11.0,60.0,167.0,33.0,1.0
353189,-0.7377239999999999,-1.104356,1.806541,0.327056,-1.444993,0.866917,0.0,11.0,60.0,167.0,33.0,1.0
353190,-0.705477,-1.1107790000000002,1.8347830000000005,0.562779,-1.672977,0.714147,0.0,11.0,60.0,167.0,33.0,1.0
353191,-0.683264,-1.131229,1.836812,0.641826,-1.428923,0.749785,0.0,11.0,60.0,167.0,33.0,1.0
353192,-0.6643140000000001,-1.164794,1.815621,0.749268,-0.217413,0.218083,0.0,11.0,60.0,167.0,33.0,1.0
353193,-0.672207,-1.2137209999999998,1.756922,0.207525,0.023709,0.086371,0.0,11.0,60.0,167.0,33.0,1.0
353194,-0.757382,-1.251585,1.63722,-0.06568600000000001,0.160166,0.285461,0.0,11.0,60.0,167.0,33.0,1.0
353195,-0.916588,-1.259679,1.484633,-0.185754,0.522678,0.163545,0.0,11.0,60.0,167.0,33.0,1.0
353196,-1.084193,-1.266843,1.3866969999999998,0.262014,0.568041,-0.7399899999999999,0.0,11.0,60.0,167.0,33.0,1.0
353197,-1.150487,-1.275308,1.3720290000000002,0.42903,0.5864,-1.226928,0.0,11.0,60.0,167.0,33.0,1.0
353198,-1.173047,-1.284675,1.335723,0.200392,0.4164479999999999,-1.580273,0.0,11.0,60.0,167.0,33.0,1.0
353199,-1.225432,-1.3067950000000002,1.276636,-0.131243,0.173257,0.87955,0.0,11.0,60.0,167.0,33.0,1.0
353200,-1.154244,-1.300435,1.375609,-0.016922,0.071375,1.518154,0.0,11.0,60.0,167.0,33.0,1.0
353201,-1.054439,-1.296106,1.489294,0.1433,-0.057022,1.211429,0.0,11.0,60.0,167.0,33.0,1.0
353202,-1.068055,-1.30648,1.519667,-0.518843,0.223297,-0.447461,0.0,11.0,60.0,167.0,33.0,1.0
353203,-1.180556,-1.325549,1.476053,-0.356371,0.279907,-0.184681,0.0,11.0,60.0,167.0,33.0,1.0
353204,-1.156603,-1.328524,1.484361,-0.226937,2.542709,-0.750255,0.0,11.0,60.0,167.0,33.0,1.0
353205,-1.052366,-1.3378709999999998,1.493804,0.213085,0.4165,1.388495,0.0,11.0,60.0,167.0,33.0,1.0
353206,-0.828348,-1.318852,1.6572080000000002,0.25869699999999995,-0.610596,0.742081,0.0,11.0,60.0,167.0,33.0,1.0
353207,-0.79314,-1.297633,1.734241,-0.507146,-0.226777,0.275042,0.0,11.0,60.0,167.0,33.0,1.0
353208,-0.973392,-1.300843,1.62196,-0.25363600000000003,0.221397,-0.438909,0.0,11.0,60.0,167.0,33.0,1.0
353209,-1.1075620000000002,-1.288186,1.533814,0.065275,0.421032,-0.617981,0.0,11.0,60.0,167.0,33.0,1.0
353210,-1.064282,-1.274275,1.53214,0.424458,0.459367,-0.5817479999999999,0.0,11.0,60.0,167.0,33.0,1.0
353211,-0.933024,-1.268307,1.595601,-0.094457,0.22396,-0.8862049999999999,0.0,11.0,60.0,167.0,33.0,1.0
353212,-0.758821,-1.229652,1.7378779999999998,-0.473477,-0.014745,-0.229428,0.0,11.0,60.0,167.0,33.0,1.0
353213,-0.646925,-1.167963,1.843937,-0.175017,-0.482774,0.555118,0.0,11.0,60.0,167.0,33.0,1.0
353214,-0.589011,-1.089787,1.924534,0.034893,-0.575386,0.898041,0.0,11.0,60.0,167.0,33.0,1.0
353215,-0.55567,-1.031794,1.987503,0.220893,-0.691809,1.071565,0.0,11.0,60.0,167.0,33.0,1.0
353216,-0.483671,-1.0044030000000002,2.042668,0.366871,-0.329697,0.118928,0.0,11.0,60.0,167.0,33.0,1.0
353217,-0.412536,-1.002857,2.064534,0.034263,0.667457,0.4382470000000001,0.0,11.0,60.0,167.0,33.0,1.0
353218,-0.359431,-1.020504,2.075946,0.240989,0.8220059999999999,0.415296,0.0,11.0,60.0,167.0,33.0,1.0
353219,-0.338743,-1.04952,2.083851,0.088256,-0.193448,0.26961,0.0,11.0,60.0,167.0,33.0,1.0
353220,-0.338982,-1.091392,2.075177,0.119716,-0.622225,0.082077,0.0,11.0,60.0,167.0,33.0,1.0
353221,-0.365326,-1.144031,2.042136,0.152895,-0.8685,0.020761,0.0,11.0,60.0,167.0,33.0,1.0
353222,-0.439362,-1.1993049999999998,1.979752,0.005266,-0.728876,-0.011262,0.0,11.0,60.0,167.0,33.0,1.0
353223,-0.577809,-1.2461870000000002,1.860221,-0.027557,-0.30777600000000005,0.079714,0.0,11.0,60.0,167.0,33.0,1.0
353224,-0.748757,-1.278624,1.690271,-0.016705,0.928671,-0.235533,0.0,11.0,60.0,167.0,33.0,1.0
353225,-0.908211,-1.281562,1.560325,-0.343595,2.341327,-0.8708799999999999,0.0,11.0,60.0,167.0,33.0,1.0
353226,-1.048756,-1.291805,1.507422,0.36853,0.705811,-0.981598,0.0,11.0,60.0,167.0,33.0,1.0
353227,-1.18965,-1.315856,1.430114,0.418248,-0.32552800000000004,-0.249733,0.0,11.0,60.0,167.0,33.0,1.0
353228,-1.202841,-1.340943,1.3999549999999998,0.320766,-1.208868,0.797691,0.0,11.0,60.0,167.0,33.0,1.0
353229,-1.123595,-1.351956,1.431905,0.156164,-1.270446,0.655504,0.0,11.0,60.0,167.0,33.0,1.0
353230,-1.072724,-1.360479,1.475739,0.143577,-1.283034,0.483103,0.0,11.0,60.0,167.0,33.0,1.0
353231,-1.103865,-1.378606,1.501031,0.033074,-0.327124,-0.8541989999999999,0.0,11.0,60.0,167.0,33.0,1.0
353232,-1.329193,-1.388003,1.410056,-1.1507690000000002,3.25279,-0.604677,0.0,11.0,60.0,167.0,33.0,1.0
353233,-1.332099,-1.389039,1.474936,-0.14524,0.968102,-0.34815300000000005,0.0,11.0,60.0,167.0,33.0,1.0
353234,-1.244476,-1.389866,1.509466,-0.5414770000000001,0.460766,0.153316,0.0,11.0,60.0,167.0,33.0,1.0
353235,-1.21694,-1.38146,1.499814,0.066873,0.050906,0.428444,0.0,11.0,60.0,167.0,33.0,1.0
353236,-1.232854,-1.362036,1.494724,0.097374,0.336515,-0.198065,0.0,11.0,60.0,167.0,33.0,1.0
353237,-1.180914,-1.340655,1.560217,0.126916,0.675826,-1.016852,0.0,11.0,60.0,167.0,33.0,1.0
353238,-0.985444,-1.314826,1.701282,-0.227244,0.5691729999999999,-0.7218359999999999,0.0,11.0,60.0,167.0,33.0,1.0
353239,-0.7768970000000001,-1.278738,1.851302,-0.401075,0.264194,-0.30069,0.0,11.0,60.0,167.0,33.0,1.0
353240,-0.630275,-1.218071,1.961593,-0.264988,-0.5444979999999999,0.921805,0.0,11.0,60.0,167.0,33.0,1.0
353241,-0.576786,-1.156351,2.01731,0.190676,-1.276378,1.191549,0.0,11.0,60.0,167.0,33.0,1.0
353242,-0.55788,-1.129891,2.058396,0.309856,-1.682304,0.7955180000000001,0.0,11.0,60.0,167.0,33.0,1.0
353243,-0.508877,-1.129273,2.103702,0.375573,-1.861545,0.484311,0.0,11.0,60.0,167.0,33.0,1.0
353244,-0.428606,-1.1419549999999998,2.122492,0.946081,-0.595865,0.660501,0.0,11.0,60.0,167.0,33.0,1.0
353245,-0.361892,-1.177141,2.132468,0.777596,-0.391577,0.371578,0.0,11.0,60.0,167.0,33.0,1.0
353246,-0.351372,-1.221582,2.11706,0.529674,-0.281256,0.328034,0.0,11.0,60.0,167.0,33.0,1.0
353247,-0.435715,-1.26509,2.030903,-0.265237,0.036508,0.021585,0.0,11.0,60.0,167.0,33.0,1.0
353248,-0.622386,-1.285701,1.879542,-0.169925,0.457693,-0.551147,0.0,11.0,60.0,167.0,33.0,1.0
353249,-0.815475,-1.28222,1.742529,0.258987,1.224898,-0.956637,0.0,11.0,60.0,167.0,33.0,1.0
353250,-0.882617,-1.288563,1.693464,0.195496,0.206877,-1.009221,0.0,11.0,60.0,167.0,33.0,1.0
353251,-0.97882,-1.30852,1.622912,-0.022418,0.008639,-0.62471,0.0,11.0,60.0,167.0,33.0,1.0
353252,-1.011733,-1.3245559999999998,1.600583,-0.744296,0.435926,0.605276,0.0,11.0,60.0,167.0,33.0,1.0
353253,-0.988013,-1.327627,1.614939,-0.730773,0.833879,0.5221210000000001,0.0,11.0,60.0,167.0,33.0,1.0
353254,-1.028169,-1.335109,1.583451,-0.309356,0.6468020000000001,0.377424,0.0,11.0,60.0,167.0,33.0,1.0
353255,-1.057581,-1.341508,1.569821,0.272006,0.002032,-0.062353,0.0,11.0,60.0,167.0,33.0,1.0
353256,-0.995978,-1.343743,1.62219,-0.13583900000000002,0.789704,-0.329208,0.0,11.0,60.0,167.0,33.0,1.0
353257,-0.997686,-1.346859,1.626814,-0.4889979999999999,1.408972,-0.957292,0.0,11.0,60.0,167.0,33.0,1.0
353258,-0.96579,-1.337333,1.645068,0.468754,0.229476,0.713923,0.0,11.0,60.0,167.0,33.0,1.0
353259,-0.912239,-1.322607,1.692941,0.216434,0.134233,0.147802,0.0,11.0,60.0,167.0,33.0,1.0
353260,-0.978251,-1.328726,1.655009,-0.147589,0.197781,0.174665,0.0,11.0,60.0,167.0,33.0,1.0
353261,-1.10035,-1.337114,1.548058,-0.13028299999999998,0.289036,-0.169995,0.0,11.0,60.0,167.0,33.0,1.0
353262,-1.205982,-1.334831,1.445723,0.035224,0.328324,-0.487554,0.0,11.0,60.0,167.0,33.0,1.0
353263,-1.247715,-1.32646,1.397656,0.039114,0.415612,-0.7060390000000001,0.0,11.0,60.0,167.0,33.0,1.0
353264,-1.172825,-1.313044,1.445501,-0.138629,0.243194,-0.794194,0.0,11.0,60.0,167.0,33.0,1.0
353265,-1.027028,-1.288183,1.562281,-0.144321,-0.159045,-0.406957,0.0,11.0,60.0,167.0,33.0,1.0
353266,-0.866143,-1.248055,1.692345,-0.029042,-0.5483600000000001,0.527921,0.0,11.0,60.0,167.0,33.0,1.0
353267,-0.746131,-1.19425,1.7859169999999998,-0.05819,-0.688195,0.95667,0.0,11.0,60.0,167.0,33.0,1.0
353268,-0.680797,-1.147041,1.856907,0.191997,-0.950797,0.831889,0.0,11.0,60.0,167.0,33.0,1.0
353269,-0.6293,-1.120848,1.927185,0.411374,-1.2290219999999998,0.559667,0.0,11.0,60.0,167.0,33.0,1.0
353270,-0.57205,-1.108986,1.97907,0.68414,-1.220885,0.6779229999999999,0.0,11.0,60.0,167.0,33.0,1.0
353271,-0.519616,-1.112375,2.000586,0.716194,-0.945946,0.806632,0.0,11.0,60.0,167.0,33.0,1.0
353272,-0.470269,-1.134372,2.017082,0.7744340000000001,-0.7906529999999999,0.664482,0.0,11.0,60.0,167.0,33.0,1.0
353273,-0.45499,-1.171095,2.018593,0.30714400000000003,-0.595936,0.395977,0.0,11.0,60.0,167.0,33.0,1.0
353274,-0.506618,-1.21922,1.969387,0.195857,-0.474048,0.265816,0.0,11.0,60.0,167.0,33.0,1.0
353275,-0.659105,-1.260502,1.833118,0.047181,-0.269443,0.168631,0.0,11.0,60.0,167.0,33.0,1.0
353276,-0.8992530000000001,-1.281524,1.63778,-0.4558680000000001,1.064543,-0.528643,0.0,11.0,60.0,167.0,33.0,1.0
353277,-1.074645,-1.288438,1.505664,0.199964,1.360949,-0.961428,0.0,11.0,60.0,167.0,33.0,1.0
353278,-1.145029,-1.299235,1.452599,0.311438,0.750621,-1.080568,0.0,11.0,60.0,167.0,33.0,1.0
353279,-1.1942469999999998,-1.32019,1.406105,-0.214886,0.148273,-0.742254,0.0,11.0,60.0,167.0,33.0,1.0
353280,-1.195665,-1.332604,1.404989,-0.765149,0.739995,0.055404,0.0,11.0,60.0,167.0,33.0,1.0
353281,-1.110097,-1.32761,1.470398,-0.490308,0.418096,1.135362,0.0,11.0,60.0,167.0,33.0,1.0
353282,-1.049493,-1.327731,1.51253,-0.462606,0.474753,0.99523,0.0,11.0,60.0,167.0,33.0,1.0
353283,-1.1276540000000002,-1.3337370000000002,1.478515,0.439159,0.438429,-0.146918,0.0,11.0,60.0,167.0,33.0,1.0
353284,-1.109833,-1.33646,1.498073,0.364326,0.986178,-0.171736,0.0,11.0,60.0,167.0,33.0,1.0
353285,-1.119716,-1.344706,1.480704,-0.433087,1.210279,-0.165852,0.0,11.0,60.0,167.0,33.0,1.0
353286,-1.120841,-1.337108,1.489525,0.155183,0.304998,0.6107899999999999,0.0,11.0,60.0,167.0,33.0,1.0
353287,-1.161209,-1.332054,1.473992,0.0713,0.30322,0.355273,0.0,11.0,60.0,167.0,33.0,1.0
353288,-1.289642,-1.337931,1.378834,-0.150556,0.3775,0.06892100000000001,0.0,11.0,60.0,167.0,33.0,1.0
353289,-1.334659,-1.33357,1.3361,-0.193886,0.348487,-0.586078,0.0,11.0,60.0,167.0,33.0,1.0
353290,-1.290416,-1.320981,1.353824,-0.125565,0.266043,-0.5025470000000001,0.0,11.0,60.0,167.0,33.0,1.0
353291,-1.190243,-1.300059,1.436777,-0.029665,0.170566,-0.415899,0.0,11.0,60.0,167.0,33.0,1.0
353292,-1.045181,-1.27019,1.565653,-0.056874,-0.321887,0.022398,0.0,11.0,60.0,167.0,33.0,1.0
353293,-0.900765,-1.227273,1.690387,0.035966000000000005,-0.58136,0.633025,0.0,11.0,60.0,167.0,33.0,1.0
353294,-0.809937,-1.176814,1.7711740000000002,0.172476,-0.794558,0.999855,0.0,11.0,60.0,167.0,33.0,1.0
353295,-0.7714529999999999,-1.14281,1.809647,0.414669,-1.33769,0.893115,0.0,11.0,60.0,167.0,33.0,1.0
353296,-0.740904,-1.14022,1.830606,0.48394,-1.586323,0.681246,0.0,11.0,60.0,167.0,33.0,1.0
353297,-0.726518,-1.148792,1.831649,0.5089640000000001,-1.12603,0.442418,0.0,11.0,60.0,167.0,33.0,1.0
353298,-0.700863,-1.160715,1.826417,0.607666,-0.779622,0.303052,0.0,11.0,60.0,167.0,33.0,1.0
353299,-0.677281,-1.183557,1.813649,0.73982,-0.75144,0.368064,0.0,11.0,60.0,167.0,33.0,1.0
353300,-0.6964199999999999,-1.209925,1.780393,0.424701,-0.702054,0.231539,0.0,11.0,60.0,167.0,33.0,1.0
353301,-0.765621,-1.244247,1.716287,0.126473,-0.279827,0.183738,0.0,11.0,60.0,167.0,33.0,1.0
353302,-0.944571,-1.267765,1.562077,-0.051713,0.000733,0.06528400000000001,0.0,11.0,60.0,167.0,33.0,1.0
353303,-1.164213,-1.246144,1.399442,-0.933543,2.966774,-0.813175,0.0,11.0,60.0,167.0,33.0,1.0
353304,-1.236242,-1.245287,1.405215,-0.027180000000000003,0.611594,-1.191924,0.0,11.0,60.0,167.0,33.0,1.0
353305,-1.298385,-1.259651,1.359625,-0.095815,0.088574,-0.967516,0.0,11.0,60.0,167.0,33.0,1.0
353306,-1.387665,-1.272521,1.304551,-0.293155,-0.176884,-0.62503,0.0,11.0,60.0,167.0,33.0,1.0
353307,-1.437397,-1.27785,1.290292,-0.208077,-0.014191,0.584914,0.0,11.0,60.0,167.0,33.0,1.0
353308,-1.396623,-1.274515,1.324992,-0.218959,0.411583,0.7404270000000001,0.0,11.0,60.0,167.0,33.0,1.0
353309,-1.376453,-1.275724,1.329249,0.024754,0.51412,0.6242880000000001,0.0,11.0,60.0,167.0,33.0,1.0
353310,-1.378859,-1.27803,1.311036,0.001404,0.749963,0.000911,0.0,11.0,60.0,167.0,33.0,1.0
353311,-1.450209,-1.279748,1.288876,0.204313,0.8446530000000001,-0.576918,0.0,11.0,60.0,167.0,33.0,1.0
353312,-1.468906,-1.277651,1.327232,-0.002552,0.727932,-0.034332,0.0,11.0,60.0,167.0,33.0,1.0
353313,-1.397422,-1.273068,1.37293,0.241976,0.209324,0.461337,0.0,11.0,60.0,167.0,33.0,1.0
353314,-1.357027,-1.275724,1.368096,0.308504,0.328986,0.536115,0.0,11.0,60.0,167.0,33.0,1.0
353315,-1.372205,-1.28699,1.32211,0.214164,0.450266,0.390428,0.0,11.0,60.0,167.0,33.0,1.0
353316,-1.498574,-1.296402,1.212603,-0.200305,0.144787,-0.028286,0.0,11.0,60.0,167.0,33.0,1.0
353317,-1.6737240000000002,-1.294101,1.096408,-0.177806,-0.024906,-0.174244,0.0,11.0,60.0,167.0,33.0,1.0
353318,-1.815108,-1.280188,1.001624,0.15988,-0.442658,-0.159589,0.0,11.0,60.0,167.0,33.0,1.0
353319,-1.877579,-1.2629629999999998,0.921454,0.433779,-0.637791,0.031248,0.0,11.0,60.0,167.0,33.0,1.0
353320,-1.909962,-1.248832,0.83699,0.41784,-0.6647109999999999,0.119799,0.0,11.0,60.0,167.0,33.0,1.0
353321,-1.960939,-1.233525,0.7532310000000001,-0.035912,-0.280194,-0.032246,0.0,11.0,60.0,167.0,33.0,1.0
353322,-2.050294,-1.204107,0.679723,-0.45358,-0.051684,-0.340483,0.0,11.0,60.0,167.0,33.0,1.0
353323,-2.124261,-1.164538,0.6423439999999999,0.070869,-0.20274,-0.34428800000000004,0.0,11.0,60.0,167.0,33.0,1.0
353324,-2.12799,-1.128427,0.6364380000000001,0.5509189999999999,-0.307716,-0.314129,0.0,11.0,60.0,167.0,33.0,1.0
353325,-2.096735,-1.103991,0.633792,0.313986,0.242289,-0.516446,0.0,11.0,60.0,167.0,33.0,1.0
353326,-2.0837,-1.085121,0.64137,0.4459520000000001,0.29986,-0.5265569999999999,0.0,11.0,60.0,167.0,33.0,1.0
353327,-2.066122,-1.068965,0.6730189999999999,0.630614,0.051977,-0.576717,0.0,11.0,60.0,167.0,33.0,1.0
353328,-2.041236,-1.055006,0.7136899999999999,0.509099,0.05037,-0.705522,0.0,11.0,60.0,167.0,33.0,1.0
353329,-2.004443,-1.044147,0.771489,0.486799,0.092169,-0.723568,0.0,11.0,60.0,167.0,33.0,1.0
353330,-1.928964,-1.040058,0.874762,0.450045,0.529305,-0.522544,0.0,11.0,60.0,167.0,33.0,1.0
353331,-1.844277,-1.052306,0.992737,0.669121,0.677025,0.046244,0.0,11.0,60.0,167.0,33.0,1.0
353332,-1.734535,-1.082791,1.125932,0.367682,0.559678,0.745046,0.0,11.0,60.0,167.0,33.0,1.0
353333,-1.631781,-1.123296,1.256431,0.252783,0.907978,0.983013,0.0,11.0,60.0,167.0,33.0,1.0
353334,-1.507927,-1.168619,1.419253,0.091786,1.5894629999999998,0.748605,0.0,11.0,60.0,167.0,33.0,1.0
353335,-1.374555,-1.197105,1.592108,-0.235906,1.921751,0.31434,0.0,11.0,60.0,167.0,33.0,1.0
353336,-1.268061,-1.219691,1.711226,-0.434099,0.842318,-0.252296,0.0,11.0,60.0,167.0,33.0,1.0
353337,-1.149133,-1.267034,1.81448,-0.063762,0.62348,-0.230021,0.0,11.0,60.0,167.0,33.0,1.0
353338,-1.059454,-1.31043,1.909633,0.071177,0.252607,0.443894,0.0,11.0,60.0,167.0,33.0,1.0
353339,-0.934062,-1.320024,2.085039,-0.026311,-0.055070000000000015,0.427833,0.0,11.0,60.0,167.0,33.0,1.0
353340,-0.8470979999999999,-1.309723,2.237734,-0.061997,-0.23492800000000005,0.5418850000000001,0.0,11.0,60.0,167.0,33.0,1.0
353341,-0.820932,-1.300132,2.340089,-0.046212,-0.403764,0.6906,0.0,11.0,60.0,167.0,33.0,1.0
353342,-0.824365,-1.291974,2.411067,-0.030286,-0.566361,0.7419979999999999,0.0,11.0,60.0,167.0,33.0,1.0
353343,-0.8493930000000001,-1.28383,2.459447,0.013983,-0.677399,0.623854,0.0,11.0,60.0,167.0,33.0,1.0
353344,-0.8892700000000001,-1.278459,2.485175,0.049632,-0.76902,0.43,0.0,11.0,60.0,167.0,33.0,1.0
353345,-0.950954,-1.27647,2.48962,0.078,-0.830426,0.24162600000000006,0.0,11.0,60.0,167.0,33.0,1.0
353346,-1.04561,-1.281176,2.461657,0.124323,-0.636133,0.031527,0.0,11.0,60.0,167.0,33.0,1.0
353347,-1.163248,-1.288155,2.405169,0.138184,-0.169444,-0.308825,0.0,11.0,60.0,167.0,33.0,1.0
353348,-1.240466,-1.289994,2.380363,0.084217,0.6086090000000001,-1.165919,0.0,11.0,60.0,167.0,33.0,1.0
353349,-1.173394,-1.276703,2.519858,0.35188600000000003,0.952572,-1.320622,0.0,11.0,60.0,167.0,33.0,1.0
353350,-1.075446,-1.265378,2.69489,0.61852,0.5434100000000001,-0.616799,0.0,11.0,60.0,167.0,33.0,1.0
353351,-0.985498,-1.267263,2.835555,0.650249,0.127486,-0.126453,0.0,11.0,60.0,167.0,33.0,1.0
353352,-0.8809100000000001,-1.264874,3.0022830000000003,0.807633,-0.188479,-0.037656,0.0,11.0,60.0,167.0,33.0,1.0
353353,-0.784227,-1.2554040000000002,-3.108114,1.157269,-0.408255,0.276389,0.0,11.0,60.0,167.0,33.0,1.0
353354,-0.718436,-1.257953,-3.00332,0.122376,-0.599823,1.364938,0.0,11.0,60.0,167.0,33.0,1.0
353355,-0.679752,-1.248063,-2.958047,-1.856919,1.60392,-0.221703,0.0,11.0,60.0,167.0,33.0,1.0
353356,-0.767894,-1.238654,-2.958269,-8e-05,0.349362,0.838542,0.0,11.0,60.0,167.0,33.0,1.0
353357,-0.8195889999999999,-1.258995,-2.998212,0.175841,0.0177,1.442521,0.0,11.0,60.0,167.0,33.0,1.0
353358,-0.80678,-1.255919,-3.03527,-0.563592,-0.08897200000000001,0.730008,0.0,11.0,60.0,167.0,33.0,1.0
353359,-0.8154100000000001,-1.246859,-3.096654,-0.497444,0.050332,0.6328020000000001,0.0,11.0,60.0,167.0,33.0,1.0
353360,-0.906252,-1.23,3.082166,-0.276423,0.305238,0.514249,0.0,11.0,60.0,167.0,33.0,1.0
353361,-1.0304209999999998,-1.204012,3.02795,0.6115970000000001,0.602754,0.37087,0.0,11.0,60.0,167.0,33.0,1.0
353362,-1.22442,-1.198381,2.967344,0.646332,0.604788,0.30991,0.0,11.0,60.0,167.0,33.0,1.0
353363,-1.410202,-1.213929,2.8763,0.63807,0.330216,-0.200688,0.0,11.0,60.0,167.0,33.0,1.0
353364,-1.467931,-1.233119,2.838578,0.251109,0.062958,-0.23853600000000005,0.0,11.0,60.0,167.0,33.0,1.0
353365,-1.530493,-1.253105,2.788919,0.122035,-0.016442,-0.106784,0.0,11.0,60.0,167.0,33.0,1.0
353366,-1.618911,-1.268885,2.719559,-0.038426,-0.231961,0.112119,0.0,11.0,60.0,167.0,33.0,1.0
353367,-1.7340950000000002,-1.281527,2.623187,-0.120728,-0.307467,-0.142287,0.0,11.0,60.0,167.0,33.0,1.0
353368,-1.859469,-1.284874,2.517987,-0.205055,-0.305075,-0.289666,0.0,11.0,60.0,167.0,33.0,1.0
353369,-1.954842,-1.279046,2.453401,-0.205577,-0.371743,-0.311691,0.0,11.0,60.0,167.0,33.0,1.0
353370,-2.034775,-1.270389,2.402148,0.148955,-0.13363699999999998,-0.153025,0.0,11.0,60.0,167.0,33.0,1.0
353371,-2.096239,-1.260907,2.358772,0.185181,-0.150945,-0.055645000000000014,0.0,11.0,60.0,167.0,33.0,1.0
353372,-2.141022,-1.250848,2.330429,0.192071,-0.177371,0.04869,0.0,11.0,60.0,167.0,33.0,1.0
353373,-2.188679,-1.237168,2.301687,0.032287,-0.121969,0.059054,0.0,11.0,60.0,167.0,33.0,1.0
353374,-2.247962,-1.218075,2.270918,-0.007965,-0.035116,-0.078715,0.0,11.0,60.0,167.0,33.0,1.0
353375,-2.328399,-1.192955,2.24012,-0.076672,0.232662,-0.410462,0.0,11.0,60.0,167.0,33.0,1.0
353376,-2.418653,-1.164576,2.212171,-0.092126,0.423527,-0.6808350000000001,0.0,11.0,60.0,167.0,33.0,1.0
353377,-2.4727900000000003,-1.139318,2.195139,0.096563,0.4577100000000001,-0.741779,0.0,11.0,60.0,167.0,33.0,1.0
353378,-2.467083,-1.123771,2.192694,0.321575,0.507031,-0.615908,0.0,11.0,60.0,167.0,33.0,1.0
353379,-2.438,-1.119397,2.20603,0.284175,0.436542,-0.617237,0.0,11.0,60.0,167.0,33.0,1.0
353380,-2.412444,-1.126618,2.261034,0.307517,0.751318,-0.549292,0.0,11.0,60.0,167.0,33.0,1.0
353381,-2.372834,-1.150673,2.363916,0.481721,0.643755,-0.414566,0.0,11.0,60.0,167.0,33.0,1.0
353382,-2.302378,-1.186082,2.501648,0.203103,0.207372,-0.268123,0.0,11.0,60.0,167.0,33.0,1.0
353383,-2.182793,-1.222243,2.677857,0.049167,0.104581,-0.17879,0.0,11.0,60.0,167.0,33.0,1.0
353384,-2.01425,-1.252346,2.881691,0.156154,0.407548,0.19827,0.0,11.0,60.0,167.0,33.0,1.0
353385,-1.802211,-1.274094,3.103311,0.204882,0.490853,0.50073,0.0,11.0,60.0,167.0,33.0,1.0
353386,-1.565234,-1.2867030000000002,-2.947539,0.242674,0.493865,0.732287,0.0,11.0,60.0,167.0,33.0,1.0
353387,-1.366573,-1.293783,-2.752683,0.15889,0.415687,0.321817,0.0,11.0,60.0,167.0,33.0,1.0
353388,-1.222704,-1.296533,-2.606969,0.158364,0.399252,0.121779,0.0,11.0,60.0,167.0,33.0,1.0
353389,-1.090827,-1.2967959999999998,-2.465706,0.111603,0.338741,0.101617,0.0,11.0,60.0,167.0,33.0,1.0
353390,-0.963646,-1.29796,-2.316363,0.107913,0.207781,0.413963,0.0,11.0,60.0,167.0,33.0,1.0
353391,-0.8587100000000001,-1.2999690000000002,-2.154885,0.28877600000000003,0.006421,0.457492,0.0,11.0,60.0,167.0,33.0,1.0
353392,-0.723975,-1.288133,-1.972331,0.23215500000000006,-0.097294,0.369769,0.0,11.0,60.0,167.0,33.0,1.0
353393,-0.624185,-1.266765,-1.813036,0.065439,-0.161916,0.483765,0.0,11.0,60.0,167.0,33.0,1.0
353394,-0.563517,-1.242197,-1.68242,0.05946,-0.280648,0.542917,0.0,11.0,60.0,167.0,33.0,1.0
353395,-0.545733,-1.217655,-1.586419,0.033842000000000004,-0.320508,0.616873,0.0,11.0,60.0,167.0,33.0,1.0
353396,-0.553871,-1.196686,-1.517984,-0.047596,-0.427766,0.587562,0.0,11.0,60.0,167.0,33.0,1.0
353397,-0.573623,-1.182082,-1.468821,-0.119375,-0.5448430000000001,0.478635,0.0,11.0,60.0,167.0,33.0,1.0
353398,-0.603684,-1.178346,-1.440223,-0.150221,-0.496698,0.4423470000000001,0.0,11.0,60.0,167.0,33.0,1.0
353399,-0.637316,-1.184026,-1.429285,-0.159851,-0.448852,0.359174,0.0,11.0,60.0,167.0,33.0,1.0
353400,-0.6819350000000001,-1.195461,-1.437666,-0.084122,-0.446422,0.152143,0.0,11.0,60.0,167.0,33.0,1.0
353401,-0.7534310000000001,-1.210698,-1.473761,0.09125,-0.267313,-0.118562,0.0,11.0,60.0,167.0,33.0,1.0
353402,-0.853498,-1.2255969999999998,-1.532937,0.23581,0.232118,-0.316788,0.0,11.0,60.0,167.0,33.0,1.0
353403,-0.931048,-1.23458,-1.566491,-0.002702,0.746069,-0.8366969999999999,0.0,11.0,60.0,167.0,33.0,1.0
353404,-0.927924,-1.230913,-1.511109,0.003952000000000001,0.809755,-1.123775,0.0,11.0,60.0,167.0,33.0,1.0
353405,-0.8726389999999999,-1.2270219999999998,-1.423424,0.319971,0.246224,-0.29184,0.0,11.0,60.0,167.0,33.0,1.0
353406,-0.796215,-1.225725,-1.334282,0.24433,0.005558,-0.6718850000000001,0.0,11.0,60.0,167.0,33.0,1.0
353407,-0.7330800000000001,-1.223214,-1.24408,0.285098,-0.06616,-0.971358,0.0,11.0,60.0,167.0,33.0,1.0
353408,-0.65147,-1.2293040000000002,-1.19676,0.13831300000000002,-0.015650999999999998,1.796156,0.0,11.0,60.0,167.0,33.0,1.0
353409,-0.572858,-1.236842,-1.171106,-0.791607,0.38714,-0.112377,0.0,11.0,60.0,167.0,33.0,1.0
353410,-0.541207,-1.230484,-1.131832,-0.105488,-0.419518,0.681636,0.0,11.0,60.0,167.0,33.0,1.0
353411,-0.521215,-1.224658,-1.126643,0.025631,-0.726304,0.663561,0.0,11.0,60.0,167.0,33.0,1.0
353412,-0.5264260000000001,-1.225293,-1.153867,-0.184305,-0.065996,0.333654,0.0,11.0,60.0,167.0,33.0,1.0
353413,-0.593635,-1.226102,-1.212975,-0.174529,0.176512,0.273891,0.0,11.0,60.0,167.0,33.0,1.0
353414,-0.689818,-1.22662,-1.283561,-0.05592,0.30040700000000004,0.196345,0.0,11.0,60.0,167.0,33.0,1.0
353415,-0.771696,-1.232821,-1.357236,0.364106,0.665108,0.33276500000000003,0.0,11.0,60.0,167.0,33.0,1.0
353416,-0.8281940000000001,-1.242959,-1.408213,0.4639680000000001,0.678244,0.233366,0.0,11.0,60.0,167.0,33.0,1.0
353417,-0.889307,-1.259291,-1.428394,0.422941,0.495102,0.128932,0.0,11.0,60.0,167.0,33.0,1.0
353418,-0.961164,-1.276774,-1.449406,-0.060574,0.079764,0.074491,0.0,11.0,60.0,167.0,33.0,1.0
353419,-1.048697,-1.289895,-1.483522,-0.227334,0.030436,-0.16583599999999998,0.0,11.0,60.0,167.0,33.0,1.0
353420,-1.128083,-1.296217,-1.52018,-0.260479,0.090149,-0.223285,0.0,11.0,60.0,167.0,33.0,1.0
353421,-1.177879,-1.29759,-1.547259,0.046374,0.208064,-0.287399,0.0,11.0,60.0,167.0,33.0,1.0
353422,-1.2067709999999998,-1.297182,-1.56504,0.097487,0.205534,-0.328408,0.0,11.0,60.0,167.0,33.0,1.0
353423,-1.198128,-1.2943049999999998,-1.558472,0.121305,0.158113,-0.363978,0.0,11.0,60.0,167.0,33.0,1.0
353424,-1.138734,-1.284827,-1.51257,0.121657,-0.043083,-0.488529,0.0,11.0,60.0,167.0,33.0,1.0
353425,-1.042371,-1.2646389999999998,-1.428948,0.07924199999999999,-0.106209,-0.421508,0.0,11.0,60.0,167.0,33.0,1.0
353426,-0.915199,-1.232494,-1.322019,-0.019738,-0.47309,0.30556,0.0,11.0,60.0,167.0,33.0,1.0
353427,-0.786922,-1.192134,-1.226443,-0.130176,-0.702994,0.7504970000000001,0.0,11.0,60.0,167.0,33.0,1.0
353428,-0.690018,-1.159837,-1.159732,-0.051452,-0.809041,0.936479,0.0,11.0,60.0,167.0,33.0,1.0
353429,-0.623012,-1.156955,-1.116271,0.159572,-1.518641,0.718935,0.0,11.0,60.0,167.0,33.0,1.0
353430,-0.579403,-1.171025,-1.081376,0.263922,-1.481865,0.671211,0.0,11.0,60.0,167.0,33.0,1.0
353431,-0.554091,-1.180916,-1.071026,0.5321640000000001,-1.330518,0.5103800000000001,0.0,11.0,60.0,167.0,33.0,1.0
353432,-0.522253,-1.190406,-1.072393,0.7345189999999999,-0.679756,0.313892,0.0,11.0,60.0,167.0,33.0,1.0
353433,-0.530353,-1.201302,-1.091033,0.316952,-0.5460050000000001,0.323914,0.0,11.0,60.0,167.0,33.0,1.0
353434,-0.5689069999999999,-1.215356,-1.131067,0.21661100000000005,-0.387262,0.26402,0.0,11.0,60.0,167.0,33.0,1.0
353435,-0.642031,-1.230293,-1.2106709999999998,-0.241216,1.017649,0.258405,0.0,11.0,60.0,167.0,33.0,1.0
353436,-0.744632,-1.232523,-1.302671,-0.351844,1.66748,-0.572449,0.0,11.0,60.0,167.0,33.0,1.0
353437,-0.775775,-1.239876,-1.295509,0.14058800000000002,1.008846,-0.911478,0.0,11.0,60.0,167.0,33.0,1.0
353438,-0.782692,-1.266764,-1.2971469999999998,-0.206134,0.40243,-0.393068,0.0,11.0,60.0,167.0,33.0,1.0
353439,-0.807024,-1.297987,-1.304434,-0.148265,0.065745,-0.213252,0.0,11.0,60.0,167.0,33.0,1.0
353440,-0.8506959999999999,-1.317134,-1.305174,-0.215341,-0.066892,-0.353136,0.0,11.0,60.0,167.0,33.0,1.0
353441,-0.843548,-1.326091,-1.281922,-0.286902,0.163641,0.466258,0.0,11.0,60.0,167.0,33.0,1.0
353442,-0.779438,-1.331654,-1.256756,-0.428037,0.341706,0.929642,0.0,11.0,60.0,167.0,33.0,1.0
353443,-0.725089,-1.33199,-1.222163,-0.464567,0.647825,-0.475732,0.0,11.0,60.0,167.0,33.0,1.0
353444,-0.7953279999999999,-1.33473,-1.2289139999999998,0.330022,1.120767,-0.291991,0.0,11.0,60.0,167.0,33.0,1.0
353445,-0.758255,-1.329734,-1.18692,0.172027,0.79367,-0.035867,0.0,11.0,60.0,167.0,33.0,1.0
353446,-0.739978,-1.325785,-1.159281,-0.116318,0.753346,0.171351,0.0,11.0,60.0,167.0,33.0,1.0
353447,-0.7617189999999999,-1.318646,-1.15494,0.190897,0.356314,0.327318,0.0,11.0,60.0,167.0,33.0,1.0
353448,-0.781678,-1.3221379999999998,-1.158602,-0.199962,0.376597,-0.25961,0.0,11.0,60.0,167.0,33.0,1.0
353449,-0.764591,-1.321229,-1.1408459999999998,-0.355177,0.380285,-0.46612,0.0,11.0,60.0,167.0,33.0,1.0
353450,-0.694801,-1.308437,-1.094066,-0.188696,0.168237,-0.6081810000000001,0.0,11.0,60.0,167.0,33.0,1.0
353451,-0.593178,-1.283268,-1.026359,-0.209679,-0.04313,-0.312496,0.0,11.0,60.0,167.0,33.0,1.0
353452,-0.493447,-1.239677,-0.958688,-0.171821,-0.202637,0.043008,0.0,11.0,60.0,167.0,33.0,1.0
353453,-0.429914,-1.185961,-0.920878,-0.181809,-0.802944,0.877767,0.0,11.0,60.0,167.0,33.0,1.0
353454,-0.405566,-1.139691,-0.906951,-0.026556,-1.196041,1.079283,0.0,11.0,60.0,167.0,33.0,1.0
353455,-0.396364,-1.114384,-0.892282,0.255293,-1.7201799999999998,0.720092,0.0,11.0,60.0,167.0,33.0,1.0
353456,-0.364501,-1.105843,-0.8858459999999999,0.566439,-1.246625,0.639926,0.0,11.0,60.0,167.0,33.0,1.0
353457,-0.316445,-1.105358,-0.880231,0.742692,-0.5436949999999999,0.583689,0.0,11.0,60.0,167.0,33.0,1.0
353458,-0.272167,-1.119941,-0.860823,0.320288,-0.362309,0.358197,0.0,11.0,60.0,167.0,33.0,1.0
353459,-0.24642,-1.14964,-0.8517469999999999,0.139899,-0.34528000000000003,0.308706,0.0,11.0,60.0,167.0,33.0,1.0
353460,-0.253508,-1.189023,-0.887141,-0.295203,0.226475,0.194941,0.0,11.0,60.0,167.0,33.0,1.0
353461,-0.32019000000000003,-1.225866,-0.95944,-0.27780900000000003,0.727297,-0.345323,0.0,11.0,60.0,167.0,33.0,1.0
353462,-0.400341,-1.256053,-1.020541,-0.104787,0.881964,-0.41978,0.0,11.0,60.0,167.0,33.0,1.0
353463,-0.448067,-1.28047,-1.057835,0.220081,0.429514,-0.6999810000000001,0.0,11.0,60.0,167.0,33.0,1.0
353464,-0.514853,-1.305284,-1.101193,0.103217,0.412026,-0.613635,0.0,11.0,60.0,167.0,33.0,1.0
353465,-0.5555140000000001,-1.338454,-1.109305,-0.112904,0.408706,-0.388333,0.0,11.0,60.0,167.0,33.0,1.0
353466,-0.561276,-1.367714,-1.089342,-0.354998,-0.035648,-0.013352,0.0,11.0,60.0,167.0,33.0,1.0
353467,-0.569753,-1.382882,-1.0724790000000002,-0.188456,-0.174275,0.226025,0.0,11.0,60.0,167.0,33.0,1.0
353468,-0.5010979999999999,-1.38299,-1.01812,-0.572443,-0.06969700000000001,0.701941,0.0,11.0,60.0,167.0,33.0,1.0
353469,-0.454108,-1.386922,-0.969479,-0.5941960000000001,0.244396,-0.230391,0.0,11.0,60.0,167.0,33.0,1.0
353470,-0.558082,-1.3977620000000002,-1.011817,-0.116508,0.15249100000000002,-0.035747,0.0,11.0,60.0,167.0,33.0,1.0
353471,-0.64382,-1.4128459999999998,-1.066265,-0.32761,2.947431,-2.662803,0.0,11.0,60.0,167.0,33.0,1.0
353472,-0.5816279999999999,-1.40872,-1.045493,-0.201689,0.261855,0.952014,0.0,11.0,60.0,167.0,33.0,1.0
353473,-0.440054,-1.391063,-0.966051,0.267367,-0.4809310000000001,0.921545,0.0,11.0,60.0,167.0,33.0,1.0
353474,-0.38508,-1.360427,-0.917993,-0.153301,-0.4147520000000001,0.468736,0.0,11.0,60.0,167.0,33.0,1.0
353475,-0.477221,-1.370718,-0.969779,-0.351867,0.143164,0.032772,0.0,11.0,60.0,167.0,33.0,1.0
353476,-0.67624,-1.388643,-1.107858,-0.143673,0.349491,-0.21173000000000006,0.0,11.0,60.0,167.0,33.0,1.0
353477,-0.816211,-1.388796,-1.217783,0.203462,0.4184020000000001,-0.6330060000000001,0.0,11.0,60.0,167.0,33.0,1.0
353478,-0.847936,-1.3947969999999998,-1.278266,0.132509,0.496603,-0.75888,0.0,11.0,60.0,167.0,33.0,1.0
353479,-0.773849,-1.392725,-1.249002,-0.181409,0.282552,-0.610142,0.0,11.0,60.0,167.0,33.0,1.0
353480,-0.642674,-1.359349,-1.154479,-0.176714,-0.198874,-0.432244,0.0,11.0,60.0,167.0,33.0,1.0
353481,-0.5112720000000001,-1.298671,-1.051124,-0.220211,-0.344199,0.35988600000000004,0.0,11.0,60.0,167.0,33.0,1.0
353482,-0.443049,-1.222193,-0.982561,-0.288137,-0.41385,0.846592,0.0,11.0,60.0,167.0,33.0,1.0
353483,-0.4227010000000001,-1.152416,-0.937418,0.045814,-0.819113,1.0953389999999998,0.0,11.0,60.0,167.0,33.0,1.0
353484,-0.404203,-1.101612,-0.8933840000000001,0.221847,-1.070404,0.886497,0.0,11.0,60.0,167.0,33.0,1.0
353485,-0.357625,-1.066236,-0.857843,0.429383,-1.282415,0.600553,0.0,11.0,60.0,167.0,33.0,1.0
353486,-0.29254600000000003,-1.0512629999999998,-0.825525,0.742055,-0.518411,0.633153,0.0,11.0,60.0,167.0,33.0,1.0
353487,-0.227278,-1.062845,-0.786926,0.274268,-0.300104,0.5213760000000001,0.0,11.0,60.0,167.0,33.0,1.0
353488,-0.170062,-1.101634,-0.752959,0.113721,-0.248606,0.459466,0.0,11.0,60.0,167.0,33.0,1.0
353489,-0.156513,-1.15646,-0.756356,0.024192,-0.11561,0.088634,0.0,11.0,60.0,167.0,33.0,1.0
353490,-0.212715,-1.218652,-0.804599,-0.363999,-0.145087,-0.164748,0.0,11.0,60.0,167.0,33.0,1.0
353491,-0.32655700000000004,-1.287866,-0.892301,-0.261509,0.072931,-0.215468,0.0,11.0,60.0,167.0,33.0,1.0
353492,-0.499401,-1.349024,-1.047135,0.012252,0.8002779999999999,-0.107167,0.0,11.0,60.0,167.0,33.0,1.0
353493,-0.6575989999999999,-1.375774,-1.202877,0.093121,1.1065120000000002,-1.036001,0.0,11.0,60.0,167.0,33.0,1.0
353494,-0.735278,-1.392385,-1.244148,0.22338400000000005,0.332554,-0.8996940000000001,0.0,11.0,60.0,167.0,33.0,1.0
353495,-0.761624,-1.4142,-1.228588,0.025257,-0.16436900000000002,-0.473193,0.0,11.0,60.0,167.0,33.0,1.0
353496,-0.597866,-1.423524,-1.111958,-0.150052,-0.343652,0.921376,0.0,11.0,60.0,167.0,33.0,1.0
353497,-0.369207,-1.428779,-0.951986,-0.558565,0.082577,0.8670399999999999,0.0,11.0,60.0,167.0,33.0,1.0
353498,-0.307741,-1.43781,-0.88165,-0.596396,0.966548,-1.156041,0.0,11.0,60.0,167.0,33.0,1.0
353499,-0.441589,-1.434487,-0.935287,-0.211422,2.942885,-1.611868,0.0,11.0,60.0,167.0,33.0,1.0
353500,-0.336799,-1.398061,-0.878768,0.153641,0.146748,1.051453,0.0,11.0,60.0,167.0,33.0,1.0
353501,-0.246069,-1.361828,-0.8239920000000001,0.347725,-0.258168,0.613799,0.0,11.0,60.0,167.0,33.0,1.0
353502,-0.27876300000000004,-1.356115,-0.817656,-0.122369,0.25437,-0.03495,0.0,11.0,60.0,167.0,33.0,1.0
353503,-0.324869,-1.356175,-0.8276020000000001,-0.246723,0.613748,-0.239158,0.0,11.0,60.0,167.0,33.0,1.0
353504,-0.303994,-1.337594,-0.8279059999999999,-0.182479,0.477386,-0.035910000000000004,0.0,11.0,60.0,167.0,33.0,1.0
353505,-0.282035,-1.318221,-0.828151,-0.09557,0.033986,-0.023996,0.0,11.0,60.0,167.0,33.0,1.0
353506,-0.268896,-1.285311,-0.825357,-0.108398,-0.12165,-0.117211,0.0,11.0,60.0,167.0,33.0,1.0
353507,-0.264615,-1.24209,-0.8274950000000001,-0.282516,-0.542042,0.352406,0.0,11.0,60.0,167.0,33.0,1.0
353508,-0.280379,-1.195449,-0.83609,-0.168821,-0.73255,0.795465,0.0,11.0,60.0,167.0,33.0,1.0
353509,-0.304365,-1.158939,-0.840606,0.059725,-1.197263,0.961633,0.0,11.0,60.0,167.0,33.0,1.0
353510,-0.30082600000000004,-1.14165,-0.831995,0.181534,-1.5224959999999998,0.622729,0.0,11.0,60.0,167.0,33.0,1.0
353511,-0.284685,-1.1328120000000002,-0.834714,0.278796,-1.028014,0.60737,0.0,11.0,60.0,167.0,33.0,1.0
353512,-0.23534,-1.126915,-0.8179649999999999,0.395941,-0.632263,0.554186,0.0,11.0,60.0,167.0,33.0,1.0
353513,-0.17486300000000002,-1.135346,-0.792208,0.505971,-0.507617,0.319921,0.0,11.0,60.0,167.0,33.0,1.0
353514,-0.139402,-1.166333,-0.782572,0.118675,-0.27138,0.33631,0.0,11.0,60.0,167.0,33.0,1.0
353515,-0.150278,-1.216289,-0.810407,0.006405,-0.007595999999999999,0.123556,0.0,11.0,60.0,167.0,33.0,1.0
353516,-0.253937,-1.264245,-0.904005,-0.330702,0.487736,-0.385437,0.0,11.0,60.0,167.0,33.0,1.0
353517,-0.382042,-1.286753,-0.993658,-0.230534,1.26857,-0.804873,0.0,11.0,60.0,167.0,33.0,1.0
353518,-0.44586,-1.304428,-1.025423,-0.007495,0.836521,-0.647618,0.0,11.0,60.0,167.0,33.0,1.0
353519,-0.469199,-1.334671,-1.030544,-0.016329,0.33168800000000004,-0.74093,0.0,11.0,60.0,167.0,33.0,1.0
353520,-0.474833,-1.371998,-1.032292,-0.275335,-0.439198,0.591044,0.0,11.0,60.0,167.0,33.0,1.0
353521,-0.403053,-1.382057,-1.004609,-0.684048,-0.247973,1.01714,0.0,11.0,60.0,167.0,33.0,1.0
353522,-0.346549,-1.385414,-0.971849,-0.446084,0.313796,-0.095288,0.0,11.0,60.0,167.0,33.0,1.0
353523,-0.462023,-1.407293,-1.0338969999999998,0.406486,0.331742,-0.266988,0.0,11.0,60.0,167.0,33.0,1.0
353524,-0.445407,-1.422224,-1.0014459999999998,-0.345022,5.457886,-2.0443290000000003,0.0,11.0,60.0,167.0,33.0,1.0
353525,-0.16071,-1.41429,-0.8451649999999999,-0.073512,-0.5365449999999999,1.739801,0.0,11.0,60.0,167.0,33.0,1.0
353526,0.005649,-1.369853,-0.7468899999999999,0.134172,-0.798284,1.165253,0.0,11.0,60.0,167.0,33.0,1.0
353527,-0.016768,-1.3388799999999998,-0.747494,-0.000922,-0.576179,0.754162,0.0,11.0,60.0,167.0,33.0,1.0
353528,-0.166071,-1.369517,-0.813589,-0.467611,0.422242,0.38633,0.0,11.0,60.0,167.0,33.0,1.0
353529,-0.407511,-1.408467,-0.978475,-0.059752,0.864007,-0.884036,0.0,11.0,60.0,167.0,33.0,1.0
353530,-0.513301,-1.414146,-1.0781459999999998,0.223646,0.8106760000000001,-0.74983,0.0,11.0,60.0,167.0,33.0,1.0
353531,-0.516413,-1.415623,-1.1220139999999998,-0.116298,0.428718,-0.812113,0.0,11.0,60.0,167.0,33.0,1.0
353532,-0.472529,-1.390136,-1.097332,-0.402026,-0.067038,-0.849931,0.0,11.0,60.0,167.0,33.0,1.0
353533,-0.411598,-1.332362,-1.04698,-0.244093,-0.254332,-0.5533170000000001,0.0,11.0,60.0,167.0,33.0,1.0
353534,-0.365693,-1.263396,-1.024504,-0.114809,-0.480101,0.873049,0.0,11.0,60.0,167.0,33.0,1.0
353535,-0.344716,-1.190234,-1.006286,-0.00502,-0.662022,1.052144,0.0,11.0,60.0,167.0,33.0,1.0
353536,-0.35785700000000004,-1.130133,-0.982695,0.254732,-0.7769510000000001,0.857993,0.0,11.0,60.0,167.0,33.0,1.0
353537,-0.33242,-1.087079,-0.93723,0.381899,-1.114215,0.689929,0.0,11.0,60.0,167.0,33.0,1.0
353538,-0.288608,-1.057868,-0.911294,0.310965,-0.884785,0.848482,0.0,11.0,60.0,167.0,33.0,1.0
353539,-0.239677,-1.042229,-0.886711,0.510048,-0.5416310000000001,0.711908,0.0,11.0,60.0,167.0,33.0,1.0
353540,-0.182365,-1.05143,-0.8515790000000001,0.148422,-0.414063,0.505262,0.0,11.0,60.0,167.0,33.0,1.0
353541,-0.114721,-1.094534,-0.811033,-0.021785,-0.213315,0.387754,0.0,11.0,60.0,167.0,33.0,1.0
353542,-0.074237,-1.1622629999999998,-0.801724,0.002517,-0.013147999999999998,0.222426,0.0,11.0,60.0,167.0,33.0,1.0
353543,-0.10491,-1.234996,-0.8451850000000001,-0.355692,0.015509,-0.08394700000000001,0.0,11.0,60.0,167.0,33.0,1.0
353544,-0.243806,-1.298565,-0.945133,-0.393958,0.229683,-0.441047,0.0,11.0,60.0,167.0,33.0,1.0
353545,-0.428608,-1.352701,-1.081006,-0.302691,0.425773,-0.200494,0.0,11.0,60.0,167.0,33.0,1.0
353546,-0.547813,-1.381628,-1.1977870000000002,-0.146733,1.347658,-0.791746,0.0,11.0,60.0,167.0,33.0,1.0
353547,-0.6218229999999999,-1.396735,-1.2634379999999998,-0.161443,0.619343,-1.246228,0.0,11.0,60.0,167.0,33.0,1.0
353548,-0.754695,-1.424782,-1.3681290000000002,-0.067669,0.135901,-1.013975,0.0,11.0,60.0,167.0,33.0,1.0
353549,-0.834275,-1.4499030000000002,-1.4447709999999998,-0.05863,-0.328807,0.448634,0.0,11.0,60.0,167.0,33.0,1.0
353550,-0.677615,-1.436002,-1.333412,0.012809,-0.073799,1.211808,0.0,11.0,60.0,167.0,33.0,1.0
353551,-0.588771,-1.4157540000000002,-1.258522,-0.204569,0.328508,0.627458,0.0,11.0,60.0,167.0,33.0,1.0
353552,-0.620592,-1.41032,-1.268651,0.109525,0.104432,-0.161802,0.0,11.0,60.0,167.0,33.0,1.0
353553,-0.919837,-1.436208,-1.483069,0.122973,1.977626,-1.52828,0.0,11.0,60.0,167.0,33.0,1.0
353554,-1.222902,-1.438956,-1.74845,-0.663216,3.717037,-1.548668,0.0,11.0,60.0,167.0,33.0,1.0
353555,-1.097356,-1.425649,-1.66478,0.151884,-0.255552,0.367847,0.0,11.0,60.0,167.0,33.0,1.0
353556,-1.077497,-1.426103,-1.627591,0.360955,-0.172854,0.240416,0.0,11.0,60.0,167.0,33.0,1.0
353557,-1.334863,-1.440755,-1.847707,0.31602600000000003,-0.059809,0.24083,0.0,11.0,60.0,167.0,33.0,1.0
353558,-1.459339,-1.447477,-1.962587,-0.129984,0.659938,-1.156564,0.0,11.0,60.0,167.0,33.0,1.0
353559,-1.188508,-1.45032,-1.737985,-0.371949,-0.044952,-0.492684,0.0,11.0,60.0,167.0,33.0,1.0
353560,-0.856718,-1.429232,-1.444773,-0.367167,-0.312079,-0.084111,0.0,11.0,60.0,167.0,33.0,1.0
353561,-0.599882,-1.376255,-1.233898,-0.362935,-0.597851,0.405461,0.0,11.0,60.0,167.0,33.0,1.0
353562,-0.4831470000000001,-1.315928,-1.137216,-0.264364,-0.850875,1.085509,0.0,11.0,60.0,167.0,33.0,1.0
353563,-0.447679,-1.2755299999999998,-1.079509,-0.111314,-1.111601,1.193875,0.0,11.0,60.0,167.0,33.0,1.0
353564,-0.411945,-1.24906,-1.021134,0.094029,-1.368396,1.1144,0.0,11.0,60.0,167.0,33.0,1.0
353565,-0.41825,-1.240918,-0.987278,0.549686,-1.347983,0.250772,0.0,11.0,60.0,167.0,33.0,1.0
353566,-0.415429,-1.237968,-0.972957,1.2681,-0.691933,0.357835,0.0,11.0,60.0,167.0,33.0,1.0
353567,-0.389498,-1.248251,-0.953518,1.100739,-0.5226810000000001,0.329807,0.0,11.0,60.0,167.0,33.0,1.0
353568,-0.398561,-1.2826,-0.950144,-0.024282,-0.703051,0.248066,0.0,11.0,60.0,167.0,33.0,1.0
353569,-0.46067,-1.319575,-0.983727,-0.047181,-0.687344,0.122808,0.0,11.0,60.0,167.0,33.0,1.0
353570,-0.642691,-1.343122,-1.134403,0.026949,-0.62431,-0.1228,0.0,11.0,60.0,167.0,33.0,1.0
353571,-0.768965,-1.346316,-1.243946,-1.563464,3.698292,-1.341266,0.0,11.0,60.0,167.0,33.0,1.0
353572,-0.777151,-1.367718,-1.238037,0.107087,0.441692,-0.887403,0.0,11.0,60.0,167.0,33.0,1.0
353573,-0.7424430000000001,-1.370255,-1.179468,-0.061747,-0.727762,0.487061,0.0,11.0,60.0,167.0,33.0,1.0
353574,-0.715493,-1.365985,-1.169088,-0.191104,-0.525486,0.8639110000000001,0.0,11.0,60.0,167.0,33.0,1.0
353575,-0.707041,-1.374394,-1.199622,-0.341116,0.5383899999999999,0.670734,0.0,11.0,60.0,167.0,33.0,1.0
353576,-0.733102,-1.380019,-1.247277,-0.420562,1.135071,0.406213,0.0,11.0,60.0,167.0,33.0,1.0
353577,-0.871618,-1.387604,-1.343311,-0.290674,1.160135,-0.571538,0.0,11.0,60.0,167.0,33.0,1.0
353578,-1.126097,-1.395746,-1.484395,-0.132872,0.996041,-1.09524,0.0,11.0,60.0,167.0,33.0,1.0
353579,-1.085746,-1.373788,-1.439317,0.2218,0.56866,0.117513,0.0,11.0,60.0,167.0,33.0,1.0
353580,-1.051401,-1.367333,-1.451181,0.443616,0.55467,0.204563,0.0,11.0,60.0,167.0,33.0,1.0
353581,-1.09648,-1.377769,-1.523634,0.4662270000000001,0.473879,0.246708,0.0,11.0,60.0,167.0,33.0,1.0
353582,-1.226748,-1.390462,-1.647976,0.063782,0.136852,0.120533,0.0,11.0,60.0,167.0,33.0,1.0
353583,-1.420768,-1.397316,-1.805904,-0.149514,-0.049886,-0.104545,0.0,11.0,60.0,167.0,33.0,1.0
353584,-1.6599509999999995,-1.392318,-2.004741,-0.16858299999999998,-0.164779,-0.054333000000000006,0.0,11.0,60.0,167.0,33.0,1.0
353585,-1.86342,-1.378107,-2.203207,-0.081468,-0.525835,0.009769,0.0,11.0,60.0,167.0,33.0,1.0
353586,-2.033833,-1.353944,-2.39593,0.06809,-0.5777909999999999,-0.051888,0.0,11.0,60.0,167.0,33.0,1.0
353587,-2.13713,-1.321628,-2.5314400000000004,0.15817,-0.625581,-0.085913,0.0,11.0,60.0,167.0,33.0,1.0
353588,-2.182753,-1.285326,-2.591378,0.191366,-0.326519,-0.205177,0.0,11.0,60.0,167.0,33.0,1.0
353589,-2.218654,-1.248347,-2.609921,0.151564,-0.056037,-0.514698,0.0,11.0,60.0,167.0,33.0,1.0
353590,-2.235473,-1.217313,-2.609282,0.031083,-0.082124,-0.768592,0.0,11.0,60.0,167.0,33.0,1.0
353591,-2.194813,-1.196641,-2.560953,0.193322,-0.08099400000000001,-0.691511,0.0,11.0,60.0,167.0,33.0,1.0
353592,-2.105302,-1.1842290000000002,-2.454183,0.4254729999999999,-0.223999,-0.631257,0.0,11.0,60.0,167.0,33.0,1.0
353593,-1.973706,-1.1803629999999998,-2.29753,0.632236,-0.269349,-0.696861,0.0,11.0,60.0,167.0,33.0,1.0
353594,-1.827025,-1.18435,-2.1101970000000003,0.7935979999999999,0.104599,-0.308559,0.0,11.0,60.0,167.0,33.0,1.0
353595,-1.678575,-1.196493,-1.933264,0.424036,0.438881,0.159051,0.0,11.0,60.0,167.0,33.0,1.0
353596,-1.516539,-1.214579,-1.744525,0.408752,0.432421,0.217291,0.0,11.0,60.0,167.0,33.0,1.0
353597,-1.327053,-1.239098,-1.512804,0.779405,2.328923,0.94489,0.0,11.0,60.0,167.0,33.0,1.0
353598,-1.102942,-1.256038,-1.244833,0.5021979999999999,2.519725,0.893241,0.0,11.0,60.0,167.0,33.0,1.0
353599,-0.918057,-1.258912,-1.041204,-0.190932,1.632715,0.5442130000000001,0.0,11.0,60.0,167.0,33.0,1.0
353600,-0.721917,-1.268643,-0.8538120000000001,-0.5395220000000001,0.652205,0.05265,0.0,11.0,60.0,167.0,33.0,1.0
353601,-0.5698449999999999,-1.280617,-0.695001,-0.074951,0.483244,-0.009998,0.0,11.0,60.0,167.0,33.0,1.0
353602,-0.423168,-1.298652,-0.531605,0.04954,0.36151,0.558431,0.0,11.0,60.0,167.0,33.0,1.0
353603,-0.324208,-1.304359,-0.367516,0.205545,0.17261400000000002,0.962977,0.0,11.0,60.0,167.0,33.0,1.0
353604,-0.290298,-1.291051,-0.252314,0.110646,-0.058965,0.797154,0.0,11.0,60.0,167.0,33.0,1.0
353605,-0.307399,-1.283426,-0.187866,-0.17365799999999998,-0.282586,0.7743140000000001,0.0,11.0,60.0,167.0,33.0,1.0
353606,-0.368251,-1.274605,-0.172845,-0.358173,-0.492405,0.7359399999999999,0.0,11.0,60.0,167.0,33.0,1.0
353607,-0.456547,-1.266309,-0.191746,-0.420723,-0.66799,0.724715,0.0,11.0,60.0,167.0,33.0,1.0
353608,-0.5626479999999999,-1.261564,-0.225266,-0.363014,-0.718513,0.5577439999999999,0.0,11.0,60.0,167.0,33.0,1.0
353609,-0.675172,-1.262561,-0.258677,-0.325889,-0.8044479999999999,0.359565,0.0,11.0,60.0,167.0,33.0,1.0
353610,-0.798826,-1.270331,-0.316863,-0.222219,-0.65071,0.13408499999999998,0.0,11.0,60.0,167.0,33.0,1.0
353611,-0.8917510000000001,-1.280812,-0.388423,-0.021672,0.013369999999999998,-0.214529,0.0,11.0,60.0,167.0,33.0,1.0
353612,-0.904527,-1.268397,-0.369078,-0.112554,0.698757,-1.314798,0.0,11.0,60.0,167.0,33.0,1.0
353613,-0.836089,-1.238667,-0.227509,0.375465,0.596703,-0.944361,0.0,11.0,60.0,167.0,33.0,1.0
353614,-0.7491909999999999,-1.222063,-0.071311,0.741715,0.120878,-0.462502,0.0,11.0,60.0,167.0,33.0,1.0
353615,-0.6675260000000001,-1.219227,0.053685,1.186778,-0.057272,0.11441,0.0,11.0,60.0,167.0,33.0,1.0
353616,-0.584671,-1.213347,0.176015,1.128744,-0.227426,0.027112,0.0,11.0,60.0,167.0,33.0,1.0
353617,-0.546337,-1.212057,0.273951,0.979209,-0.57933,0.100394,0.0,11.0,60.0,167.0,33.0,1.0
353618,-0.508554,-1.223843,0.341542,0.341818,-0.079497,1.527616,0.0,11.0,60.0,167.0,33.0,1.0
353619,-0.458023,-1.206692,0.359046,-1.961909,3.237096,-0.913022,0.0,11.0,60.0,167.0,33.0,1.0
353620,-0.519808,-1.182214,0.381047,-1.421552,1.601576,0.054366,0.0,11.0,60.0,167.0,33.0,1.0
353621,-0.502102,-1.183727,0.419347,-0.07061,-0.7447600000000001,1.166526,0.0,11.0,60.0,167.0,33.0,1.0
353622,-0.478561,-1.187415,0.408711,-0.333654,-0.29080900000000004,1.096083,0.0,11.0,60.0,167.0,33.0,1.0
353623,-0.511994,-1.195002,0.321723,-0.463494,-0.042353,0.919155,0.0,11.0,60.0,167.0,33.0,1.0
353624,-0.6300020000000001,-1.187509,0.209929,-0.16742200000000002,1.414387,0.980044,0.0,11.0,60.0,167.0,33.0,1.0
353625,-0.788561,-1.162779,0.188772,0.71729,0.801802,0.16716099999999998,0.0,11.0,60.0,167.0,33.0,1.0
353626,-1.033948,-1.188466,0.102989,0.7429560000000001,0.650999,0.291327,0.0,11.0,60.0,167.0,33.0,1.0
353627,-1.174254,-1.220129,0.025001,0.272196,0.048619,-0.051192,0.0,11.0,60.0,167.0,33.0,1.0
353628,-1.229663,-1.249931,-0.020135,0.157326,-0.117908,0.051373,0.0,11.0,60.0,167.0,33.0,1.0
353629,-1.3035709999999998,-1.282488,-0.096708,0.14574700000000002,-0.218797,0.095919,0.0,11.0,60.0,167.0,33.0,1.0
353630,-1.442773,-1.31044,-0.242074,-0.266289,-0.345357,-0.032016,0.0,11.0,60.0,167.0,33.0,1.0
353631,-1.641423,-1.322099,-0.420585,-0.304675,-0.391032,-0.139652,0.0,11.0,60.0,167.0,33.0,1.0
353632,-1.831967,-1.314278,-0.55721,-0.066567,-0.456217,-0.127977,0.0,11.0,60.0,167.0,33.0,1.0
353633,-1.980921,-1.2986540000000002,-0.650767,0.211165,-0.262178,-0.194723,0.0,11.0,60.0,167.0,33.0,1.0
353634,-2.075859,-1.282744,-0.720695,0.376545,-0.19145,-0.217848,0.0,11.0,60.0,167.0,33.0,1.0
353635,-2.118965,-1.272153,-0.759888,0.319367,-0.171389,-0.095335,0.0,11.0,60.0,167.0,33.0,1.0
353636,-2.1543810000000003,-1.262256,-0.78499,0.140922,0.048763,0.01211,0.0,11.0,60.0,167.0,33.0,1.0
353637,-2.199384,-1.246667,-0.8068850000000001,0.001599,0.338647,-0.001164,0.0,11.0,60.0,167.0,33.0,1.0
353638,-2.253317,-1.226789,-0.831407,0.083338,0.243663,-0.186001,0.0,11.0,60.0,167.0,33.0,1.0
353639,-2.294468,-1.204109,-0.854419,0.024001,0.202649,-0.203739,0.0,11.0,60.0,167.0,33.0,1.0
353640,-2.303529,-1.185111,-0.8671530000000001,-0.016921000000000002,0.124469,-0.441753,0.0,11.0,60.0,167.0,33.0,1.0
353641,-2.298364,-1.16975,-0.856742,-0.017922999999999998,0.278383,-0.34528000000000003,0.0,11.0,60.0,167.0,33.0,1.0
353642,-2.299798,-1.156162,-0.838989,0.179698,0.283406,-0.184222,0.0,11.0,60.0,167.0,33.0,1.0
353643,-2.314948,-1.14508,-0.8240430000000001,0.276685,0.342568,-0.470224,0.0,11.0,60.0,167.0,33.0,1.0
353644,-2.321123,-1.139798,-0.794122,0.268487,0.437307,-0.6027819999999999,0.0,11.0,60.0,167.0,33.0,1.0
353645,-2.3005,-1.141465,-0.733328,0.296788,0.447399,-0.745495,0.0,11.0,60.0,167.0,33.0,1.0
353646,-2.237975,-1.149292,-0.6281939999999999,0.6326430000000001,0.725221,-0.660624,0.0,11.0,60.0,167.0,33.0,1.0
353647,-2.129696,-1.162265,-0.477307,0.768506,0.739949,-0.402828,0.0,11.0,60.0,167.0,33.0,1.0
353648,-1.98111,-1.181289,-0.285624,0.776227,0.473921,0.104085,0.0,11.0,60.0,167.0,33.0,1.0
353649,-1.839999,-1.198952,-0.08036499999999999,0.544848,0.148267,0.290897,0.0,11.0,60.0,167.0,33.0,1.0
353650,-1.704902,-1.213068,0.133918,0.360968,0.08746,0.478088,0.0,11.0,60.0,167.0,33.0,1.0
353651,-1.546832,-1.219732,0.35691300000000004,0.4220640000000001,0.299091,0.619202,0.0,11.0,60.0,167.0,33.0,1.0
353652,-1.370278,-1.217129,0.549089,0.352009,0.5838180000000001,0.4436600000000001,0.0,11.0,60.0,167.0,33.0,1.0
353653,-1.20773,-1.214531,0.684381,0.155147,0.774571,0.291998,0.0,11.0,60.0,167.0,33.0,1.0
353654,-1.067865,-1.223061,0.798899,0.246089,0.7728659999999999,0.31111,0.0,11.0,60.0,167.0,33.0,1.0
353655,-1.019501,-1.242617,0.8977149999999999,0.212546,0.457193,0.826843,0.0,11.0,60.0,167.0,33.0,1.0
353656,-0.935588,-1.250525,1.06122,0.28951,0.100365,0.5754640000000001,0.0,11.0,60.0,167.0,33.0,1.0
353657,-0.826041,-1.245094,1.233731,0.163294,-0.032723,0.344646,0.0,11.0,60.0,167.0,33.0,1.0
353658,-0.74692,-1.234062,1.370396,0.047677,-0.189505,0.400094,0.0,11.0,60.0,167.0,33.0,1.0
353659,-0.7007800000000001,-1.220423,1.479095,0.044888,-0.272542,0.403174,0.0,11.0,60.0,167.0,33.0,1.0
353660,-0.68584,-1.206946,1.566132,0.08959,-0.33146,0.52804,0.0,11.0,60.0,167.0,33.0,1.0
353661,-0.695063,-1.195221,1.632909,0.066697,-0.33505100000000004,0.565291,0.0,11.0,60.0,167.0,33.0,1.0
353662,-0.7171810000000001,-1.187747,1.68264,-0.022313,-0.352242,0.5716220000000001,0.0,11.0,60.0,167.0,33.0,1.0
353663,-0.7443029999999999,-1.18759,1.716309,-0.040118,-0.40678,0.474357,0.0,11.0,60.0,167.0,33.0,1.0
353664,-0.7742100000000001,-1.197238,1.734846,-0.016944,-0.463109,0.384307,0.0,11.0,60.0,167.0,33.0,1.0
353665,-0.816407,-1.216457,1.727777,-0.024013,-0.5213260000000001,0.184559,0.0,11.0,60.0,167.0,33.0,1.0
353666,-0.894919,-1.240649,1.677689,0.056066,-0.450374,0.023504,0.0,11.0,60.0,167.0,33.0,1.0
353667,-1.011745,-1.264265,1.587634,0.212468,-0.056612,-0.17795999999999998,0.0,11.0,60.0,167.0,33.0,1.0
353668,-1.084805,-1.280417,1.530674,0.207085,0.40658,-0.59575,0.0,11.0,60.0,167.0,33.0,1.0
353669,-1.060266,-1.285487,1.5816,0.278724,0.5423020000000001,-1.154119,0.0,11.0,60.0,167.0,33.0,1.0
353670,-0.999044,-1.295169,1.665987,0.545733,-0.106923,-0.331322,0.0,11.0,60.0,167.0,33.0,1.0
353671,-0.931344,-1.3122280000000002,1.744902,0.654672,-0.109045,-0.693704,0.0,11.0,60.0,167.0,33.0,1.0
353672,-0.861664,-1.326115,1.822501,0.673138,0.009445,0.945835,0.0,11.0,60.0,167.0,33.0,1.0
353673,-0.7638010000000001,-1.3344120000000002,1.860059,-0.265964,1.394722,0.600273,0.0,11.0,60.0,167.0,33.0,1.0
353674,-0.691117,-1.321114,1.915844,-0.847334,0.224216,0.29652399999999995,0.0,11.0,60.0,167.0,33.0,1.0
353675,-0.625229,-1.308913,2.010091,-0.712294,-0.533165,0.727032,0.0,11.0,60.0,167.0,33.0,1.0
353676,-0.647299,-1.310056,2.002376,-0.563178,-0.774137,0.61744,0.0,11.0,60.0,167.0,33.0,1.0
353677,-0.73535,-1.311922,1.905494,-0.590471,-0.465626,0.60017,0.0,11.0,60.0,167.0,33.0,1.0
353678,-0.8553729999999999,-1.304741,1.783679,-0.093818,0.277418,0.121855,0.0,11.0,60.0,167.0,33.0,1.0
353679,-0.977556,-1.302233,1.653905,0.270896,0.272816,0.125978,0.0,11.0,60.0,167.0,33.0,1.0
353680,-1.081559,-1.303748,1.508497,0.41399,0.365356,0.230496,0.0,11.0,60.0,167.0,33.0,1.0
353681,-1.133044,-1.3024870000000002,1.430326,0.663229,0.5870489999999999,0.202671,0.0,11.0,60.0,167.0,33.0,1.0
353682,-1.207341,-1.309475,1.398987,0.856482,0.406753,-0.093218,0.0,11.0,60.0,167.0,33.0,1.0
353683,-1.317324,-1.316927,1.340498,0.450503,0.224877,-0.051603,0.0,11.0,60.0,167.0,33.0,1.0
353684,-1.413231,-1.326581,1.27856,-0.051933000000000014,0.036188,-0.036419,0.0,11.0,60.0,167.0,33.0,1.0
353685,-1.515811,-1.33139,1.204759,-0.138424,-0.0047740000000000005,-0.196,0.0,11.0,60.0,167.0,33.0,1.0
353686,-1.616311,-1.328322,1.136752,-0.26152600000000004,0.093798,-0.500242,0.0,11.0,60.0,167.0,33.0,1.0
353687,-1.657247,-1.326622,1.117326,-0.187028,0.198806,-0.7143079999999999,0.0,11.0,60.0,167.0,33.0,1.0
353688,-1.597952,-1.328345,1.159346,0.160975,0.142803,-0.727404,0.0,11.0,60.0,167.0,33.0,1.0
353689,-1.45318,-1.329989,1.272374,0.211395,0.039810000000000005,-0.708025,0.0,11.0,60.0,167.0,33.0,1.0
353690,-1.231906,-1.322847,1.46595,0.081597,-0.065731,-0.592615,0.0,11.0,60.0,167.0,33.0,1.0
353691,-0.977624,-1.293594,1.701868,0.014209,-0.438296,0.003401,0.0,11.0,60.0,167.0,33.0,1.0
353692,-0.787741,-1.248311,1.878424,-0.002115,-0.5854590000000001,0.34339200000000003,0.0,11.0,60.0,167.0,33.0,1.0
353693,-0.694278,-1.208524,1.987395,-0.014889,-0.965489,1.01921,0.0,11.0,60.0,167.0,33.0,1.0
353694,-0.6480739999999999,-1.184339,2.064519,0.205544,-1.405452,0.868933,0.0,11.0,60.0,167.0,33.0,1.0
353695,-0.617983,-1.174071,2.113003,0.440958,-1.357115,0.577073,0.0,11.0,60.0,167.0,33.0,1.0
353696,-0.545187,-1.177917,2.161671,0.938538,-0.862806,0.641289,0.0,11.0,60.0,167.0,33.0,1.0
353697,-0.4880140000000001,-1.193645,2.206339,0.7642369999999999,-0.7552939999999999,0.648105,0.0,11.0,60.0,167.0,33.0,1.0
353698,-0.456172,-1.224048,2.234499,0.5005149999999999,-0.5907819999999999,0.607708,0.0,11.0,60.0,167.0,33.0,1.0
353699,-0.483801,-1.267132,2.204146,0.13276400000000002,-0.339532,0.29684,0.0,11.0,60.0,167.0,33.0,1.0
353700,-0.5956319999999999,-1.3081459999999998,2.092406,-0.289539,0.06125700000000001,0.188853,0.0,11.0,60.0,167.0,33.0,1.0
353701,-0.8067270000000001,-1.341077,1.902517,-0.408604,0.335565,-0.15149400000000002,0.0,11.0,60.0,167.0,33.0,1.0
353702,-0.967269,-1.357079,1.754089,-0.184159,1.926895,-0.498567,0.0,11.0,60.0,167.0,33.0,1.0
353703,-1.023002,-1.366834,1.734104,0.360803,0.663337,-1.251228,0.0,11.0,60.0,167.0,33.0,1.0
353704,-1.0529700000000002,-1.3798469999999998,1.744002,-0.209841,0.104357,-0.57068,0.0,11.0,60.0,167.0,33.0,1.0
353705,-0.988082,-1.387351,1.779422,-0.471138,0.012186,0.204616,0.0,11.0,60.0,167.0,33.0,1.0
353706,-0.897065,-1.386943,1.810213,-0.464173,0.052376,0.561052,0.0,11.0,60.0,167.0,33.0,1.0
353707,-0.869575,-1.389924,1.814305,-0.018293,0.735383,0.705957,0.0,11.0,60.0,167.0,33.0,1.0
353708,-0.959817,-1.4033639999999998,1.7380759999999995,0.679977,1.027366,-1.095975,0.0,11.0,60.0,167.0,33.0,1.0
353709,-0.831593,-1.39596,1.855216,0.052536,1.603868,-1.082876,0.0,11.0,60.0,167.0,33.0,1.0
353710,-0.661191,-1.369955,2.018558,0.120592,0.12436400000000003,0.7144229999999999,0.0,11.0,60.0,167.0,33.0,1.0
353711,-0.593915,-1.345775,2.102044,0.219425,0.008440999999999999,0.60653,0.0,11.0,60.0,167.0,33.0,1.0
353712,-0.686623,-1.363816,2.050411,-0.107563,0.475476,0.206005,0.0,11.0,60.0,167.0,33.0,1.0
353713,-0.809334,-1.386218,1.959199,-0.063114,0.356067,-0.112569,0.0,11.0,60.0,167.0,33.0,1.0
353714,-0.8873040000000001,-1.3955959999999998,1.874399,-0.120351,0.29549000000000003,-0.394813,0.0,11.0,60.0,167.0,33.0,1.0
353715,-0.95133,-1.396614,1.800038,-0.213006,0.29658,-0.6098180000000001,0.0,11.0,60.0,167.0,33.0,1.0
353716,-0.906597,-1.374197,1.842051,-0.247368,0.410239,-0.8642270000000001,0.0,11.0,60.0,167.0,33.0,1.0
353717,-0.78785,-1.334394,1.957766,-0.128161,0.093014,-0.544531,0.0,11.0,60.0,167.0,33.0,1.0
353718,-0.665934,-1.286377,2.060352,-0.028898000000000007,-0.329973,0.294974,0.0,11.0,60.0,167.0,33.0,1.0
353719,-0.594222,-1.230661,2.123042,0.048511,-0.479971,0.700779,0.0,11.0,60.0,167.0,33.0,1.0
353720,-0.582596,-1.183964,2.167246,0.333198,-1.012077,1.053569,0.0,11.0,60.0,167.0,33.0,1.0
353721,-0.543841,-1.160169,2.218317,0.365494,-1.690689,0.45775,0.0,11.0,60.0,167.0,33.0,1.0
353722,-0.503707,-1.150795,2.242312,0.405643,-1.744906,0.365852,0.0,11.0,60.0,167.0,33.0,1.0
353723,-0.47098,-1.154593,2.253038,0.555318,-0.8094060000000001,0.665776,0.0,11.0,60.0,167.0,33.0,1.0
353724,-0.431623,-1.179612,2.260581,0.596409,-0.564656,0.5411600000000001,0.0,11.0,60.0,167.0,33.0,1.0
353725,-0.427584,-1.221476,2.245097,0.289687,-0.58699,0.470126,0.0,11.0,60.0,167.0,33.0,1.0
353726,-0.4859310000000001,-1.272044,2.179001,0.076311,-0.565034,0.302005,0.0,11.0,60.0,167.0,33.0,1.0
353727,-0.625764,-1.310731,2.036953,-0.326846,0.029919,-0.103822,0.0,11.0,60.0,167.0,33.0,1.0
353728,-0.801504,-1.325627,1.870705,-0.454459,0.5253869999999999,-0.377635,0.0,11.0,60.0,167.0,33.0,1.0
353729,-0.900864,-1.328128,1.787322,-0.189452,1.902026,-0.970604,0.0,11.0,60.0,167.0,33.0,1.0
353730,-0.999036,-1.336382,1.7221540000000002,0.09445,0.29738400000000004,-1.000868,0.0,11.0,60.0,167.0,33.0,1.0
353731,-1.098523,-1.3441530000000002,1.6646029999999998,0.123749,-0.174942,-0.81797,0.0,11.0,60.0,167.0,33.0,1.0
353732,-1.094633,-1.34704,1.659962,0.10794,-0.431965,0.535522,0.0,11.0,60.0,167.0,33.0,1.0
353733,-1.028316,-1.3570879999999998,1.680655,-0.031429,0.097074,0.8964200000000001,0.0,11.0,60.0,167.0,33.0,1.0
353734,-1.00402,-1.376443,1.687185,-0.025354,0.389799,0.711453,0.0,11.0,60.0,167.0,33.0,1.0
353735,-1.085394,-1.396903,1.630332,-0.236081,0.91567,-0.885493,0.0,11.0,60.0,167.0,33.0,1.0
353736,-1.038979,-1.400185,1.6886599999999998,-0.36004200000000003,2.649422,-1.951746,0.0,11.0,60.0,167.0,33.0,1.0
353737,-0.769285,-1.3814,1.878787,0.18862,-0.081926,1.261116,0.0,11.0,60.0,167.0,33.0,1.0
353738,-0.621959,-1.353275,2.002636,0.30737800000000004,-0.296504,0.675728,0.0,11.0,60.0,167.0,33.0,1.0
353739,-0.688447,-1.36121,1.96969,-0.127124,0.134203,0.517351,0.0,11.0,60.0,167.0,33.0,1.0
353740,-0.8913690000000001,-1.385822,1.826961,-0.222409,0.558197,-0.281426,0.0,11.0,60.0,167.0,33.0,1.0
353741,-0.93824,-1.38073,1.7980200000000002,0.11413800000000003,0.6541779999999999,-0.834248,0.0,11.0,60.0,167.0,33.0,1.0
353742,-0.8492149999999999,-1.368414,1.848729,0.016590999999999998,0.439141,-0.605722,0.0,11.0,60.0,167.0,33.0,1.0
353743,-0.698796,-1.340649,1.97615,-0.043956,0.360382,-0.482684,0.0,11.0,60.0,167.0,33.0,1.0
353744,-0.566292,-1.292076,2.101397,-0.231798,-0.161863,-0.06460700000000001,0.0,11.0,60.0,167.0,33.0,1.0
353745,-0.493323,-1.230489,2.166563,-0.180447,-0.551417,0.722508,0.0,11.0,60.0,167.0,33.0,1.0
353746,-0.476413,-1.171515,2.204528,-0.022194,-0.6687310000000001,1.024915,0.0,11.0,60.0,167.0,33.0,1.0
353747,-0.466103,-1.14619,2.241147,0.287933,-1.650535,0.554088,0.0,11.0,60.0,167.0,33.0,1.0
353748,-0.4406229999999999,-1.141207,2.245694,0.527227,-1.523303,0.55113,0.0,11.0,60.0,167.0,33.0,1.0
353749,-0.407574,-1.144603,2.247433,0.435882,-1.100289,0.71602,0.0,11.0,60.0,167.0,33.0,1.0
353750,-0.364419,-1.171288,2.257006,0.685959,-0.789676,0.611962,0.0,11.0,60.0,167.0,33.0,1.0
353751,-0.342722,-1.220955,2.252709,0.405887,-0.618855,0.409503,0.0,11.0,60.0,167.0,33.0,1.0
353752,-0.38898,-1.278479,2.189499,0.380948,-0.580809,0.373729,0.0,11.0,60.0,167.0,33.0,1.0
353753,-0.552851,-1.320742,2.02827,-0.13906500000000002,0.00954,0.202716,0.0,11.0,60.0,167.0,33.0,1.0
353754,-0.781377,-1.3327639999999998,1.84109,-0.396231,0.8982829999999999,-0.547326,0.0,11.0,60.0,167.0,33.0,1.0
353755,-0.894417,-1.3323,1.771609,-0.294655,2.222352,-1.015587,0.0,11.0,60.0,167.0,33.0,1.0
353756,-0.971191,-1.339098,1.7347849999999998,0.116125,0.6822090000000001,-1.103037,0.0,11.0,60.0,167.0,33.0,1.0
353757,-1.0333,-1.355197,1.696808,-0.159552,0.102131,-0.814191,0.0,11.0,60.0,167.0,33.0,1.0
353758,-0.973281,-1.368891,1.710516,-0.301248,-0.196483,0.928688,0.0,11.0,60.0,167.0,33.0,1.0
353759,-0.856708,-1.37458,1.777489,-0.340123,-0.141898,1.23632,0.0,11.0,60.0,167.0,33.0,1.0
353760,-0.83939,-1.378154,1.789866,0.278248,0.203542,-0.283754,0.0,11.0,60.0,167.0,33.0,1.0
353761,-1.028694,-1.401469,1.672914,0.237585,0.604985,-0.417974,0.0,11.0,60.0,167.0,33.0,1.0
353762,-1.028147,-1.403417,1.705299,-0.441355,3.136549,-2.648532,0.0,11.0,60.0,167.0,33.0,1.0
353763,-0.814873,-1.390589,1.846936,0.241427,0.185658,1.047405,0.0,11.0,60.0,167.0,33.0,1.0
353764,-0.715966,-1.37866,1.937642,0.323904,-0.286637,0.416077,0.0,11.0,60.0,167.0,33.0,1.0
353765,-0.799689,-1.388662,1.901705,-0.084487,-0.31604,0.250064,0.0,11.0,60.0,167.0,33.0,1.0
353766,-0.7657430000000001,-1.365966,1.959425,0.012349,0.643234,-0.771443,0.0,11.0,60.0,167.0,33.0,1.0
353767,-0.667932,-1.341214,2.00988,-0.050108,0.381677,-0.543507,0.0,11.0,60.0,167.0,33.0,1.0
353768,-0.562695,-1.305591,2.076107,0.008436,-0.236981,-0.018908,0.0,11.0,60.0,167.0,33.0,1.0
353769,-0.469466,-1.247742,2.1373450000000003,-0.255187,-0.297391,0.291968,0.0,11.0,60.0,167.0,33.0,1.0
353770,-0.423863,-1.178568,2.180542,-0.180195,-0.498232,0.944693,0.0,11.0,60.0,167.0,33.0,1.0
353771,-0.406467,-1.120234,2.21382,0.17502,-0.903361,0.987155,0.0,11.0,60.0,167.0,33.0,1.0
353772,-0.378992,-1.086509,2.25095,0.457531,-1.478192,0.539144,0.0,11.0,60.0,167.0,33.0,1.0
353773,-0.333538,-1.067805,2.266959,0.445518,-1.308838,0.6111439999999999,0.0,11.0,60.0,167.0,33.0,1.0
353774,-0.277528,-1.063267,2.2857990000000004,0.5162439999999999,-0.399964,0.465384,0.0,11.0,60.0,167.0,33.0,1.0
353775,-0.207872,-1.089118,2.311226,0.186823,-0.266208,0.506599,0.0,11.0,60.0,167.0,33.0,1.0
353776,-0.158237,-1.141516,2.315641,0.104632,-0.120554,0.431575,0.0,11.0,60.0,167.0,33.0,1.0
353777,-0.172966,-1.205987,2.274959,0.122084,-0.127429,0.32116,0.0,11.0,60.0,167.0,33.0,1.0
353778,-0.292662,-1.269588,2.166115,-0.012834,-0.165581,0.021925,0.0,11.0,60.0,167.0,33.0,1.0
353779,-0.52645,-1.316126,1.988555,0.040742,-0.007633,-0.392864,0.0,11.0,60.0,167.0,33.0,1.0
353780,-0.702334,-1.3418,1.85323,-0.113096,1.952146,-0.8759239999999999,0.0,11.0,60.0,167.0,33.0,1.0
353781,-0.801175,-1.355643,1.799384,0.036316,0.977829,-1.153276,0.0,11.0,60.0,167.0,33.0,1.0
353782,-0.881819,-1.37639,1.757859,-0.064717,-0.021476,-0.725565,0.0,11.0,60.0,167.0,33.0,1.0
353783,-0.8998,-1.389185,1.766256,-0.11653800000000003,-0.310031,-0.617445,0.0,11.0,60.0,167.0,33.0,1.0
353784,-0.752076,-1.395973,1.859578,-0.074562,-0.498017,1.265296,0.0,11.0,60.0,167.0,33.0,1.0
353785,-0.621923,-1.40501,1.937847,-0.109079,-0.167594,1.109558,0.0,11.0,60.0,167.0,33.0,1.0
353786,-0.6564409999999999,-1.411199,1.925448,-0.213172,0.996107,-1.022703,0.0,11.0,60.0,167.0,33.0,1.0
353787,-0.7749590000000001,-1.405425,1.896841,-0.056541,2.125993,-0.733768,0.0,11.0,60.0,167.0,33.0,1.0
353788,-0.653687,-1.373495,1.989927,0.218992,0.06786299999999999,0.775886,0.0,11.0,60.0,167.0,33.0,1.0
353789,-0.623622,-1.355761,2.014325,0.368383,-0.016565,0.476415,0.0,11.0,60.0,167.0,33.0,1.0
353790,-0.7349140000000001,-1.373202,1.938752,-0.039642,0.597416,-0.397415,0.0,11.0,60.0,167.0,33.0,1.0
353791,-0.803405,-1.380554,1.901223,-0.03518,0.595999,-0.411774,0.0,11.0,60.0,167.0,33.0,1.0
353792,-0.690766,-1.357232,1.981353,-0.143885,0.350004,-0.765103,0.0,11.0,60.0,167.0,33.0,1.0
353793,-0.6003430000000001,-1.324677,2.054446,-0.428003,-0.16443,-0.007706999999999999,0.0,11.0,60.0,167.0,33.0,1.0
353794,-0.534862,-1.270377,2.112579,-0.414801,-0.149777,0.045849,0.0,11.0,60.0,167.0,33.0,1.0
353795,-0.504779,-1.205799,2.132382,-0.2013,-0.542844,0.8134680000000001,0.0,11.0,60.0,167.0,33.0,1.0
353796,-0.5088239999999999,-1.160464,2.140225,0.142704,-0.842037,1.012613,0.0,11.0,60.0,167.0,33.0,1.0
353797,-0.485849,-1.1480629999999998,2.158537,0.237526,-1.49591,0.5242220000000001,0.0,11.0,60.0,167.0,33.0,1.0
353798,-0.438054,-1.151663,2.1616720000000003,0.495529,-1.490118,0.454316,0.0,11.0,60.0,167.0,33.0,1.0
353799,-0.380694,-1.162177,2.172509,0.715093,-0.928458,0.690281,0.0,11.0,60.0,167.0,33.0,1.0
353800,-0.32397800000000004,-1.19383,2.194919,0.8117270000000001,-0.662192,0.394136,0.0,11.0,60.0,167.0,33.0,1.0
353801,-0.321999,-1.243794,2.192896,0.471075,-0.543567,0.378701,0.0,11.0,60.0,167.0,33.0,1.0
353802,-0.425015,-1.287463,2.107573,0.023588,0.004562,0.23332,0.0,11.0,60.0,167.0,33.0,1.0
353803,-0.587631,-1.299146,1.974365,-0.102738,0.351063,-0.32255900000000004,0.0,11.0,60.0,167.0,33.0,1.0
353804,-0.679433,-1.290123,1.902818,-0.373016,2.008796,-1.117597,0.0,11.0,60.0,167.0,33.0,1.0
353805,-0.745732,-1.306347,1.867163,-0.011572,0.415272,-0.77078,0.0,11.0,60.0,167.0,33.0,1.0
353806,-0.846133,-1.327067,1.816557,-0.066865,-0.03885,-0.428169,0.0,11.0,60.0,167.0,33.0,1.0
353807,-0.877081,-1.339954,1.796361,-0.180491,-0.223215,0.641741,0.0,11.0,60.0,167.0,33.0,1.0
353808,-0.824024,-1.345423,1.806404,-0.454628,0.023641,0.986783,0.0,11.0,60.0,167.0,33.0,1.0
353809,-0.778161,-1.344746,1.835596,-0.173346,-0.004039,0.4205,0.0,11.0,60.0,167.0,33.0,1.0
353810,-0.851612,-1.356443,1.803129,-0.0467,0.570524,-0.703015,0.0,11.0,60.0,167.0,33.0,1.0
353811,-0.932644,-1.36198,1.831229,-0.164562,3.5365550000000003,-1.126086,0.0,11.0,60.0,167.0,33.0,1.0
353812,-0.677167,-1.337159,1.95885,0.387861,-0.381232,1.206274,0.0,11.0,60.0,167.0,33.0,1.0
353813,-0.528866,-1.313484,2.04049,0.624894,-0.464422,0.769605,0.0,11.0,60.0,167.0,33.0,1.0
353814,-0.5780489999999999,-1.325702,2.010897,0.13461099999999998,0.31763600000000003,0.715837,0.0,11.0,60.0,167.0,33.0,1.0
353815,-0.7585,-1.351287,1.903808,-0.160853,0.7422270000000001,0.116623,0.0,11.0,60.0,167.0,33.0,1.0
353816,-0.959918,-1.358698,1.814544,-0.305539,0.771203,-1.104676,0.0,11.0,60.0,167.0,33.0,1.0
353817,-0.8982379999999999,-1.335506,1.857214,-0.350914,0.502727,-0.688112,0.0,11.0,60.0,167.0,33.0,1.0
353818,-0.778049,-1.305776,1.9278990000000005,-0.234125,0.399247,-0.528507,0.0,11.0,60.0,167.0,33.0,1.0
353819,-0.658675,-1.24908,2.035421,-0.27325900000000003,-0.199472,0.35889,0.0,11.0,60.0,167.0,33.0,1.0
353820,-0.5732510000000001,-1.178761,2.099994,0.219177,-0.595627,0.93353,0.0,11.0,60.0,167.0,33.0,1.0
353821,-0.5568489999999999,-1.10878,2.1230130000000003,0.399873,-1.171813,1.032288,0.0,11.0,60.0,167.0,33.0,1.0
353822,-0.543934,-1.069442,2.149147,0.573377,-1.588709,0.7336010000000001,0.0,11.0,60.0,167.0,33.0,1.0
353823,-0.504174,-1.0565129999999998,2.168622,0.296224,-1.110132,0.8147300000000001,0.0,11.0,60.0,167.0,33.0,1.0
353824,-0.478085,-1.048852,2.1760900000000003,0.394492,-0.85495,0.792573,0.0,11.0,60.0,167.0,33.0,1.0
353825,-0.434008,-1.054747,2.197197,0.494407,-0.585138,0.495604,0.0,11.0,60.0,167.0,33.0,1.0
353826,-0.385018,-1.086166,2.217941,0.354017,-0.354986,0.382679,0.0,11.0,60.0,167.0,33.0,1.0
353827,-0.351732,-1.143872,2.2141330000000004,0.333923,-0.272884,0.381983,0.0,11.0,60.0,167.0,33.0,1.0
353828,-0.373362,-1.21246,2.150596,0.280322,0.091533,0.144747,0.0,11.0,60.0,167.0,33.0,1.0
353829,-0.520371,-1.263183,2.009459,-0.271797,1.165868,-1.024939,0.0,11.0,60.0,167.0,33.0,1.0
353830,-0.727667,-1.269521,1.911867,-0.130403,1.854718,-1.386572,0.0,11.0,60.0,167.0,33.0,1.0
353831,-0.859461,-1.288722,1.869877,0.171232,0.440597,-0.734236,0.0,11.0,60.0,167.0,33.0,1.0
353832,-0.934166,-1.324768,1.821385,-0.045971,-0.241555,-0.412874,0.0,11.0,60.0,167.0,33.0,1.0
353833,-0.964839,-1.3623610000000002,1.774205,-0.489762,-0.429863,-0.536369,0.0,11.0,60.0,167.0,33.0,1.0
353834,-0.939083,-1.382788,1.77272,-0.5412140000000001,-0.256808,1.267392,0.0,11.0,60.0,167.0,33.0,1.0
353835,-0.8196709999999999,-1.378053,1.840065,-0.604508,0.262445,0.720012,0.0,11.0,60.0,167.0,33.0,1.0
353836,-0.7850779999999999,-1.36205,1.861644,0.200116,-0.131535,0.13104200000000002,0.0,11.0,60.0,167.0,33.0,1.0
353837,-0.8833409999999999,-1.361178,1.812303,0.231842,1.028558,-0.964304,0.0,11.0,60.0,167.0,33.0,1.0
353838,-1.212832,-1.367501,1.63237,-0.053869000000000014,2.880716,-0.474089,0.0,11.0,60.0,167.0,33.0,1.0
353839,-1.035868,-1.337424,1.76963,0.560377,-0.26844,0.6692819999999999,0.0,11.0,60.0,167.0,33.0,1.0
353840,-0.923545,-1.313815,1.855192,0.699897,-0.292052,0.034011,0.0,11.0,60.0,167.0,33.0,1.0
353841,-1.004543,-1.319783,1.833579,-0.28399800000000003,0.515729,-0.558077,0.0,11.0,60.0,167.0,33.0,1.0
353842,-1.0673979999999998,-1.306523,1.841153,-0.019097,0.8747440000000001,-0.760189,0.0,11.0,60.0,167.0,33.0,1.0
353843,-1.000563,-1.285192,1.899009,0.211154,0.186764,-0.513465,0.0,11.0,60.0,167.0,33.0,1.0
353844,-0.921706,-1.265043,1.972761,0.237215,-0.173469,-0.04345,0.0,11.0,60.0,167.0,33.0,1.0
353845,-0.8296540000000001,-1.233399,2.069658,0.351824,-0.351166,0.165724,0.0,11.0,60.0,167.0,33.0,1.0
353846,-0.7507010000000001,-1.200949,2.151579,0.13576,-0.7876529999999999,0.5314840000000001,0.0,11.0,60.0,167.0,33.0,1.0
353847,-0.692349,-1.174104,2.215611,0.211229,-0.935268,0.731312,0.0,11.0,60.0,167.0,33.0,1.0
353848,-0.651667,-1.168556,2.284916,0.330433,-1.163701,0.761518,0.0,11.0,60.0,167.0,33.0,1.0
353849,-0.617672,-1.168398,2.352908,0.214775,-1.017003,0.464351,0.0,11.0,60.0,167.0,33.0,1.0
353850,-0.591651,-1.163188,2.409236,0.268725,-0.559368,0.35336100000000004,0.0,11.0,60.0,167.0,33.0,1.0
353851,-0.5400020000000001,-1.163411,2.464777,0.325802,-0.15989,0.279795,0.0,11.0,60.0,167.0,33.0,1.0
353852,-0.485943,-1.170855,2.509203,0.06969199999999999,0.21507,0.471965,0.0,11.0,60.0,167.0,33.0,1.0
353853,-0.45172,-1.186711,2.529368,-0.198377,0.762022,0.514225,0.0,11.0,60.0,167.0,33.0,1.0
353854,-0.449479,-1.209801,2.523679,-0.179852,0.665651,0.15501099999999998,0.0,11.0,60.0,167.0,33.0,1.0
353855,-0.489573,-1.234673,2.488854,-0.208079,0.263144,-0.05881,0.0,11.0,60.0,167.0,33.0,1.0
353856,-0.586802,-1.2513729999999998,2.411849,-0.410487,0.31395,-0.537825,0.0,11.0,60.0,167.0,33.0,1.0
353857,-0.7263069999999999,-1.254002,2.310465,-0.340107,0.399996,-0.680958,0.0,11.0,60.0,167.0,33.0,1.0
353858,-0.866295,-1.250309,2.203517,-0.098254,0.50621,-0.722938,0.0,11.0,60.0,167.0,33.0,1.0
353859,-0.968931,-1.257554,2.121238,0.308212,0.7470100000000001,-1.090193,0.0,11.0,60.0,167.0,33.0,1.0
353860,-1.021297,-1.270582,2.089613,0.212058,0.425388,-1.158798,0.0,11.0,60.0,167.0,33.0,1.0
353861,-1.02655,-1.282618,2.1055330000000003,0.084586,0.278877,-1.003034,0.0,11.0,60.0,167.0,33.0,1.0
353862,-0.981585,-1.297141,2.1401220000000003,0.264489,-0.286077,-0.407067,0.0,11.0,60.0,167.0,33.0,1.0
353863,-0.91769,-1.302304,2.1960580000000003,0.239628,-0.79515,-0.371515,0.0,11.0,60.0,167.0,33.0,1.0
353864,-0.872107,-1.290346,2.257285,0.012118,-0.184274,0.659558,0.0,11.0,60.0,167.0,33.0,1.0
353865,-0.789641,-1.250912,2.33757,-0.597639,0.563973,2.077186,0.0,11.0,60.0,167.0,33.0,1.0
353866,-0.754799,-1.211279,2.381842,-0.7541859999999999,0.403289,0.902027,0.0,11.0,60.0,167.0,33.0,1.0
353867,-0.834413,-1.2082,2.334995,0.747134,0.175128,1.260353,0.0,11.0,60.0,167.0,33.0,1.0
353868,-0.8527299999999999,-1.205427,2.297082,0.378038,1.417998,0.8059569999999999,0.0,11.0,60.0,167.0,33.0,1.0
353869,-0.8816280000000001,-1.208425,2.250734,-0.181578,2.489456,-0.750328,0.0,11.0,60.0,167.0,33.0,1.0
353870,-0.927014,-1.1941,2.255957,0.10901,0.348771,0.666783,0.0,11.0,60.0,167.0,33.0,1.0
353871,-0.967797,-1.171931,2.273776,0.198804,0.26468600000000003,0.463775,0.0,11.0,60.0,167.0,33.0,1.0
353872,-1.048306,-1.1756030000000002,2.251902,0.233694,0.359396,0.440652,0.0,11.0,60.0,167.0,33.0,1.0
353873,-1.14157,-1.197393,2.1965380000000003,0.33520500000000003,0.337585,0.244777,0.0,11.0,60.0,167.0,33.0,1.0
353874,-1.237906,-1.222691,2.128462,0.365571,0.146878,0.21830500000000005,0.0,11.0,60.0,167.0,33.0,1.0
353875,-1.357278,-1.250041,2.042807,0.329344,0.045326,0.16633699999999998,0.0,11.0,60.0,167.0,33.0,1.0
353876,-1.514309,-1.276595,1.92425,0.018539,-0.230731,0.111005,0.0,11.0,60.0,167.0,33.0,1.0
353877,-1.7226,-1.294403,1.753913,-0.137397,-0.315729,-0.120517,0.0,11.0,60.0,167.0,33.0,1.0
353878,-1.956627,-1.293509,1.5595629999999998,-0.192173,-0.471537,-0.315701,0.0,11.0,60.0,167.0,33.0,1.0
353879,-2.136531,-1.279147,1.411297,-0.204617,-0.545524,-0.370376,0.0,11.0,60.0,167.0,33.0,1.0
353880,-2.23995,-1.258988,1.323643,-0.177612,-0.461515,-0.263284,0.0,11.0,60.0,167.0,33.0,1.0
353881,-2.296461,-1.236597,1.269938,-0.046593,-0.389269,-0.168285,0.0,11.0,60.0,167.0,33.0,1.0
353882,-2.342744,-1.212381,1.225911,0.104965,-0.227821,-0.367855,0.0,11.0,60.0,167.0,33.0,1.0
353883,-2.3931880000000003,-1.186495,1.190018,0.145878,0.022341,-0.5168659999999999,0.0,11.0,60.0,167.0,33.0,1.0
353884,-2.432554,-1.160559,1.159538,0.142124,0.122097,-0.5288229999999999,0.0,11.0,60.0,167.0,33.0,1.0
353885,-2.429687,-1.140185,1.155314,0.319602,0.436931,-0.766281,0.0,11.0,60.0,167.0,33.0,1.0
353886,-2.407889,-1.12713,1.176181,0.323008,0.590346,-0.746341,0.0,11.0,60.0,167.0,33.0,1.0
353887,-2.388783,-1.122035,1.204431,0.292943,0.559235,-0.66387,0.0,11.0,60.0,167.0,33.0,1.0
353888,-2.369854,-1.119843,1.259126,0.429395,0.58416,-0.530022,0.0,11.0,60.0,167.0,33.0,1.0
353889,-2.324659,-1.122959,1.352351,0.727237,1.1114620000000002,-0.375333,0.0,11.0,60.0,167.0,33.0,1.0
353890,-2.234119,-1.139463,1.489126,0.860662,1.094337,-0.219987,0.0,11.0,60.0,167.0,33.0,1.0
353891,-2.105303,-1.169722,1.673285,0.802473,0.7513850000000001,0.101148,0.0,11.0,60.0,167.0,33.0,1.0
353892,-2.001416,-1.198019,1.859806,0.024936,0.501954,0.503602,0.0,11.0,60.0,167.0,33.0,1.0
353893,-1.895968,-1.218317,2.046312,0.427365,0.13544,0.661003,0.0,11.0,60.0,167.0,33.0,1.0
353894,-1.73855,-1.237311,2.240336,0.548661,0.134286,0.708959,0.0,11.0,60.0,167.0,33.0,1.0
353895,-1.551012,-1.252128,2.436328,0.087483,0.426109,0.4589720000000001,0.0,11.0,60.0,167.0,33.0,1.0
353896,-1.386325,-1.260027,2.612374,0.099001,0.547291,0.359203,0.0,11.0,60.0,167.0,33.0,1.0
353897,-1.259176,-1.260361,2.761425,0.208332,0.472589,0.409159,0.0,11.0,60.0,167.0,33.0,1.0
353898,-1.143154,-1.252456,2.910498,0.5368350000000001,0.17886,0.420586,0.0,11.0,60.0,167.0,33.0,1.0
353899,-1.046977,-1.241672,3.050725,0.5155350000000001,0.093469,0.492762,0.0,11.0,60.0,167.0,33.0,1.0
353900,-0.988313,-1.236803,-3.112814,0.5041100000000001,0.07534,0.516979,0.0,11.0,60.0,167.0,33.0,1.0
353901,-0.96473,-1.238093,-3.0032520000000003,0.47249,-0.101794,0.600586,0.0,11.0,60.0,167.0,33.0,1.0
353902,-0.953295,-1.237396,-2.889251,0.428325,-0.087574,0.6460319999999999,0.0,11.0,60.0,167.0,33.0,1.0
353903,-0.956564,-1.234928,-2.762177,0.41884,-0.049746,0.7226600000000001,0.0,11.0,60.0,167.0,33.0,1.0
353904,-0.951846,-1.229582,-2.620164,0.378988,-0.012051,0.59749,0.0,11.0,60.0,167.0,33.0,1.0
353905,-0.928263,-1.22282,-2.476298,0.258352,0.002868,0.5082810000000001,0.0,11.0,60.0,167.0,33.0,1.0
353906,-0.893069,-1.21613,-2.335272,-0.024264,0.102399,0.353868,0.0,11.0,60.0,167.0,33.0,1.0
353907,-0.8468969999999999,-1.207786,-2.193275,-0.109117,0.04408,0.305089,0.0,11.0,60.0,167.0,33.0,1.0
353908,-0.7930470000000001,-1.200449,-2.056627,-0.12776400000000002,-0.017086,0.303761,0.0,11.0,60.0,167.0,33.0,1.0
353909,-0.739993,-1.19688,-1.930022,-0.08747100000000001,-0.204021,0.344773,0.0,11.0,60.0,167.0,33.0,1.0
353910,-0.6947840000000001,-1.200097,-1.819344,0.059225,-0.268546,0.314416,0.0,11.0,60.0,167.0,33.0,1.0
353911,-0.665642,-1.205611,-1.722636,0.07620700000000001,-0.305151,0.291115,0.0,11.0,60.0,167.0,33.0,1.0
353912,-0.652399,-1.211268,-1.642202,0.078351,-0.3029,0.192685,0.0,11.0,60.0,167.0,33.0,1.0
353913,-0.656895,-1.2172379999999998,-1.582455,0.07359500000000001,-0.235785,0.098516,0.0,11.0,60.0,167.0,33.0,1.0
353914,-0.679107,-1.223884,-1.5432549999999998,0.054867,-0.099393,-0.100788,0.0,11.0,60.0,167.0,33.0,1.0
353915,-0.712013,-1.229657,-1.515766,0.045013,0.10975,-0.368846,0.0,11.0,60.0,167.0,33.0,1.0
353916,-0.744042,-1.233283,-1.483114,0.108617,0.198402,-0.497846,0.0,11.0,60.0,167.0,33.0,1.0
353917,-0.756149,-1.233133,-1.430776,0.195234,0.358364,-0.7718689999999999,0.0,11.0,60.0,167.0,33.0,1.0
353918,-0.745062,-1.22907,-1.361901,0.239107,0.424079,-0.4421,0.0,11.0,60.0,167.0,33.0,1.0
353919,-0.702592,-1.225028,-1.275521,0.295998,0.230022,-0.359642,0.0,11.0,60.0,167.0,33.0,1.0
353920,-0.643325,-1.219659,-1.177496,0.226451,0.01515,-0.372169,0.0,11.0,60.0,167.0,33.0,1.0
353921,-0.59636,-1.216819,-1.086476,0.049852,0.146532,-0.906296,0.0,11.0,60.0,167.0,33.0,1.0
353922,-0.569662,-1.20913,-1.035332,0.027381,1.7920779999999998,0.454472,0.0,11.0,60.0,167.0,33.0,1.0
353923,-0.508929,-1.185021,-1.0008780000000002,-0.086121,0.339332,1.516418,0.0,11.0,60.0,167.0,33.0,1.0
353924,-0.464587,-1.165763,-0.961755,-0.348245,-1.427466,1.471796,0.0,11.0,60.0,167.0,33.0,1.0
353925,-0.434478,-1.170723,-0.940119,-0.130046,-1.449444,0.5182829999999999,0.0,11.0,60.0,167.0,33.0,1.0
353926,-0.435871,-1.195774,-0.97808,0.163617,-0.461902,0.817358,0.0,11.0,60.0,167.0,33.0,1.0
353927,-0.458128,-1.2231610000000002,-1.064601,0.06514,0.254338,0.714197,0.0,11.0,60.0,167.0,33.0,1.0
353928,-0.5039939999999999,-1.254736,-1.147971,0.024016,1.312258,0.230677,0.0,11.0,60.0,167.0,33.0,1.0
353929,-0.52522,-1.267711,-1.176207,0.417193,1.004106,-0.036239,0.0,11.0,60.0,167.0,33.0,1.0
353930,-0.5569609999999999,-1.27546,-1.196774,-0.000111,0.033774,0.310217,0.0,11.0,60.0,167.0,33.0,1.0
353931,-0.619681,-1.287281,-1.228652,-0.066612,-0.111598,0.277375,0.0,11.0,60.0,167.0,33.0,1.0
353932,-0.728183,-1.301159,-1.288856,0.068963,-0.054337,0.167378,0.0,11.0,60.0,167.0,33.0,1.0
353933,-0.8442200000000001,-1.311495,-1.362499,0.140352,0.241576,0.029681,0.0,11.0,60.0,167.0,33.0,1.0
353934,-0.937235,-1.320794,-1.421744,0.084842,0.466986,-0.078793,0.0,11.0,60.0,167.0,33.0,1.0
353935,-1.018289,-1.3338299999999998,-1.469772,0.016061000000000002,0.424231,-0.147513,0.0,11.0,60.0,167.0,33.0,1.0
353936,-1.078854,-1.346507,-1.50498,-0.061214,-0.000282,-0.237715,0.0,11.0,60.0,167.0,33.0,1.0
353937,-1.122882,-1.355873,-1.537941,-0.137271,-0.015353,-0.275336,0.0,11.0,60.0,167.0,33.0,1.0
353938,-1.1235959999999998,-1.360269,-1.541093,-0.191235,0.069076,-0.310229,0.0,11.0,60.0,167.0,33.0,1.0
353939,-1.072302,-1.353625,-1.488601,-0.007201000000000002,0.054692999999999985,-0.601997,0.0,11.0,60.0,167.0,33.0,1.0
353940,-0.961971,-1.335121,-1.385938,-0.012667,-0.038702,-0.615146,0.0,11.0,60.0,167.0,33.0,1.0
353941,-0.813042,-1.302626,-1.258824,-0.055058,-0.147927,-0.413041,0.0,11.0,60.0,167.0,33.0,1.0
353942,-0.669133,-1.2586959999999998,-1.146254,0.041978,-0.666733,0.336566,0.0,11.0,60.0,167.0,33.0,1.0
353943,-0.56966,-1.221325,-1.078243,0.040822,-0.973627,0.807135,0.0,11.0,60.0,167.0,33.0,1.0
353944,-0.502736,-1.196219,-1.028084,0.159912,-1.3645,0.886654,0.0,11.0,60.0,167.0,33.0,1.0
353945,-0.459478,-1.179239,-0.980366,0.299871,-1.493423,0.684553,0.0,11.0,60.0,167.0,33.0,1.0
353946,-0.434998,-1.165951,-0.945787,0.6052649999999999,-1.087224,0.595209,0.0,11.0,60.0,167.0,33.0,1.0
353947,-0.388965,-1.157747,-0.906101,0.728622,-0.8405379999999999,0.5123270000000001,0.0,11.0,60.0,167.0,33.0,1.0
353948,-0.344174,-1.158589,-0.8669180000000001,0.528641,-0.825586,0.537697,0.0,11.0,60.0,167.0,33.0,1.0
353949,-0.317814,-1.178212,-0.843657,0.297528,-0.571918,0.24668,0.0,11.0,60.0,167.0,33.0,1.0
353950,-0.339543,-1.219481,-0.867259,0.201893,-0.423769,0.257047,0.0,11.0,60.0,167.0,33.0,1.0
353951,-0.436444,-1.268709,-0.961654,-0.37099,0.86474,0.002356,0.0,11.0,60.0,167.0,33.0,1.0
353952,-0.613919,-1.303339,-1.131825,-0.415635,2.492784,-0.982386,0.0,11.0,60.0,167.0,33.0,1.0
353953,-0.719961,-1.316657,-1.191608,0.039508,2.054886,-1.227832,0.0,11.0,60.0,167.0,33.0,1.0
353954,-0.783061,-1.337881,-1.191616,-0.107921,0.117884,-0.676646,0.0,11.0,60.0,167.0,33.0,1.0
353955,-0.7932819999999999,-1.3558290000000002,-1.154156,-0.55269,0.174292,-0.292968,0.0,11.0,60.0,167.0,33.0,1.0
353956,-0.678211,-1.361104,-1.0706,-0.832457,0.27247,0.5940380000000001,0.0,11.0,60.0,167.0,33.0,1.0
353957,-0.503067,-1.367743,-0.971449,-0.35549899999999995,0.422461,0.726753,0.0,11.0,60.0,167.0,33.0,1.0
353958,-0.431442,-1.364764,-0.941737,0.037523,1.151612,-0.980767,0.0,11.0,60.0,167.0,33.0,1.0
353959,-0.511996,-1.361307,-0.956641,-0.067376,2.592282,-1.612394,0.0,11.0,60.0,167.0,33.0,1.0
353960,-0.404082,-1.319257,-0.8756510000000001,0.399123,-0.06813999999999999,0.853195,0.0,11.0,60.0,167.0,33.0,1.0
353961,-0.326764,-1.288834,-0.823707,0.409984,-0.268495,0.619859,0.0,11.0,60.0,167.0,33.0,1.0
353962,-0.32629400000000003,-1.299869,-0.809077,-0.135199,0.045388,0.369443,0.0,11.0,60.0,167.0,33.0,1.0
353963,-0.37408,-1.325089,-0.828926,-0.17241199999999998,0.438421,-0.147052,0.0,11.0,60.0,167.0,33.0,1.0
353964,-0.403743,-1.326408,-0.8465219999999999,-0.128916,0.218618,-0.500193,0.0,11.0,60.0,167.0,33.0,1.0
353965,-0.397639,-1.315152,-0.851772,-0.164184,0.219008,-0.579068,0.0,11.0,60.0,167.0,33.0,1.0
353966,-0.356603,-1.289217,-0.8390129999999999,-0.310609,0.150726,-0.383709,0.0,11.0,60.0,167.0,33.0,1.0
353967,-0.317446,-1.243436,-0.815126,-0.199975,-0.193537,-0.043576,0.0,11.0,60.0,167.0,33.0,1.0
353968,-0.303135,-1.188716,-0.810383,-0.192641,-0.613911,0.532235,0.0,11.0,60.0,167.0,33.0,1.0
353969,-0.311051,-1.1369479999999998,-0.827401,0.178383,-1.02265,1.057001,0.0,11.0,60.0,167.0,33.0,1.0
353970,-0.32355300000000004,-1.109015,-0.8351700000000001,0.393927,-1.627331,0.843684,0.0,11.0,60.0,167.0,33.0,1.0
353971,-0.30390100000000003,-1.103267,-0.822053,0.558996,-1.661346,0.646623,0.0,11.0,60.0,167.0,33.0,1.0
353972,-0.267295,-1.104054,-0.816523,0.597059,-0.876025,0.61771,0.0,11.0,60.0,167.0,33.0,1.0
353973,-0.202258,-1.1178549999999998,-0.782907,0.5145890000000001,-0.6094609999999999,0.360433,0.0,11.0,60.0,167.0,33.0,1.0
353974,-0.126227,-1.158856,-0.735809,0.35799200000000003,-0.503229,0.308389,0.0,11.0,60.0,167.0,33.0,1.0
353975,-0.080302,-1.216719,-0.708663,0.32281,0.146781,0.477328,0.0,11.0,60.0,167.0,33.0,1.0
353976,-0.130758,-1.279537,-0.771054,-0.302572,0.7503380000000001,0.212398,0.0,11.0,60.0,167.0,33.0,1.0
353977,-0.282324,-1.317578,-0.8823059999999999,-0.451757,1.059431,-0.300061,0.0,11.0,60.0,167.0,33.0,1.0
353978,-0.3747,-1.320435,-0.900722,-0.000516,1.114719,-0.780193,0.0,11.0,60.0,167.0,33.0,1.0
353979,-0.387798,-1.334293,-0.8711629999999999,-0.181302,-0.120784,-0.921797,0.0,11.0,60.0,167.0,33.0,1.0
353980,-0.363458,-1.372472,-0.8298040000000001,-0.412797,-0.343023,-0.531227,0.0,11.0,60.0,167.0,33.0,1.0
353981,-0.213116,-1.41705,-0.7313729999999999,-0.6522319999999999,-0.302596,0.752173,0.0,11.0,60.0,167.0,33.0,1.0
353982,-0.061630999999999984,-1.432487,-0.6560779999999999,-0.933069,0.432157,0.719486,0.0,11.0,60.0,167.0,33.0,1.0
353983,-0.060513,-1.428097,-0.675021,-0.618858,0.659227,0.548664,0.0,11.0,60.0,167.0,33.0,1.0
353984,-0.169344,-1.41299,-0.74456,0.33660100000000004,0.37914,-0.5756359999999999,0.0,11.0,60.0,167.0,33.0,1.0
353985,-0.241566,-1.404692,-0.7377130000000001,-0.041828,2.604218,-1.729971,0.0,11.0,60.0,167.0,33.0,1.0
353986,-0.090355,-1.372406,-0.672309,0.052389,-0.047631,1.057656,0.0,11.0,60.0,167.0,33.0,1.0
353987,-0.037058,-1.339827,-0.6661060000000001,0.28486300000000003,-0.281169,0.712268,0.0,11.0,60.0,167.0,33.0,1.0
353988,-0.067575,-1.334096,-0.672956,-0.066137,0.13655599999999998,0.568477,0.0,11.0,60.0,167.0,33.0,1.0
353989,-0.129455,-1.366608,-0.6877,-0.190196,0.433036,0.243551,0.0,11.0,60.0,167.0,33.0,1.0
353990,-0.260412,-1.405072,-0.75926,-0.050152,0.500685,-0.4256430000000001,0.0,11.0,60.0,167.0,33.0,1.0
353991,-0.358821,-1.418343,-0.8367370000000001,-0.004542,0.577806,-0.72063,0.0,11.0,60.0,167.0,33.0,1.0
353992,-0.365649,-1.417633,-0.870302,-0.310999,0.493091,-0.796589,0.0,11.0,60.0,167.0,33.0,1.0
353993,-0.334784,-1.3870049999999998,-0.8600610000000001,-0.323062,0.15353,-0.730258,0.0,11.0,60.0,167.0,33.0,1.0
353994,-0.294897,-1.327732,-0.833191,-0.41568,-0.353463,-0.325833,0.0,11.0,60.0,167.0,33.0,1.0
353995,-0.275991,-1.253316,-0.8354860000000001,-0.13513499999999998,-0.455808,0.414134,0.0,11.0,60.0,167.0,33.0,1.0
353996,-0.28335,-1.181833,-0.852814,0.134798,-0.65774,1.1747379999999998,0.0,11.0,60.0,167.0,33.0,1.0
353997,-0.277014,-1.124975,-0.835866,0.352437,-1.148808,0.610265,0.0,11.0,60.0,167.0,33.0,1.0
353998,-0.227874,-1.088324,-0.7893100000000001,0.454911,-1.309465,0.6823020000000001,0.0,11.0,60.0,167.0,33.0,1.0
353999,-0.181916,-1.065627,-0.764221,0.393767,-0.8652200000000001,0.8224610000000001,0.0,11.0,60.0,167.0,33.0,1.0
354000,-0.122628,-1.056814,-0.7291890000000001,0.6012149999999999,-0.5235489999999999,0.6572319999999999,0.0,11.0,60.0,167.0,33.0,1.0
354001,-0.067411,-1.07435,-0.686263,0.27755100000000005,-0.4345020000000001,0.4763,0.0,11.0,60.0,167.0,33.0,1.0
354002,-0.022937,-1.114858,-0.645438,0.211545,-0.31282600000000005,0.421017,0.0,11.0,60.0,167.0,33.0,1.0
354003,-0.013121,-1.1740389999999998,-0.637455,-0.23792600000000005,-0.139192,0.221166,0.0,11.0,60.0,167.0,33.0,1.0
354004,-0.061171,-1.235277,-0.667564,-0.505141,0.533315,-0.31850700000000004,0.0,11.0,60.0,167.0,33.0,1.0
354005,-0.16835999999999998,-1.291107,-0.729939,-0.140177,1.204783,-0.70221,0.0,11.0,60.0,167.0,33.0,1.0
354006,-0.270893,-1.335914,-0.8076909999999999,-0.019119,1.150856,-0.903416,0.0,11.0,60.0,167.0,33.0,1.0
354007,-0.318924,-1.375483,-0.836725,0.063499,0.579468,-0.886077,0.0,11.0,60.0,167.0,33.0,1.0
354008,-0.281814,-1.418613,-0.796639,-0.419062,-0.115853,-0.371731,0.0,11.0,60.0,167.0,33.0,1.0
354009,-0.163252,-1.444389,-0.685755,-0.322487,-0.24135,0.93831,0.0,11.0,60.0,167.0,33.0,1.0
354010,-0.08431,-1.441934,-0.631193,-0.329971,0.115423,0.696451,0.0,11.0,60.0,167.0,33.0,1.0
354011,-0.064297,-1.4414360000000002,-0.6253340000000001,-0.115554,0.165262,0.076942,0.0,11.0,60.0,167.0,33.0,1.0
354012,-0.226195,-1.445142,-0.694547,-0.511696,4.07899,-3.648212000000001,0.0,11.0,60.0,167.0,33.0,1.0
354013,-0.172498,-1.403291,-0.652628,0.17810299999999998,-0.623394,1.457651,0.0,11.0,60.0,167.0,33.0,1.0
354014,-0.054252,-1.366483,-0.650385,0.389633,-0.681257,0.622606,0.0,11.0,60.0,167.0,33.0,1.0
354015,-0.033977999999999994,-1.3509639999999998,-0.659194,0.210365,0.228641,0.480999,0.0,11.0,60.0,167.0,33.0,1.0
354016,-0.141011,-1.380856,-0.720194,-0.07875399999999999,0.979563,0.417662,0.0,11.0,60.0,167.0,33.0,1.0
354017,-0.364812,-1.4156799999999998,-0.848748,-0.109838,1.0088629999999998,-0.314211,0.0,11.0,60.0,167.0,33.0,1.0
354018,-0.401454,-1.395091,-0.823616,-0.465609,0.221177,-0.70475,0.0,11.0,60.0,167.0,33.0,1.0
354019,-0.338458,-1.369927,-0.804158,-0.5743229999999999,0.079661,-0.323018,0.0,11.0,60.0,167.0,33.0,1.0
354020,-0.278496,-1.3224,-0.781455,-0.513579,-0.086633,-0.110744,0.0,11.0,60.0,167.0,33.0,1.0
354021,-0.270422,-1.2546959999999998,-0.789162,-0.329649,-0.494065,0.571008,0.0,11.0,60.0,167.0,33.0,1.0
354022,-0.29609800000000003,-1.189346,-0.81642,-0.161704,-0.584254,0.7640020000000001,0.0,11.0,60.0,167.0,33.0,1.0
354023,-0.329825,-1.144168,-0.816928,0.4380350000000001,-1.199703,0.808317,0.0,11.0,60.0,167.0,33.0,1.0
354024,-0.278353,-1.127602,-0.776105,0.573806,-1.250768,0.647407,0.0,11.0,60.0,167.0,33.0,1.0
354025,-0.221973,-1.12101,-0.752998,0.34329,-0.869031,0.706692,0.0,11.0,60.0,167.0,33.0,1.0
354026,-0.171132,-1.119745,-0.722038,0.337814,-0.645305,0.484394,0.0,11.0,60.0,167.0,33.0,1.0
354027,-0.115627,-1.14133,-0.682658,0.16257,-0.311898,0.543756,0.0,11.0,60.0,167.0,33.0,1.0
354028,-0.070542,-1.184746,-0.6561819999999999,0.15012,-0.14623699999999998,0.499779,0.0,11.0,60.0,167.0,33.0,1.0
354029,-0.075462,-1.240582,-0.668443,0.15332,0.20544,0.264704,0.0,11.0,60.0,167.0,33.0,1.0
354030,-0.17232,-1.282809,-0.730916,-0.230827,1.121337,-1.186214,0.0,11.0,60.0,167.0,33.0,1.0
354031,-0.296173,-1.291978,-0.782752,-0.123916,1.244139,-1.073171,0.0,11.0,60.0,167.0,33.0,1.0
354032,-0.376126,-1.311954,-0.813562,-0.059947,0.517505,-0.8633850000000001,0.0,11.0,60.0,167.0,33.0,1.0
354033,-0.437695,-1.344488,-0.843815,-0.116541,0.060853,-0.770433,0.0,11.0,60.0,167.0,33.0,1.0
354034,-0.466376,-1.36997,-0.8631200000000001,-0.186298,-0.464216,0.344098,0.0,11.0,60.0,167.0,33.0,1.0
354035,-0.422083,-1.373585,-0.857547,-0.199465,-0.641353,1.297908,0.0,11.0,60.0,167.0,33.0,1.0
354036,-0.350586,-1.376747,-0.813855,-0.484941,0.136383,0.5024810000000001,0.0,11.0,60.0,167.0,33.0,1.0
354037,-0.48612,-1.411276,-0.8851180000000001,-0.237934,0.685472,-0.395575,0.0,11.0,60.0,167.0,33.0,1.0
354038,-0.743815,-1.4178309999999998,-1.023776,0.401475,1.555088,0.43744,0.0,11.0,60.0,167.0,33.0,1.0
354039,-0.6524220000000001,-1.386903,-0.988933,0.356257,-0.193833,0.924338,0.0,11.0,60.0,167.0,33.0,1.0
354040,-0.592905,-1.373151,-0.951598,0.735915,-0.434053,0.64458,0.0,11.0,60.0,167.0,33.0,1.0
354041,-0.692008,-1.392173,-1.001836,0.009811,0.739574,-1.007287,0.0,11.0,60.0,167.0,33.0,1.0
354042,-0.804024,-1.394886,-1.035778,0.224203,0.983526,-0.95962,0.0,11.0,60.0,167.0,33.0,1.0
354043,-0.674246,-1.360085,-0.886884,-0.024234,0.313438,-0.5117520000000001,0.0,11.0,60.0,167.0,33.0,1.0
354044,-0.592965,-1.327778,-0.784392,-0.204969,-0.363927,0.272403,0.0,11.0,60.0,167.0,33.0,1.0
354045,-0.5082840000000001,-1.2871780000000002,-0.700781,-0.056048,-0.5958680000000001,0.427642,0.0,11.0,60.0,167.0,33.0,1.0
354046,-0.440498,-1.255277,-0.652319,0.0016170000000000002,-0.855268,0.557305,0.0,11.0,60.0,167.0,33.0,1.0
354047,-0.398724,-1.243957,-0.615537,0.179757,-1.445215,1.222647,0.0,11.0,60.0,167.0,33.0,1.0
354048,-0.376549,-1.248109,-0.567129,0.207272,-1.520957,0.684248,0.0,11.0,60.0,167.0,33.0,1.0
354049,-0.38729,-1.229637,-0.5227350000000001,0.331637,-0.906921,0.282188,0.0,11.0,60.0,167.0,33.0,1.0
354050,-0.427572,-1.211134,-0.512847,0.39887,-0.564998,0.200896,0.0,11.0,60.0,167.0,33.0,1.0
354051,-0.453146,-1.20089,-0.508415,0.492226,-0.211963,0.44605,0.0,11.0,60.0,167.0,33.0,1.0
354052,-0.463758,-1.198301,-0.499587,0.03297,-0.093272,0.456216,0.0,11.0,60.0,167.0,33.0,1.0
354053,-0.467741,-1.209736,-0.512263,-0.557401,1.021234,0.978583,0.0,11.0,60.0,167.0,33.0,1.0
354054,-0.481998,-1.22532,-0.55793,-0.875374,1.094684,0.104926,0.0,11.0,60.0,167.0,33.0,1.0
354055,-0.519822,-1.250859,-0.5859300000000001,-0.524613,0.393625,-0.28139699999999995,0.0,11.0,60.0,167.0,33.0,1.0
354056,-0.62021,-1.280233,-0.640137,-0.489212,0.368761,-1.188887,0.0,11.0,60.0,167.0,33.0,1.0
354057,-0.7495390000000001,-1.285058,-0.68461,-0.132436,0.6391479999999999,-1.430264,0.0,11.0,60.0,167.0,33.0,1.0
354058,-0.7637010000000001,-1.273072,-0.677571,0.10004,0.494296,-1.087112,0.0,11.0,60.0,167.0,33.0,1.0
354059,-0.7312569999999999,-1.265649,-0.6625489999999999,0.026444,0.115442,-0.63451,0.0,11.0,60.0,167.0,33.0,1.0
354060,-0.6633979999999999,-1.261182,-0.620613,0.013289,-0.3896,-0.636758,0.0,11.0,60.0,167.0,33.0,1.0
354061,-0.594008,-1.252933,-0.57298,-0.416636,-0.152161,-0.864833,0.0,11.0,60.0,167.0,33.0,1.0
354062,-0.548428,-1.232008,-0.5578270000000001,0.033719,0.410067,2.349544,0.0,11.0,60.0,167.0,33.0,1.0
354063,-0.562625,-1.18936,-0.576658,0.278118,0.305527,1.812868,0.0,11.0,60.0,167.0,33.0,1.0
354064,-0.5866020000000001,-1.166482,-0.600256,0.171104,0.429703,1.389599,0.0,11.0,60.0,167.0,33.0,1.0
354065,-0.620316,-1.169174,-0.6430100000000001,-0.034199,2.330747,-0.299217,0.0,11.0,60.0,167.0,33.0,1.0
354066,-0.693936,-1.183354,-0.680954,0.21240100000000006,1.12504,0.001741,0.0,11.0,60.0,167.0,33.0,1.0
354067,-0.6599520000000001,-1.153069,-0.632243,0.26539,0.566196,0.8942700000000001,0.0,11.0,60.0,167.0,33.0,1.0
354068,-0.663443,-1.153606,-0.613694,0.036483,0.355132,1.040291,0.0,11.0,60.0,167.0,33.0,1.0
354069,-0.695304,-1.19241,-0.6380399999999999,-0.105541,0.453108,0.417552,0.0,11.0,60.0,167.0,33.0,1.0
354070,-0.794764,-1.246968,-0.718877,-0.058677,0.466328,0.158407,0.0,11.0,60.0,167.0,33.0,1.0
354071,-0.953223,-1.285873,-0.8305680000000001,0.135235,0.30144,-0.17340999999999998,0.0,11.0,60.0,167.0,33.0,1.0
354072,-1.083416,-1.305836,-0.913222,0.299115,0.034989,0.080776,0.0,11.0,60.0,167.0,33.0,1.0
354073,-1.215431,-1.3275629999999998,-1.017168,0.341928,-0.240935,0.209356,0.0,11.0,60.0,167.0,33.0,1.0
354074,-1.388361,-1.354848,-1.181581,0.173726,-0.453474,0.045844,0.0,11.0,60.0,167.0,33.0,1.0
354075,-1.631551,-1.376782,-1.4200959999999998,-0.214347,-0.488395,-0.171495,0.0,11.0,60.0,167.0,33.0,1.0
354076,-1.875901,-1.383153,-1.651773,-0.342664,-0.512903,-0.279159,0.0,11.0,60.0,167.0,33.0,1.0
354077,-2.059714,-1.373162,-1.825085,-0.285414,-0.599033,-0.185242,0.0,11.0,60.0,167.0,33.0,1.0
354078,-2.1908830000000004,-1.353332,-1.942866,-0.073165,-0.358772,-0.166195,0.0,11.0,60.0,167.0,33.0,1.0
354079,-2.288062,-1.328709,-2.023124,0.012769,-0.169692,-0.296453,0.0,11.0,60.0,167.0,33.0,1.0
354080,-2.380866,-1.301083,-2.094188,0.002617,0.184773,-0.577022,0.0,11.0,60.0,167.0,33.0,1.0
354081,-2.440007,-1.27411,-2.146148,0.29247199999999995,0.130772,-0.599634,0.0,11.0,60.0,167.0,33.0,1.0
354082,-2.394485,-1.254746,-2.14188,0.422878,0.093261,-0.449103,0.0,11.0,60.0,167.0,33.0,1.0
354083,-2.292862,-1.2485700000000002,-2.0902830000000003,0.375269,0.363021,-0.14163399999999998,0.0,11.0,60.0,167.0,33.0,1.0
354084,-2.274377,-1.23734,-2.064018,0.4692520000000001,0.215835,-0.239636,0.0,11.0,60.0,167.0,33.0,1.0
354085,-2.314143,-1.2203469999999998,-2.044403,0.530468,0.211538,-0.424227,0.0,11.0,60.0,167.0,33.0,1.0
354086,-2.316368,-1.209757,-1.994108,0.802091,0.4360060000000001,-0.332891,0.0,11.0,60.0,167.0,33.0,1.0
354087,-2.265689,-1.2086370000000002,-1.912386,1.0629309999999998,0.761475,0.24433,0.0,11.0,60.0,167.0,33.0,1.0
354088,-2.209545,-1.219655,-1.81171,1.0373709999999998,0.838424,0.451905,0.0,11.0,60.0,167.0,33.0,1.0
354089,-2.183157,-1.234438,-1.698234,-0.147277,0.5662149999999999,0.101998,0.0,11.0,60.0,167.0,33.0,1.0
354090,-2.116496,-1.248521,-1.526077,0.178625,0.22485300000000005,-0.009821,0.0,11.0,60.0,167.0,33.0,1.0
354091,-1.970356,-1.2623719999999998,-1.3182040000000002,0.4562520000000001,0.214927,0.231177,0.0,11.0,60.0,167.0,33.0,1.0
354092,-1.790613,-1.276203,-1.10878,0.6818930000000001,0.265766,0.60637,0.0,11.0,60.0,167.0,33.0,1.0
354093,-1.610065,-1.28961,-0.898826,0.6047359999999999,0.370953,0.682649,0.0,11.0,60.0,167.0,33.0,1.0
354094,-1.445913,-1.300001,-0.6809270000000001,0.5394180000000001,0.496738,0.694435,0.0,11.0,60.0,167.0,33.0,1.0
354095,-1.303508,-1.298639,-0.472667,0.328313,0.527911,0.544535,0.0,11.0,60.0,167.0,33.0,1.0
354096,-1.196995,-1.288596,-0.309653,0.309247,0.350804,0.486874,0.0,11.0,60.0,167.0,33.0,1.0
354097,-1.105474,-1.27962,-0.173796,0.405731,0.245249,0.452938,0.0,11.0,60.0,167.0,33.0,1.0
354098,-1.024095,-1.272979,-0.054313,0.516096,0.18991,0.529312,0.0,11.0,60.0,167.0,33.0,1.0
354099,-0.983138,-1.273755,0.034556,0.5365489999999999,0.143952,0.618214,0.0,11.0,60.0,167.0,33.0,1.0
354100,-0.997794,-1.282058,0.096669,0.619409,0.053145000000000005,0.7587229999999999,0.0,11.0,60.0,167.0,33.0,1.0
354101,-1.004258,-1.284485,0.191944,0.511841,-0.011691,0.7150920000000001,0.0,11.0,60.0,167.0,33.0,1.0
354102,-1.01822,-1.282118,0.298535,0.552136,-0.087405,0.803838,0.0,11.0,60.0,167.0,33.0,1.0
354103,-1.033561,-1.27679,0.4184520000000001,0.66761,-0.072874,0.639355,0.0,11.0,60.0,167.0,33.0,1.0
354104,-1.017848,-1.263252,0.568713,0.5409079999999999,0.060638,0.383286,0.0,11.0,60.0,167.0,33.0,1.0
354105,-0.997006,-1.245826,0.716622,0.085872,-0.027952,0.396419,0.0,11.0,60.0,167.0,33.0,1.0
354106,-0.97273,-1.230321,0.855749,0.093697,-0.022888,0.411129,0.0,11.0,60.0,167.0,33.0,1.0
354107,-0.934362,-1.215065,0.99294,0.124687,0.01114,0.443893,0.0,11.0,60.0,167.0,33.0,1.0
354108,-0.8814870000000001,-1.201606,1.130724,0.11618599999999997,0.027844,0.448954,0.0,11.0,60.0,167.0,33.0,1.0
354109,-0.8282290000000001,-1.190233,1.261154,0.090879,0.002437,0.433286,0.0,11.0,60.0,167.0,33.0,1.0
354110,-0.785169,-1.178426,1.379138,0.076543,-0.016703,0.420875,0.0,11.0,60.0,167.0,33.0,1.0
354111,-0.756566,-1.167123,1.478442,0.192825,-0.189385,0.34423000000000004,0.0,11.0,60.0,167.0,33.0,1.0
354112,-0.737514,-1.158664,1.562515,0.211828,-0.23298,0.357534,0.0,11.0,60.0,167.0,33.0,1.0
354113,-0.722201,-1.155592,1.631185,0.110331,-0.338984,0.40388,0.0,11.0,60.0,167.0,33.0,1.0
354114,-0.7111109999999999,-1.161545,1.6830900000000002,-0.007976,-0.442138,0.079322,0.0,11.0,60.0,167.0,33.0,1.0
354115,-0.715087,-1.177342,1.714347,-0.042224,-0.401709,-0.153152,0.0,11.0,60.0,167.0,33.0,1.0
354116,-0.737448,-1.195801,1.731011,-0.103414,-0.32832100000000003,-0.422993,0.0,11.0,60.0,167.0,33.0,1.0
354117,-0.768663,-1.207619,1.753964,0.436984,0.50259,-1.054045,0.0,11.0,60.0,167.0,33.0,1.0
354118,-0.7633220000000001,-1.214823,1.815848,0.406876,0.526666,-0.994034,0.0,11.0,60.0,167.0,33.0,1.0
354119,-0.71885,-1.222179,1.898147,0.279416,0.464375,-0.864959,0.0,11.0,60.0,167.0,33.0,1.0
354120,-0.64982,-1.225693,1.998613,0.353525,-0.095337,-0.553218,0.0,11.0,60.0,167.0,33.0,1.0
354121,-0.575493,-1.222029,2.116866,0.334834,-0.094092,-0.535872,0.0,11.0,60.0,167.0,33.0,1.0
354122,-0.568381,-1.230028,2.185892,0.413821,-0.338891,0.68383,0.0,11.0,60.0,167.0,33.0,1.0
354123,-0.526628,-1.234897,2.196561,0.040041,1.314202,0.873341,0.0,11.0,60.0,167.0,33.0,1.0
354124,-0.500218,-1.193863,2.205886,-0.84311,2.299786,0.281522,0.0,11.0,60.0,167.0,33.0,1.0
354125,-0.542419,-1.154127,2.206784,0.028417,-1.106794,1.325727,0.0,11.0,60.0,167.0,33.0,1.0
354126,-0.5524319999999999,-1.156964,2.189182,0.291624,-1.322676,0.583234,0.0,11.0,60.0,167.0,33.0,1.0
354127,-0.512369,-1.189353,2.170468,0.444425,-0.841413,0.48436,0.0,11.0,60.0,167.0,33.0,1.0
354128,-0.455651,-1.230849,2.152268,0.142756,0.662529,0.376831,0.0,11.0,60.0,167.0,33.0,1.0
354129,-0.44029,-1.269829,2.1270830000000003,0.386608,0.841031,0.182832,0.0,11.0,60.0,167.0,33.0,1.0
354130,-0.479276,-1.298251,2.07425,0.5448390000000001,0.513993,0.314189,0.0,11.0,60.0,167.0,33.0,1.0
354131,-0.5612199999999999,-1.312333,2.0003490000000004,0.257331,0.15286,0.20970500000000006,0.0,11.0,60.0,167.0,33.0,1.0
354132,-0.669257,-1.315676,1.928094,0.054275,-0.070492,0.247087,0.0,11.0,60.0,167.0,33.0,1.0
354133,-0.787187,-1.31712,1.854367,-0.066273,-0.139475,0.133151,0.0,11.0,60.0,167.0,33.0,1.0
354134,-0.922734,-1.321721,1.7582509999999998,-0.134938,-0.014413,0.045442,0.0,11.0,60.0,167.0,33.0,1.0
354135,-1.0748799999999998,-1.333197,1.637683,-0.0060030000000000005,0.22005,-0.117399,0.0,11.0,60.0,167.0,33.0,1.0
354136,-1.231601,-1.349836,1.50127,0.140585,0.157156,-0.101554,0.0,11.0,60.0,167.0,33.0,1.0
354137,-1.358994,-1.361158,1.379084,0.194716,0.069852,-0.141362,0.0,11.0,60.0,167.0,33.0,1.0
354138,-1.4612040000000002,-1.368143,1.279937,0.007711,0.229967,-0.393212,0.0,11.0,60.0,167.0,33.0,1.0
354139,-1.542813,-1.3724459999999998,1.209121,0.000228,0.269271,-0.6774560000000001,0.0,11.0,60.0,167.0,33.0,1.0
354140,-1.552673,-1.373719,1.204549,-0.032241000000000006,0.269708,-0.749962,0.0,11.0,60.0,167.0,33.0,1.0
354141,-1.461568,-1.373426,1.274259,-0.088814,0.169484,-0.651708,0.0,11.0,60.0,167.0,33.0,1.0
354142,-1.254702,-1.36763,1.446089,-0.080804,0.118636,-0.614563,0.0,11.0,60.0,167.0,33.0,1.0
354143,-0.97231,-1.345735,1.694338,0.182863,-0.135227,-0.31652800000000003,0.0,11.0,60.0,167.0,33.0,1.0
354144,-0.7168329999999999,-1.311927,1.911083,0.141774,-0.474569,0.33413200000000004,0.0,11.0,60.0,167.0,33.0,1.0
354145,-0.5256770000000001,-1.273483,2.06515,0.13549,-0.717724,1.031233,0.0,11.0,60.0,167.0,33.0,1.0
354146,-0.429765,-1.241002,2.173479,0.26462800000000003,-1.301837,1.027419,0.0,11.0,60.0,167.0,33.0,1.0
354147,-0.379936,-1.215892,2.278058,0.237742,-1.646252,0.7390760000000001,0.0,11.0,60.0,167.0,33.0,1.0
354148,-0.334449,-1.195723,2.365394,0.211663,-1.683075,0.723901,0.0,11.0,60.0,167.0,33.0,1.0
354149,-0.29856,-1.186321,2.404974,0.524034,-1.037347,0.5976670000000001,0.0,11.0,60.0,167.0,33.0,1.0
354150,-0.283824,-1.191182,2.414845,0.335302,-0.969991,0.610701,0.0,11.0,60.0,167.0,33.0,1.0
354151,-0.296823,-1.206909,2.39113,0.136351,-0.749233,0.403765,0.0,11.0,60.0,167.0,33.0,1.0
354152,-0.351472,-1.236435,2.308823,-0.10736,-0.281534,0.289644,0.0,11.0,60.0,167.0,33.0,1.0
354153,-0.496269,-1.267496,2.139311,-0.175361,0.137853,0.075555,0.0,11.0,60.0,167.0,33.0,1.0
354154,-0.780614,-1.264019,1.887014,-0.542701,1.857388,-0.17336400000000002,0.0,11.0,60.0,167.0,33.0,1.0
354155,-0.917213,-1.259286,1.859539,0.093659,1.309313,-0.773961,0.0,11.0,60.0,167.0,33.0,1.0
354156,-0.969255,-1.283159,1.837209,-0.193433,0.227988,-0.971625,0.0,11.0,60.0,167.0,33.0,1.0
354157,-1.045787,-1.313971,1.766413,-0.203558,-0.145577,-0.751266,0.0,11.0,60.0,167.0,33.0,1.0
354158,-1.115694,-1.344067,1.683303,-0.526537,0.055638,0.139782,0.0,11.0,60.0,167.0,33.0,1.0
354159,-1.093461,-1.356276,1.626892,-0.394499,0.570041,0.8390280000000001,0.0,11.0,60.0,167.0,33.0,1.0
354160,-1.028732,-1.353084,1.631883,-0.056186,0.381119,0.831787,0.0,11.0,60.0,167.0,33.0,1.0
354161,-1.005786,-1.347847,1.652583,0.180678,1.689316,-2.068182,0.0,11.0,60.0,167.0,33.0,1.0
354162,-0.973953,-1.344142,1.730229,0.5190359999999999,-0.431592,1.405246,0.0,11.0,60.0,167.0,33.0,1.0
354163,-0.707465,-1.320878,1.908792,0.464786,-0.673599,0.769008,0.0,11.0,60.0,167.0,33.0,1.0
354164,-0.599546,-1.309522,1.996318,0.447091,-0.568631,0.558153,0.0,11.0,60.0,167.0,33.0,1.0
354165,-0.691188,-1.330927,1.923827,0.14868199999999998,0.583257,0.719653,0.0,11.0,60.0,167.0,33.0,1.0
354166,-0.8783059999999999,-1.366286,1.775027,-0.079997,0.885875,0.273,0.0,11.0,60.0,167.0,33.0,1.0
354167,-1.106974,-1.389101,1.628086,-0.086351,0.382062,-0.4613680000000001,0.0,11.0,60.0,167.0,33.0,1.0
354168,-1.196082,-1.390705,1.620305,-0.377915,0.386061,-0.984519,0.0,11.0,60.0,167.0,33.0,1.0
354169,-1.134776,-1.37999,1.6597669999999998,-0.474061,0.254171,-0.8071109999999999,0.0,11.0,60.0,167.0,33.0,1.0
354170,-1.007355,-1.361992,1.740504,-0.144039,0.017768,-0.577811,0.0,11.0,60.0,167.0,33.0,1.0
354171,-0.8394530000000001,-1.329417,1.881873,0.04229,-0.323548,-0.228414,0.0,11.0,60.0,167.0,33.0,1.0
354172,-0.691997,-1.279708,2.003054,0.013434,-0.5748449999999999,0.26274200000000003,0.0,11.0,60.0,167.0,33.0,1.0
354173,-0.6087560000000001,-1.226032,2.068908,0.081399,-0.6334310000000001,0.873425,0.0,11.0,60.0,167.0,33.0,1.0
354174,-0.582551,-1.191136,2.103753,0.309474,-0.9332,1.076023,0.0,11.0,60.0,167.0,33.0,1.0
354175,-0.56406,-1.181272,2.139328,0.372891,-1.456508,0.5909770000000001,0.0,11.0,60.0,167.0,33.0,1.0
354176,-0.537349,-1.175783,2.170859,0.380089,-1.3938620000000002,0.499049,0.0,11.0,60.0,167.0,33.0,1.0
354177,-0.477313,-1.175429,2.205089,0.574298,-1.008014,0.496478,0.0,11.0,60.0,167.0,33.0,1.0
354178,-0.406244,-1.19986,2.234693,0.6263449999999999,-0.5859949999999999,0.243069,0.0,11.0,60.0,167.0,33.0,1.0
354179,-0.36764,-1.243601,2.24535,0.32568,-0.172228,0.427522,0.0,11.0,60.0,167.0,33.0,1.0
354180,-0.429751,-1.283933,2.181359,-0.290217,0.53975,0.15723900000000002,0.0,11.0,60.0,167.0,33.0,1.0
354181,-0.5759890000000001,-1.300591,2.073677,-0.170482,1.399092,-0.8576229999999999,0.0,11.0,60.0,167.0,33.0,1.0
354182,-0.694438,-1.296729,2.007243,-0.061232,1.557937,-0.698876,0.0,11.0,60.0,167.0,33.0,1.0
354183,-0.7341979999999999,-1.3061,1.989595,-0.105008,0.181541,-0.982605,0.0,11.0,60.0,167.0,33.0,1.0
354184,-0.7921739999999999,-1.332237,1.94713,-0.07194099999999999,-0.160858,-0.668276,0.0,11.0,60.0,167.0,33.0,1.0
354185,-0.8565530000000001,-1.3623459999999998,1.877304,-0.131577,-0.410085,0.726633,0.0,11.0,60.0,167.0,33.0,1.0
354186,-0.8341799999999999,-1.378673,1.856082,-0.344821,-0.092182,0.855408,0.0,11.0,60.0,167.0,33.0,1.0
354187,-0.8252700000000001,-1.397004,1.853771,-0.169213,0.148014,0.6676300000000001,0.0,11.0,60.0,167.0,33.0,1.0
354188,-0.859668,-1.409045,1.8298,0.065709,0.700645,0.513138,0.0,11.0,60.0,167.0,33.0,1.0
354189,-1.111619,-1.427808,1.6804689999999998,-0.7929430000000001,4.150052,-3.4293720000000003,0.0,11.0,60.0,167.0,33.0,1.0
354190,-0.750171,-1.406619,1.962029,0.287945,-0.711849,1.395724,0.0,11.0,60.0,167.0,33.0,1.0
354191,-0.469592,-1.369383,2.140565,0.496322,-0.972262,0.784328,0.0,11.0,60.0,167.0,33.0,1.0
354192,-0.425262,-1.365271,2.179405,0.150772,-0.037258,0.757425,0.0,11.0,60.0,167.0,33.0,1.0
354193,-0.601906,-1.394773,2.046496,-0.306966,0.800517,0.615729,0.0,11.0,60.0,167.0,33.0,1.0
354194,-0.936935,-1.427758,1.7926939999999998,-0.023654,0.932728,-0.901625,0.0,11.0,60.0,167.0,33.0,1.0
354195,-1.119928,-1.427269,1.7240080000000002,0.014118,0.797392,-1.165554,0.0,11.0,60.0,167.0,33.0,1.0
354196,-0.986071,-1.40765,1.823629,-0.785205,0.300953,-0.869477,0.0,11.0,60.0,167.0,33.0,1.0
354197,-0.835383,-1.384824,1.918981,-0.365644,-0.061111,-0.442671,0.0,11.0,60.0,167.0,33.0,1.0
354198,-0.667319,-1.327285,2.055872,-0.048687,-0.464745,0.142952,0.0,11.0,60.0,167.0,33.0,1.0
354199,-0.556667,-1.25655,2.132293,0.12198599999999997,-0.562632,0.752743,0.0,11.0,60.0,167.0,33.0,1.0
354200,-0.5268149999999999,-1.199188,2.161946,0.278035,-0.735379,1.137324,0.0,11.0,60.0,167.0,33.0,1.0
354201,-0.509922,-1.174863,2.208921,0.419383,-1.488784,0.416627,0.0,11.0,60.0,167.0,33.0,1.0
354202,-0.455963,-1.165448,2.262159,0.525196,-1.500386,0.688224,0.0,11.0,60.0,167.0,33.0,1.0
354203,-0.3962,-1.167033,2.297924,0.501987,-1.2966030000000002,0.776025,0.0,11.0,60.0,167.0,33.0,1.0
354204,-0.314497,-1.190632,2.343839,0.790473,-0.770569,0.439362,0.0,11.0,60.0,167.0,33.0,1.0
354205,-0.261427,-1.239118,2.375188,0.607016,-0.688783,0.437186,0.0,11.0,60.0,167.0,33.0,1.0
354206,-0.27323000000000003,-1.295769,2.35445,0.07793,-0.330979,0.423634,0.0,11.0,60.0,167.0,33.0,1.0
354207,-0.399381,-1.344222,2.233949,-0.312272,0.096863,-0.060519,0.0,11.0,60.0,167.0,33.0,1.0
354208,-0.646688,-1.37354,2.021256,-0.357229,0.417372,-0.333364,0.0,11.0,60.0,167.0,33.0,1.0
354209,-0.8229860000000001,-1.379677,1.862279,-0.18546,1.653187,-0.931866,0.0,11.0,60.0,167.0,33.0,1.0
354210,-0.8993059999999999,-1.3902450000000002,1.801896,-0.088752,0.419103,-1.280178,0.0,11.0,60.0,167.0,33.0,1.0
354211,-0.99214,-1.405995,1.721339,-0.192217,0.381103,-0.27172,0.0,11.0,60.0,167.0,33.0,1.0
354212,-0.887159,-1.411462,1.7608849999999998,-0.333524,0.081637,1.170285,0.0,11.0,60.0,167.0,33.0,1.0
354213,-0.812232,-1.41624,1.7915740000000002,-0.28586500000000004,0.114139,0.680235,0.0,11.0,60.0,167.0,33.0,1.0
354214,-0.820981,-1.418788,1.783993,0.123249,0.090785,0.363145,0.0,11.0,60.0,167.0,33.0,1.0
354215,-1.187021,-1.43478,1.536163,0.032514999999999995,2.961323,-3.373214,0.0,11.0,60.0,167.0,33.0,1.0
354216,-1.019311,-1.426691,1.6800990000000002,0.267006,-0.078059,0.766243,0.0,11.0,60.0,167.0,33.0,1.0
354217,-0.8187409999999999,-1.409783,1.806159,0.397978,-0.133641,0.425273,0.0,11.0,60.0,167.0,33.0,1.0
354218,-0.813925,-1.408896,1.81482,0.118315,0.14094600000000002,0.365462,0.0,11.0,60.0,167.0,33.0,1.0
354219,-0.993386,-1.42577,1.694635,-0.371674,0.522018,-0.321119,0.0,11.0,60.0,167.0,33.0,1.0
354220,-1.052164,-1.41629,1.6946290000000002,0.048563,0.51057,-0.8772610000000001,0.0,11.0,60.0,167.0,33.0,1.0
354221,-0.963767,-1.399304,1.76217,-0.034292,0.269246,-0.591978,0.0,11.0,60.0,167.0,33.0,1.0
354222,-0.8270850000000001,-1.383025,1.857694,-0.118062,0.069076,-0.151324,0.0,11.0,60.0,167.0,33.0,1.0
354223,-0.683615,-1.349321,1.9758830000000005,-0.219155,-0.336979,-0.035754,0.0,11.0,60.0,167.0,33.0,1.0
