index,attitude.roll,attitude.pitch,attitude.yaw,userAcceleration.x,userAcceleration.y,userAcceleration.z,act,id,weight,height,age,gender
383800,1.044624,-1.255088,2.671711,-0.166329,0.978653,0.569828,0.0,12.0,60.0,178.0,33.0,1.0
383801,1.117711,-1.241761,2.731449,0.042623,1.529628,0.152447,0.0,12.0,60.0,178.0,33.0,1.0
383802,1.209937,-1.223402,2.742423,0.337305,1.051619,0.080332,0.0,12.0,60.0,178.0,33.0,1.0
383803,1.249133,-1.208689,2.734982,0.315463,1.252226,-0.168343,0.0,12.0,60.0,178.0,33.0,1.0
383804,1.252189,-1.195173,2.727039,0.122012,-0.210431,0.120894,0.0,12.0,60.0,178.0,33.0,1.0
383805,1.241717,-1.181311,2.703472,0.365993,-0.288264,0.010651,0.0,12.0,60.0,178.0,33.0,1.0
383806,1.207266,-1.168789,2.671905,0.393417,0.095576,0.11001,0.0,12.0,60.0,178.0,33.0,1.0
383807,1.183468,-1.144057,2.630525,0.264648,0.280171,0.18803,0.0,12.0,60.0,178.0,33.0,1.0
383808,1.1603,-1.091378,2.572329,0.022754,0.382283,-0.099421,0.0,12.0,60.0,178.0,33.0,1.0
383809,1.118719,-1.015721,2.524553,-0.187136,0.71006,-0.207133,0.0,12.0,60.0,178.0,33.0,1.0
383810,1.083989,-0.938055,2.501619,0.112199,1.877703,0.172575,0.0,12.0,60.0,178.0,33.0,1.0
383811,1.063232,-0.892127,2.485388,-0.370743,0.774737,0.426229,0.0,12.0,60.0,178.0,33.0,1.0
383812,1.063847,-0.8690260000000001,2.476192,-0.5832350000000001,0.356249,0.113893,0.0,12.0,60.0,178.0,33.0,1.0
383813,1.068054,-0.869002,2.466661,-0.201127,0.229738,0.127225,0.0,12.0,60.0,178.0,33.0,1.0
383814,1.070075,-0.8879090000000001,2.454022,-0.329154,0.014361,0.202667,0.0,12.0,60.0,178.0,33.0,1.0
383815,1.075128,-0.922631,2.443479,-0.458738,-0.140302,0.169253,0.0,12.0,60.0,178.0,33.0,1.0
383816,1.085991,-0.972309,2.444522,-0.28530300000000003,-0.379488,0.088946,0.0,12.0,60.0,178.0,33.0,1.0
383817,1.094001,-1.034994,2.452598,-0.118612,-0.07502400000000001,-0.041809,0.0,12.0,60.0,178.0,33.0,1.0
383818,1.081721,-1.106128,2.459663,0.001506,-0.003192,-0.098137,0.0,12.0,60.0,178.0,33.0,1.0
383819,1.03933,-1.166985,2.459357,0.195837,-0.117736,-0.13131199999999998,0.0,12.0,60.0,178.0,33.0,1.0
383820,1.006746,-1.206792,2.468468,-0.002878,-0.7234649999999999,0.220497,0.0,12.0,60.0,178.0,33.0,1.0
383821,0.983798,-1.235174,2.47695,-0.033711,-0.766563,0.118146,0.0,12.0,60.0,178.0,33.0,1.0
383822,0.933981,-1.259041,2.467862,-0.11666,-0.908263,0.146547,0.0,12.0,60.0,178.0,33.0,1.0
383823,0.8701840000000001,-1.276419,2.443855,0.014197,-1.304059,0.404333,0.0,12.0,60.0,178.0,33.0,1.0
383824,0.8442270000000001,-1.292706,2.447371,0.030806,-1.308658,0.399647,0.0,12.0,60.0,178.0,33.0,1.0
383825,0.913322,-1.310682,2.524336,0.00404,-0.776465,-0.013469,0.0,12.0,60.0,178.0,33.0,1.0
383826,1.016483,-1.311441,2.625002,-0.530366,0.228757,-0.613337,0.0,12.0,60.0,178.0,33.0,1.0
383827,1.024752,-1.285056,2.65451,-0.442488,0.520787,0.391627,0.0,12.0,60.0,178.0,33.0,1.0
383828,1.072714,-1.267174,2.700059,-0.102597,1.038477,0.253213,0.0,12.0,60.0,178.0,33.0,1.0
383829,1.20471,-1.253377,2.777964,0.746263,1.607726,0.346297,0.0,12.0,60.0,178.0,33.0,1.0
383830,1.239778,-1.216766,2.73458,0.709835,1.619787,0.347245,0.0,12.0,60.0,178.0,33.0,1.0
383831,1.224556,-1.200728,2.709841,-0.171905,-0.035437,0.421872,0.0,12.0,60.0,178.0,33.0,1.0
383832,1.242223,-1.204386,2.7243310000000003,0.201174,-0.137141,0.252937,0.0,12.0,60.0,178.0,33.0,1.0
383833,1.256065,-1.20935,2.737566,0.386742,-0.025429,0.263474,0.0,12.0,60.0,178.0,33.0,1.0
383834,1.255547,-1.201408,2.710034,0.375153,0.273125,0.36423,0.0,12.0,60.0,178.0,33.0,1.0
383835,1.257684,-1.162748,2.658898,0.29333400000000004,0.50146,-0.383343,0.0,12.0,60.0,178.0,33.0,1.0
383836,1.242215,-1.094339,2.610448,0.231679,0.696809,-0.475108,0.0,12.0,60.0,178.0,33.0,1.0
383837,1.200163,-1.009891,2.566751,0.564779,1.312604,-0.231595,0.0,12.0,60.0,178.0,33.0,1.0
383838,1.13702,-0.934378,2.5283740000000003,-0.255902,1.09906,0.123036,0.0,12.0,60.0,178.0,33.0,1.0
383839,1.124432,-0.8933200000000001,2.516289,-0.821499,0.938311,0.112131,0.0,12.0,60.0,178.0,33.0,1.0
383840,1.143033,-0.888704,2.516731,-0.399372,0.569112,-0.229936,0.0,12.0,60.0,178.0,33.0,1.0
383841,1.161627,-0.89891,2.518636,-0.065447,0.284231,-0.045767,0.0,12.0,60.0,178.0,33.0,1.0
383842,1.184607,-0.924425,2.52237,-0.075602,-0.013851,0.115333,0.0,12.0,60.0,178.0,33.0,1.0
383843,1.208346,-0.961513,2.529713,-0.391466,-0.667165,0.095702,0.0,12.0,60.0,178.0,33.0,1.0
383844,1.220383,-1.010268,2.536823,-0.370586,-0.834111,-0.082238,0.0,12.0,60.0,178.0,33.0,1.0
383845,1.214311,-1.068873,2.542381,-0.307002,-0.798305,-0.128152,0.0,12.0,60.0,178.0,33.0,1.0
383846,1.190028,-1.134564,2.54042,-0.123158,-0.203179,-0.089161,0.0,12.0,60.0,178.0,33.0,1.0
383847,1.14324,-1.192582,2.539159,0.081372,0.16659100000000002,-0.161677,0.0,12.0,60.0,178.0,33.0,1.0
383848,1.110009,-1.230358,2.556993,0.112794,0.090381,-0.041763,0.0,12.0,60.0,178.0,33.0,1.0
383849,1.089823,-1.253753,2.564607,-0.17151,-0.63258,0.001713,0.0,12.0,60.0,178.0,33.0,1.0
383850,1.029884,-1.274812,2.535226,0.003077,-0.927661,0.144055,0.0,12.0,60.0,178.0,33.0,1.0
383851,0.966058,-1.288776,2.497464,0.208961,-1.2332610000000002,0.410647,0.0,12.0,60.0,178.0,33.0,1.0
383852,0.937504,-1.300063,2.482079,0.284474,-1.406049,0.439684,0.0,12.0,60.0,178.0,33.0,1.0
383853,0.992244,-1.308939,2.53713,0.179548,-1.153548,0.108471,0.0,12.0,60.0,178.0,33.0,1.0
383854,1.070156,-1.30005,2.629766,-0.135241,-0.807383,-0.101138,0.0,12.0,60.0,178.0,33.0,1.0
383855,1.144782,-1.279436,2.727687,-0.190911,1.097734,0.496954,0.0,12.0,60.0,178.0,33.0,1.0
383856,1.225993,-1.260615,2.78425,-0.061277,1.882942,0.298345,0.0,12.0,60.0,178.0,33.0,1.0
383857,1.282292,-1.234868,2.760441,-0.108069,1.076037,0.055474,0.0,12.0,60.0,178.0,33.0,1.0
383858,1.285937,-1.214222,2.733632,0.090742,0.5287069999999999,-0.189336,0.0,12.0,60.0,178.0,33.0,1.0
383859,1.293929,-1.197463,2.713145,0.302784,0.300313,0.315956,0.0,12.0,60.0,178.0,33.0,1.0
383860,1.330106,-1.1795,2.707495,0.199954,0.203545,0.37033,0.0,12.0,60.0,178.0,33.0,1.0
383861,1.339073,-1.152836,2.690272,0.416662,0.027548000000000003,-0.06895499999999999,0.0,12.0,60.0,178.0,33.0,1.0
383862,1.303916,-1.109002,2.625825,0.327027,0.559366,-0.034689,0.0,12.0,60.0,178.0,33.0,1.0
383863,1.273915,-1.047205,2.56406,0.278688,0.588591,-0.005924,0.0,12.0,60.0,178.0,33.0,1.0
383864,1.238186,-0.976744,2.523172,0.352898,2.202647,-0.427551,0.0,12.0,60.0,178.0,33.0,1.0
383865,1.198724,-0.924722,2.496655,-0.639533,0.693749,0.212481,0.0,12.0,60.0,178.0,33.0,1.0
383866,1.182346,-0.897533,2.485626,-0.6557569999999999,0.710412,0.229775,0.0,12.0,60.0,178.0,33.0,1.0
383867,1.192415,-0.891697,2.48187,-0.4728979999999999,0.024825,0.09334,0.0,12.0,60.0,178.0,33.0,1.0
383868,1.216261,-0.905435,2.478525,-0.234968,-0.014675,0.16878,0.0,12.0,60.0,178.0,33.0,1.0
383869,1.235298,-0.933373,2.471675,-0.217965,-0.031614,0.15040599999999998,0.0,12.0,60.0,178.0,33.0,1.0
383870,1.245557,-0.973652,2.465726,-0.298412,-0.180353,0.040264,0.0,12.0,60.0,178.0,33.0,1.0
383871,1.243343,-1.0255299999999998,2.461139,-0.148035,-0.039468,-0.231885,0.0,12.0,60.0,178.0,33.0,1.0
383872,1.223331,-1.085395,2.457162,-0.095629,-0.068967,-0.239826,0.0,12.0,60.0,178.0,33.0,1.0
383873,1.189858,-1.142227,2.446909,-0.055057,-0.268463,-0.142432,0.0,12.0,60.0,178.0,33.0,1.0
383874,1.15203,-1.182377,2.435748,-0.030338,-0.576281,-0.015416999999999997,0.0,12.0,60.0,178.0,33.0,1.0
383875,1.113947,-1.21061,2.423445,0.020843,-0.646357,0.063614,0.0,12.0,60.0,178.0,33.0,1.0
383876,1.083951,-1.238595,2.420423,-0.03745,-0.9005270000000001,0.169723,0.0,12.0,60.0,178.0,33.0,1.0
383877,1.048173,-1.263053,2.414548,-0.006076,-1.0291,0.219571,0.0,12.0,60.0,178.0,33.0,1.0
383878,1.016948,-1.281684,2.414015,0.125001,-1.273195,0.446886,0.0,12.0,60.0,178.0,33.0,1.0
383879,1.028255,-1.297233,2.448086,-0.007838,-1.234909,0.304007,0.0,12.0,60.0,178.0,33.0,1.0
383880,1.119711,-1.299403,2.5519580000000004,-0.222364,-1.037358,0.088801,0.0,12.0,60.0,178.0,33.0,1.0
383881,1.160123,-1.282305,2.613165,-0.631695,-0.005168,-0.4799560000000001,0.0,12.0,60.0,178.0,33.0,1.0
383882,1.214083,-1.262877,2.660034,-0.204312,0.952551,0.689449,0.0,12.0,60.0,178.0,33.0,1.0
383883,1.344852,-1.259376,2.753938,-0.077335,1.96877,0.076623,0.0,12.0,60.0,178.0,33.0,1.0
383884,1.39918,-1.249581,2.744678,0.7495,1.6837919999999995,-0.069497,0.0,12.0,60.0,178.0,33.0,1.0
383885,1.37914,-1.232011,2.718388,0.357158,-0.232389,0.107266,0.0,12.0,60.0,178.0,33.0,1.0
383886,1.367148,-1.229054,2.703125,0.269381,-0.361102,0.172986,0.0,12.0,60.0,178.0,33.0,1.0
383887,1.352974,-1.237264,2.707521,0.273772,-0.018332,0.212181,0.0,12.0,60.0,178.0,33.0,1.0
383888,1.3713799999999998,-1.246973,2.752635,0.412299,0.378406,0.548979,0.0,12.0,60.0,178.0,33.0,1.0
383889,1.431964,-1.236285,2.781516,0.398368,-0.121725,0.021781,0.0,12.0,60.0,178.0,33.0,1.0
383890,1.419023,-1.183955,2.703973,0.23459,-0.140812,-0.672515,0.0,12.0,60.0,178.0,33.0,1.0
383891,1.347197,-1.103691,2.607451,0.092633,0.922982,-0.250217,0.0,12.0,60.0,178.0,33.0,1.0
383892,1.2565309999999998,-1.025921,2.529548,-0.075001,1.410571,-0.010085,0.0,12.0,60.0,178.0,33.0,1.0
383893,1.188418,-0.963835,2.484903,-0.186101,1.201656,0.157173,0.0,12.0,60.0,178.0,33.0,1.0
383894,1.159868,-0.922956,2.468706,-0.389606,0.15807100000000002,0.671846,0.0,12.0,60.0,178.0,33.0,1.0
383895,1.16634,-0.900774,2.46183,-0.962132,0.204244,-0.070215,0.0,12.0,60.0,178.0,33.0,1.0
383896,1.188972,-0.902313,2.466242,-0.8193159999999999,0.6807529999999999,-0.156111,0.0,12.0,60.0,178.0,33.0,1.0
383897,1.213849,-0.91908,2.4785310000000003,0.214947,0.486222,-0.101447,0.0,12.0,60.0,178.0,33.0,1.0
383898,1.217453,-0.951679,2.482489,0.069674,0.08052100000000001,-0.038662,0.0,12.0,60.0,178.0,33.0,1.0
383899,1.206304,-0.996118,2.483372,-0.100687,-0.190853,-0.054525,0.0,12.0,60.0,178.0,33.0,1.0
383900,1.182173,-1.051845,2.482262,-0.208632,-0.299675,-0.07069199999999999,0.0,12.0,60.0,178.0,33.0,1.0
383901,1.1585370000000002,-1.114359,2.479479,-0.30087,-0.353775,0.090448,0.0,12.0,60.0,178.0,33.0,1.0
383902,1.139089,-1.169759,2.483594,-0.27568000000000004,-0.419619,0.137231,0.0,12.0,60.0,178.0,33.0,1.0
383903,1.11658,-1.2146860000000002,2.495776,-0.147337,-0.842182,0.247887,0.0,12.0,60.0,178.0,33.0,1.0
383904,1.0865209999999998,-1.254074,2.502537,-0.171295,-0.979497,0.154674,0.0,12.0,60.0,178.0,33.0,1.0
383905,1.04337,-1.287575,2.497439,-0.143232,-1.042039,0.07109700000000001,0.0,12.0,60.0,178.0,33.0,1.0
383906,0.993657,-1.314478,2.476902,-0.041597,-1.11885,0.069888,0.0,12.0,60.0,178.0,33.0,1.0
383907,0.943452,-1.333481,2.451029,0.196442,-1.238269,0.266168,0.0,12.0,60.0,178.0,33.0,1.0
383908,0.977367,-1.344714,2.49664,0.188439,-1.264973,0.365826,0.0,12.0,60.0,178.0,33.0,1.0
383909,1.09243,-1.340597,2.605464,-0.269231,-0.724247,0.226734,0.0,12.0,60.0,178.0,33.0,1.0
383910,1.159894,-1.323333,2.682253,-0.257597,0.444312,0.070309,0.0,12.0,60.0,178.0,33.0,1.0
383911,1.1972120000000002,-1.3012780000000002,2.716776,-0.280944,0.44995,0.069645,0.0,12.0,60.0,178.0,33.0,1.0
383912,1.202141,-1.278369,2.676845,0.07137,2.0471220000000003,0.22058000000000005,0.0,12.0,60.0,178.0,33.0,1.0
383913,1.226037,-1.279598,2.632719,0.380009,0.631943,-0.26401,0.0,12.0,60.0,178.0,33.0,1.0
383914,1.210274,-1.286836,2.61227,0.628576,0.134178,-0.29472800000000005,0.0,12.0,60.0,178.0,33.0,1.0
383915,1.181534,-1.2862360000000002,2.595844,1.52247,-0.026069,-0.011642,0.0,12.0,60.0,178.0,33.0,1.0
383916,1.179784,-1.267203,2.579887,0.858294,0.122224,-0.060885,0.0,12.0,60.0,178.0,33.0,1.0
383917,1.161324,-1.21726,2.536516,0.817084,0.13833800000000002,-0.036985,0.0,12.0,60.0,178.0,33.0,1.0
383918,1.118736,-1.141078,2.469967,-0.030934,0.61411,-0.341515,0.0,12.0,60.0,178.0,33.0,1.0
383919,1.042798,-1.066822,2.408474,-0.179837,0.813783,0.186161,0.0,12.0,60.0,178.0,33.0,1.0
383920,0.983531,-1.008945,2.375079,-0.206188,0.843183,0.238061,0.0,12.0,60.0,178.0,33.0,1.0
383921,0.988357,-0.969105,2.388992,0.004907,0.623527,0.135543,0.0,12.0,60.0,178.0,33.0,1.0
383922,1.000659,-0.933318,2.409162,0.153666,0.380635,-0.011707,0.0,12.0,60.0,178.0,33.0,1.0
383923,1.010698,-0.907524,2.436605,0.110431,0.419874,-0.0553,0.0,12.0,60.0,178.0,33.0,1.0
383924,1.006556,-0.901753,2.450673,-0.109359,0.121941,0.052128,0.0,12.0,60.0,178.0,33.0,1.0
383925,0.987802,-0.912836,2.448849,-0.250833,-0.33108200000000004,0.178643,0.0,12.0,60.0,178.0,33.0,1.0
383926,0.950122,-0.932106,2.433048,-0.186063,-0.439184,0.25114000000000003,0.0,12.0,60.0,178.0,33.0,1.0
383927,0.898507,-0.95772,2.410572,-0.232985,-0.5201979999999999,0.165633,0.0,12.0,60.0,178.0,33.0,1.0
383928,0.8389260000000001,-0.989482,2.391203,-0.112956,-0.425066,0.175229,0.0,12.0,60.0,178.0,33.0,1.0
383929,0.779222,-1.025732,2.379721,-0.07257899999999999,-0.412635,0.207127,0.0,12.0,60.0,178.0,33.0,1.0
383930,0.717329,-1.063997,2.3677650000000003,-0.070829,-0.23473,0.122614,0.0,12.0,60.0,178.0,33.0,1.0
383931,0.662564,-1.097085,2.35398,0.230931,-0.207951,-0.084227,0.0,12.0,60.0,178.0,33.0,1.0
383932,0.629371,-1.113873,2.348865,0.413505,-0.121062,-0.159202,0.0,12.0,60.0,178.0,33.0,1.0
383933,0.5908439999999999,-1.118457,2.34682,0.371518,0.018404,-0.191855,0.0,12.0,60.0,178.0,33.0,1.0
383934,0.545637,-1.114625,2.350103,0.381331,-0.152766,-0.148097,0.0,12.0,60.0,178.0,33.0,1.0
383935,0.510861,-1.107887,2.357904,0.33567,-0.278424,-0.11782,0.0,12.0,60.0,178.0,33.0,1.0
383936,0.496364,-1.104167,2.371945,0.046651,-0.404961,-0.195161,0.0,12.0,60.0,178.0,33.0,1.0
383937,0.491416,-1.102656,2.3904970000000003,-0.128158,-0.32968000000000003,-0.186767,0.0,12.0,60.0,178.0,33.0,1.0
383938,0.487879,-1.094729,2.404834,-0.315987,-0.250208,-0.207414,0.0,12.0,60.0,178.0,33.0,1.0
383939,0.4935100000000001,-1.068841,2.41408,-0.231724,0.989445,0.8381379999999999,0.0,12.0,60.0,178.0,33.0,1.0
383940,0.5397770000000001,-1.05942,2.43413,0.03894,0.909605,2.029751,0.0,12.0,60.0,178.0,33.0,1.0
383941,0.587611,-1.057133,2.459563,-0.7480640000000001,1.601645,0.908445,0.0,12.0,60.0,178.0,33.0,1.0
383942,0.5746020000000001,-1.05694,2.487321,0.077287,0.537195,0.203844,0.0,12.0,60.0,178.0,33.0,1.0
383943,0.600471,-1.080209,2.489012,0.121746,0.67196,0.439642,0.0,12.0,60.0,178.0,33.0,1.0
383944,0.59521,-1.111551,2.480148,0.14844100000000002,0.93186,0.8050109999999999,0.0,12.0,60.0,178.0,33.0,1.0
383945,0.616368,-1.164816,2.505569,0.117108,0.601426,0.291664,0.0,12.0,60.0,178.0,33.0,1.0
383946,0.66279,-1.216798,2.545394,0.092017,0.4936,-0.575702,0.0,12.0,60.0,178.0,33.0,1.0
383947,0.634416,-1.246812,2.526457,0.154718,0.537133,-0.175765,0.0,12.0,60.0,178.0,33.0,1.0
383948,0.601698,-1.280041,2.513548,0.097194,0.267787,0.17308900000000002,0.0,12.0,60.0,178.0,33.0,1.0
383949,0.585688,-1.315658,2.504655,0.023462,0.044548,0.107157,0.0,12.0,60.0,178.0,33.0,1.0
383950,0.570408,-1.351639,2.488034,-0.153642,-0.29943000000000003,0.112999,0.0,12.0,60.0,178.0,33.0,1.0
383951,0.53671,-1.389825,2.450095,-0.130976,-0.5053979999999999,0.170473,0.0,12.0,60.0,178.0,33.0,1.0
383952,0.463324,-1.431785,2.364425,0.010058,-0.5802430000000001,0.034809,0.0,12.0,60.0,178.0,33.0,1.0
383953,0.324145,-1.477174,2.220435,0.030035000000000006,-0.567947,-0.104072,0.0,12.0,60.0,178.0,33.0,1.0
383954,-0.011126,-1.513011,1.88614,0.010362,-0.51362,-0.295945,0.0,12.0,60.0,178.0,33.0,1.0
383955,-0.426994,-1.512742,1.45453,0.1964,-0.6242770000000001,-0.155658,0.0,12.0,60.0,178.0,33.0,1.0
383956,-0.431636,-1.495662,1.416454,0.309813,-0.508714,-0.010594,0.0,12.0,60.0,178.0,33.0,1.0
383957,-0.283961,-1.477783,1.529733,0.6694899999999999,-0.265972,0.209533,0.0,12.0,60.0,178.0,33.0,1.0
383958,-0.116496,-1.463249,1.683199,1.093284,-0.183172,0.249376,0.0,12.0,60.0,178.0,33.0,1.0
383959,0.046346,-1.450126,1.850106,1.19935,-0.301261,0.206314,0.0,12.0,60.0,178.0,33.0,1.0
383960,0.232302,-1.406777,2.049564,0.972972,-0.074805,0.248056,0.0,12.0,60.0,178.0,33.0,1.0
383961,0.420307,-1.327017,2.236121,0.770899,0.711727,0.397311,0.0,12.0,60.0,178.0,33.0,1.0
383962,0.5807180000000001,-1.236471,2.392385,0.5303859999999999,1.2129299999999998,0.285566,0.0,12.0,60.0,178.0,33.0,1.0
383963,0.6656529999999999,-1.173459,2.497216,-0.249352,1.48707,0.588162,0.0,12.0,60.0,178.0,33.0,1.0
383964,0.696736,-1.132702,2.55655,-0.445898,0.814485,0.44923,0.0,12.0,60.0,178.0,33.0,1.0
383965,0.716166,-1.10311,2.617096,-0.408693,0.663325,0.299766,0.0,12.0,60.0,178.0,33.0,1.0
383966,0.731578,-1.073612,2.670701,-0.144535,0.4666520000000001,0.252445,0.0,12.0,60.0,178.0,33.0,1.0
383967,0.75234,-1.052987,2.719673,0.231859,0.189093,0.673388,0.0,12.0,60.0,178.0,33.0,1.0
383968,0.791305,-1.034441,2.794675,0.473605,0.326764,0.641053,0.0,12.0,60.0,178.0,33.0,1.0
383969,0.8301569999999999,-1.003221,2.88828,0.283799,0.443841,0.355798,0.0,12.0,60.0,178.0,33.0,1.0
383970,0.8482569999999999,-0.976554,2.975039,-0.365171,-0.187276,0.5027189999999999,0.0,12.0,60.0,178.0,33.0,1.0
383971,0.848456,-0.962936,3.05738,-0.373671,-0.179576,0.510061,0.0,12.0,60.0,178.0,33.0,1.0
383972,0.8318,-0.961912,3.128722,-0.171259,-0.281056,0.510174,0.0,12.0,60.0,178.0,33.0,1.0
383973,0.809053,-0.970243,-3.088329,-0.20653,-0.20338,0.555441,0.0,12.0,60.0,178.0,33.0,1.0
383974,0.782025,-0.983621,-3.028546,-0.188028,-0.210866,0.558484,0.0,12.0,60.0,178.0,33.0,1.0
383975,0.752419,-1.000171,-2.97815,-0.291906,-0.15046199999999998,0.570116,0.0,12.0,60.0,178.0,33.0,1.0
383976,0.721767,-1.0190629999999998,-2.937956,-0.297949,-0.087747,0.566293,0.0,12.0,60.0,178.0,33.0,1.0
383977,0.68458,-1.038613,-2.906941,-0.253891,-0.085746,0.539569,0.0,12.0,60.0,178.0,33.0,1.0
383978,0.643416,-1.060278,-2.877157,-0.024542,-0.040399,0.382335,0.0,12.0,60.0,178.0,33.0,1.0
383979,0.6049,-1.085991,-2.84347,0.021445,-0.049347,0.370522,0.0,12.0,60.0,178.0,33.0,1.0
383980,0.57055,-1.111648,-2.813277,0.104847,-0.09307,0.238141,0.0,12.0,60.0,178.0,33.0,1.0
383981,0.5396350000000001,-1.129678,-2.795355,0.453811,-0.13146300000000002,0.3812,0.0,12.0,60.0,178.0,33.0,1.0
383982,0.532397,-1.141183,-2.774735,0.6065699999999999,-0.03814,0.673732,0.0,12.0,60.0,178.0,33.0,1.0
383983,0.563049,-1.1534799999999998,-2.73401,0.637788,0.071202,0.58073,0.0,12.0,60.0,178.0,33.0,1.0
383984,0.6063729999999999,-1.165753,-2.673803,0.726711,0.016156,0.024334,0.0,12.0,60.0,178.0,33.0,1.0
383985,0.637648,-1.174378,-2.611104,0.875659,-0.200801,0.232833,0.0,12.0,60.0,178.0,33.0,1.0
383986,0.669744,-1.18402,-2.5468330000000003,0.756837,-0.186918,0.300204,0.0,12.0,60.0,178.0,33.0,1.0
383987,0.704068,-1.207557,-2.47539,-0.402723,2.120928,0.22371,0.0,12.0,60.0,178.0,33.0,1.0
383988,0.708542,-1.228512,-2.432055,-0.453178,1.1404379999999998,-0.017075999999999997,0.0,12.0,60.0,178.0,33.0,1.0
383989,0.702909,-1.224482,-2.386226,-0.249937,0.06640399999999999,0.080199,0.0,12.0,60.0,178.0,33.0,1.0
383990,0.662265,-1.213932,-2.398648,-0.736733,-0.495835,0.380419,0.0,12.0,60.0,178.0,33.0,1.0
383991,0.586843,-1.204217,-2.472084,-0.575102,-0.50616,0.8879450000000001,0.0,12.0,60.0,178.0,33.0,1.0
383992,0.491604,-1.208504,-2.575796,-0.441544,-0.335188,1.0881379999999998,0.0,12.0,60.0,178.0,33.0,1.0
383993,0.393925,-1.233221,-2.658257,0.095508,0.622495,0.818738,0.0,12.0,60.0,178.0,33.0,1.0
383994,0.276117,-1.269616,-2.722846,0.427979,0.4785,0.430394,0.0,12.0,60.0,178.0,33.0,1.0
383995,0.161403,-1.33043,-2.780161,0.58734,0.236665,0.315477,0.0,12.0,60.0,178.0,33.0,1.0
383996,0.08039400000000001,-1.390567,-2.832347,0.745417,-0.303077,-0.678362,0.0,12.0,60.0,178.0,33.0,1.0
383997,0.028415,-1.404929,-2.842731,0.23591,-0.174554,-0.105176,0.0,12.0,60.0,178.0,33.0,1.0
383998,-0.029257,-1.409308,-2.834808,0.1534,-0.16505899999999998,0.286406,0.0,12.0,60.0,178.0,33.0,1.0
383999,-0.083133,-1.425282,-2.82106,-0.152802,-0.204702,0.613034,0.0,12.0,60.0,178.0,33.0,1.0
384000,-0.14433800000000002,-1.456874,-2.830328,-0.378459,-0.062106,0.200635,0.0,12.0,60.0,178.0,33.0,1.0
384001,-0.392334,-1.486088,-3.0331080000000004,-0.10533,0.037216,-0.184718,0.0,12.0,60.0,178.0,33.0,1.0
384002,-0.842973,-1.494196,2.845176,0.142921,-0.035978,0.063058,0.0,12.0,60.0,178.0,33.0,1.0
384003,-1.266655,-1.485531,2.449545,0.227257,0.003114,0.093287,0.0,12.0,60.0,178.0,33.0,1.0
384004,-1.561547,-1.467281,2.1729,0.238089,0.024564,0.083826,0.0,12.0,60.0,178.0,33.0,1.0
384005,-1.786748,-1.445883,1.970695,0.18284,-0.133123,-0.002948,0.0,12.0,60.0,178.0,33.0,1.0
384006,-1.951388,-1.420828,1.835476,0.345086,-0.142966,-0.020534,0.0,12.0,60.0,178.0,33.0,1.0
384007,-2.030393,-1.394583,1.779161,0.363485,-0.138705,-0.042795,0.0,12.0,60.0,178.0,33.0,1.0
384008,-2.058822,-1.377518,1.761091,0.696037,0.09293,-0.020275,0.0,12.0,60.0,178.0,33.0,1.0
384009,-2.062348,-1.375053,1.759807,0.877172,0.002892,0.077961,0.0,12.0,60.0,178.0,33.0,1.0
384010,-2.062301,-1.381051,1.767555,0.8719870000000001,0.001743,0.080747,0.0,12.0,60.0,178.0,33.0,1.0
384011,-2.0633630000000003,-1.396585,1.78398,0.850066,0.085006,0.257856,0.0,12.0,60.0,178.0,33.0,1.0
384012,-2.070259,-1.430049,1.797555,0.649385,0.182847,0.1641,0.0,12.0,60.0,178.0,33.0,1.0
384013,-2.143407,-1.47776,1.736034,0.45667,0.17638299999999998,0.098699,0.0,12.0,60.0,178.0,33.0,1.0
384014,-2.3756470000000003,-1.535688,1.512222,0.27370500000000003,0.506872,-0.261989,0.0,12.0,60.0,178.0,33.0,1.0
384015,1.29381,-1.537234,-1.0906,0.172065,1.0175,-0.060658,0.0,12.0,60.0,178.0,33.0,1.0
384016,1.08086,-1.480346,-1.298944,-0.027641,1.102766,0.14258800000000002,0.0,12.0,60.0,178.0,33.0,1.0
384017,1.013425,-1.441134,-1.350277,-0.293487,0.5736100000000001,0.430549,0.0,12.0,60.0,178.0,33.0,1.0
384018,1.004537,-1.410845,-1.33387,-0.178049,0.161325,0.088685,0.0,12.0,60.0,178.0,33.0,1.0
384019,1.016529,-1.3818979999999998,-1.3139299999999998,-0.11894,0.103741,-0.17904,0.0,12.0,60.0,178.0,33.0,1.0
384020,1.034175,-1.349834,-1.291683,0.142476,-0.05459,0.108392,0.0,12.0,60.0,178.0,33.0,1.0
384021,1.100917,-1.313761,-1.218283,0.41092,-0.173172,0.08036900000000001,0.0,12.0,60.0,178.0,33.0,1.0
384022,1.172483,-1.268371,-1.134068,0.266687,-0.101162,0.0044020000000000005,0.0,12.0,60.0,178.0,33.0,1.0
384023,1.203531,-1.227989,-1.07136,0.014585,-0.16972,0.129281,0.0,12.0,60.0,178.0,33.0,1.0
384024,1.201516,-1.193709,-1.025234,-0.206192,-0.376183,0.218397,0.0,12.0,60.0,178.0,33.0,1.0
384025,1.179859,-1.166089,-0.991922,-0.28678000000000003,-0.393949,0.236509,0.0,12.0,60.0,178.0,33.0,1.0
384026,1.150563,-1.1474719999999998,-0.965003,-0.363174,-0.371888,0.207018,0.0,12.0,60.0,178.0,33.0,1.0
384027,1.113641,-1.139331,-0.946122,-0.355293,-0.295454,0.234135,0.0,12.0,60.0,178.0,33.0,1.0
384028,1.076234,-1.141411,-0.933196,-0.334088,-0.272015,0.235531,0.0,12.0,60.0,178.0,33.0,1.0
384029,1.050816,-1.153142,-0.918423,-0.177806,-0.20573,0.12507100000000002,0.0,12.0,60.0,178.0,33.0,1.0
384030,1.043982,-1.175898,-0.897517,-0.105312,-0.265046,0.054721000000000006,0.0,12.0,60.0,178.0,33.0,1.0
384031,1.058359,-1.210515,-0.8677799999999999,-0.056668,-0.310569,-0.030706,0.0,12.0,60.0,178.0,33.0,1.0
384032,1.077709,-1.253414,-0.841025,0.224419,-0.12367,-0.23952,0.0,12.0,60.0,178.0,33.0,1.0
384033,1.0673290000000002,-1.2911860000000002,-0.846248,0.560887,0.108036,-0.312258,0.0,12.0,60.0,178.0,33.0,1.0
384034,1.01692,-1.295834,-0.873315,1.134724,0.762464,-0.5590689999999999,0.0,12.0,60.0,178.0,33.0,1.0
384035,1.006459,-1.270915,-0.855759,0.590115,-0.268726,0.085148,0.0,12.0,60.0,178.0,33.0,1.0
384036,1.053314,-1.241433,-0.7994060000000001,0.502181,-0.488317,0.17899600000000002,0.0,12.0,60.0,178.0,33.0,1.0
384037,1.129293,-1.22044,-0.7259369999999999,0.157524,-0.33660500000000004,0.271491,0.0,12.0,60.0,178.0,33.0,1.0
384038,1.221077,-1.220948,-0.643123,-0.57917,0.8781260000000001,0.037679,0.0,12.0,60.0,178.0,33.0,1.0
384039,1.294563,-1.237105,-0.5693819999999999,-0.907467,1.506012,-0.598295,0.0,12.0,60.0,178.0,33.0,1.0
384040,1.231594,-1.244981,-0.60449,-0.447982,0.5528689999999999,-0.7510760000000001,0.0,12.0,60.0,178.0,33.0,1.0
384041,1.176728,-1.253562,-0.651556,-0.11465,-0.35496300000000003,0.280683,0.0,12.0,60.0,178.0,33.0,1.0
384042,1.128382,-1.265485,-0.695562,-0.17593499999999998,-0.355426,0.337974,0.0,12.0,60.0,178.0,33.0,1.0
384043,1.0625440000000002,-1.28824,-0.748632,-0.132275,-0.097232,0.537289,0.0,12.0,60.0,178.0,33.0,1.0
384044,1.025334,-1.314694,-0.755782,-0.001866,0.208137,0.450583,0.0,12.0,60.0,178.0,33.0,1.0
384045,1.046303,-1.338354,-0.690024,0.022608,-0.001961,0.31559,0.0,12.0,60.0,178.0,33.0,1.0
384046,1.172191,-1.365568,-0.542848,0.245383,-0.120845,0.035146,0.0,12.0,60.0,178.0,33.0,1.0
384047,1.3618940000000002,-1.38542,-0.353427,0.241051,-0.106143,-0.5214260000000001,0.0,12.0,60.0,178.0,33.0,1.0
384048,1.450709,-1.391593,-0.25503000000000003,-0.04387,-0.044151,-0.211452,0.0,12.0,60.0,178.0,33.0,1.0
384049,1.500838,-1.398674,-0.187011,-0.059491,-0.097269,-0.028419,0.0,12.0,60.0,178.0,33.0,1.0
384050,1.586035,-1.405842,-0.093918,-0.023694,-0.369833,-0.105667,0.0,12.0,60.0,178.0,33.0,1.0
384051,1.663145,-1.411094,-0.021856,0.020433,-0.400666,-0.184447,0.0,12.0,60.0,178.0,33.0,1.0
384052,1.682865,-1.414242,-0.009001,0.064386,-0.423729,-0.17266199999999998,0.0,12.0,60.0,178.0,33.0,1.0
384053,1.693356,-1.415606,-0.008366,0.172789,-0.479773,-0.213702,0.0,12.0,60.0,178.0,33.0,1.0
384054,1.706762,-1.413224,-0.008301000000000001,0.286217,-0.563112,-0.454204,0.0,12.0,60.0,178.0,33.0,1.0
384055,1.662061,-1.405198,-0.063919,0.173666,-0.495948,-0.350348,0.0,12.0,60.0,178.0,33.0,1.0
384056,1.61466,-1.396039,-0.105718,-0.06464,-0.47923,-0.117181,0.0,12.0,60.0,178.0,33.0,1.0
384057,1.597694,-1.391766,-0.11446,0.00965,-0.484704,0.12041,0.0,12.0,60.0,178.0,33.0,1.0
384058,1.62437,-1.392973,-0.094328,0.011027,-0.484918,0.115728,0.0,12.0,60.0,178.0,33.0,1.0
384059,1.6791029999999998,-1.3954540000000002,-0.045538,0.022709,0.024961,-0.060159,0.0,12.0,60.0,178.0,33.0,1.0
384060,1.697016,-1.396153,-0.031534,0.259599,0.071852,-0.09705,0.0,12.0,60.0,178.0,33.0,1.0
384061,1.642848,-1.3967,-0.099186,0.259205,0.071757,-0.087648,0.0,12.0,60.0,178.0,33.0,1.0
384062,1.642295,-1.395309,-0.111565,0.251286,-0.003868,0.337826,0.0,12.0,60.0,178.0,33.0,1.0
384063,1.624917,-1.381893,-0.133463,0.383396,0.26428,0.171087,0.0,12.0,60.0,178.0,33.0,1.0
384064,1.5316040000000002,-1.348427,-0.249655,0.350527,0.271113,0.189884,0.0,12.0,60.0,178.0,33.0,1.0
384065,1.411254,-1.284961,-0.399461,0.742589,1.328339,-0.622201,0.0,12.0,60.0,178.0,33.0,1.0
384066,1.333125,-1.213583,-0.471841,0.678214,1.545028,-0.509261,0.0,12.0,60.0,178.0,33.0,1.0
384067,1.281297,-1.164023,-0.502325,0.237435,1.297067,-0.07889,0.0,12.0,60.0,178.0,33.0,1.0
384068,1.243711,-1.132902,-0.50994,-0.367744,-0.315253,0.103883,0.0,12.0,60.0,178.0,33.0,1.0
384069,1.221946,-1.113487,-0.505213,-0.397657,-0.678845,0.345394,0.0,12.0,60.0,178.0,33.0,1.0
384070,1.22876,-1.110386,-0.490295,-0.530934,-0.8253440000000001,0.292592,0.0,12.0,60.0,178.0,33.0,1.0
384071,1.264251,-1.120661,-0.467598,-0.473449,-0.548154,0.014089,0.0,12.0,60.0,178.0,33.0,1.0
384072,1.305563,-1.142408,-0.436367,-0.091511,-0.047042,-0.199171,0.0,12.0,60.0,178.0,33.0,1.0
384073,1.323885,-1.178939,-0.409105,0.031225,-0.021781,-0.205688,0.0,12.0,60.0,178.0,33.0,1.0
384074,1.325081,-1.233416,-0.385876,0.070145,0.014474,-0.131855,0.0,12.0,60.0,178.0,33.0,1.0
384075,1.315524,-1.294893,-0.369048,0.073587,-0.07950399999999999,-0.033558,0.0,12.0,60.0,178.0,33.0,1.0
384076,1.312836,-1.3479219999999998,-0.34347300000000003,0.118561,-0.088563,0.015,0.0,12.0,60.0,178.0,33.0,1.0
384077,1.38132,-1.377999,-0.243583,0.084783,-0.028744,-0.084767,0.0,12.0,60.0,178.0,33.0,1.0
384078,1.498512,-1.38906,-0.10421099999999997,-0.378907,-0.171932,-0.404674,0.0,12.0,60.0,178.0,33.0,1.0
384079,1.586677,-1.395633,-0.011624,-0.434425,-0.280246,-0.440099,0.0,12.0,60.0,178.0,33.0,1.0
384080,1.605261,-1.40636,0.005864,0.239281,-1.102066,0.004935,0.0,12.0,60.0,178.0,33.0,1.0
384081,1.589834,-1.42005,0.00214,0.334962,-1.285046,0.230586,0.0,12.0,60.0,178.0,33.0,1.0
384082,1.554701,-1.431625,-0.00247,0.395058,-1.503774,0.335469,0.0,12.0,60.0,178.0,33.0,1.0
384083,1.6501599999999998,-1.429079,0.121359,0.161104,-1.040482,0.242635,0.0,12.0,60.0,178.0,33.0,1.0
384084,1.7840060000000002,-1.404934,0.272704,0.044555,0.054785,-0.143846,0.0,12.0,60.0,178.0,33.0,1.0
384085,1.8448,-1.371423,0.33714,0.098149,1.59061,0.08366900000000001,0.0,12.0,60.0,178.0,33.0,1.0
384086,1.841118,-1.352775,0.295954,0.16030999999999998,1.521048,0.192933,0.0,12.0,60.0,178.0,33.0,1.0
384087,1.862884,-1.345125,0.263019,0.6395460000000001,0.360607,-0.675006,0.0,12.0,60.0,178.0,33.0,1.0
384088,1.808241,-1.344634,0.182652,0.564242,0.5682520000000001,-0.022985,0.0,12.0,60.0,178.0,33.0,1.0
384089,1.727987,-1.339327,0.091556,0.203254,-0.447558,0.022823,0.0,12.0,60.0,178.0,33.0,1.0
384090,1.628226,-1.325585,-0.035851999999999995,0.031862,0.014411000000000004,-0.122179,0.0,12.0,60.0,178.0,33.0,1.0
384091,1.525398,-1.314062,-0.169802,-0.022241,0.367996,0.098284,0.0,12.0,60.0,178.0,33.0,1.0
384092,1.447999,-1.296372,-0.281967,0.418996,0.198414,0.104053,0.0,12.0,60.0,178.0,33.0,1.0
384093,1.378176,-1.247585,-0.397545,0.7315659999999999,0.352317,-0.187722,0.0,12.0,60.0,178.0,33.0,1.0
384094,1.314015,-1.170979,-0.475808,0.7206319999999999,0.719234,-0.448311,0.0,12.0,60.0,178.0,33.0,1.0
384095,1.254161,-1.110534,-0.518192,-0.362857,1.394057,0.005841,0.0,12.0,60.0,178.0,33.0,1.0
384096,1.221632,-1.077884,-0.537108,-0.5327810000000001,0.20449,0.07434199999999999,0.0,12.0,60.0,178.0,33.0,1.0
384097,1.221126,-1.0709540000000002,-0.540926,-0.5647310000000001,-0.134311,0.162089,0.0,12.0,60.0,178.0,33.0,1.0
384098,1.256407,-1.08902,-0.5331140000000001,-0.146978,0.174252,-0.032331,0.0,12.0,60.0,178.0,33.0,1.0
384099,1.312612,-1.125653,-0.5045930000000001,0.041658,0.171151,-0.181155,0.0,12.0,60.0,178.0,33.0,1.0
384100,1.36629,-1.17593,-0.459204,0.134941,0.013826,-0.298512,0.0,12.0,60.0,178.0,33.0,1.0
384101,1.413555,-1.237841,-0.401167,0.17516600000000002,-0.164365,-0.283966,0.0,12.0,60.0,178.0,33.0,1.0
384102,1.463026,-1.305302,-0.32801,0.222387,-0.308377,-0.24645300000000006,0.0,12.0,60.0,178.0,33.0,1.0
384103,1.52835,-1.36041,-0.226545,0.249706,-0.432113,-0.188298,0.0,12.0,60.0,178.0,33.0,1.0
384104,1.615928,-1.391023,-0.096629,-0.074071,-0.930784,-0.025506,0.0,12.0,60.0,178.0,33.0,1.0
384105,1.7021080000000002,-1.409557,0.027072,-0.172294,-1.065368,-0.251073,0.0,12.0,60.0,178.0,33.0,1.0
384106,1.755882,-1.428173,0.129484,-0.152843,-1.068185,-0.256208,0.0,12.0,60.0,178.0,33.0,1.0
384107,1.811763,-1.444687,0.23619,0.248294,-1.171304,-0.000204,0.0,12.0,60.0,178.0,33.0,1.0
384108,1.88356,-1.453377,0.341963,0.279235,-1.179516,-0.141149,0.0,12.0,60.0,178.0,33.0,1.0
384109,1.874639,-1.453631,0.355212,0.27916,-1.179545,-0.140077,0.0,12.0,60.0,178.0,33.0,1.0
384110,1.834278,-1.440907,0.32443,-0.109461,-0.191451,0.112229,0.0,12.0,60.0,178.0,33.0,1.0
384111,1.771059,-1.417816,0.267227,-0.174371,0.5599729999999999,0.340056,0.0,12.0,60.0,178.0,33.0,1.0
384112,1.790988,-1.391254,0.28229,-0.046458,0.964988,0.076741,0.0,12.0,60.0,178.0,33.0,1.0
384113,1.793519,-1.372615,0.24428200000000005,0.270592,1.747464,-0.421092,0.0,12.0,60.0,178.0,33.0,1.0
384114,1.7863490000000002,-1.358195,0.17286300000000002,0.516137,0.020638,0.25353600000000004,0.0,12.0,60.0,178.0,33.0,1.0
384115,1.802274,-1.341817,0.154039,0.846266,-0.073584,-0.3718,0.0,12.0,60.0,178.0,33.0,1.0
384116,1.754028,-1.328798,0.07499,0.73531,0.149576,0.216731,0.0,12.0,60.0,178.0,33.0,1.0
384117,1.701931,-1.318894,0.009363,0.532931,0.160497,0.021992,0.0,12.0,60.0,178.0,33.0,1.0
384118,1.61758,-1.297696,-0.089265,0.534722,0.175046,-0.096505,0.0,12.0,60.0,178.0,33.0,1.0
384119,1.480591,-1.242371,-0.254417,0.43169,0.501325,-0.57324,0.0,12.0,60.0,178.0,33.0,1.0
384120,1.363783,-1.156199,-0.376791,0.582735,2.076192,-0.30121,0.0,12.0,60.0,178.0,33.0,1.0
384121,1.273581,-1.075706,-0.440489,0.522674,2.111544,-0.244866,0.0,12.0,60.0,178.0,33.0,1.0
384122,1.2071889999999998,-1.033842,-0.474443,-0.647945,-0.367907,0.41614,0.0,12.0,60.0,178.0,33.0,1.0
384123,1.177859,-1.021352,-0.495237,-1.176025,-0.480195,0.140658,0.0,12.0,60.0,178.0,33.0,1.0
384124,1.209516,-1.033893,-0.491561,-0.936397,0.046984,0.202839,0.0,12.0,60.0,178.0,33.0,1.0
384125,1.262409,-1.068033,-0.473944,0.027724,0.111691,-0.060401,0.0,12.0,60.0,178.0,33.0,1.0
384126,1.324459,-1.1178860000000002,-0.440105,0.190688,-0.015373,-0.1559,0.0,12.0,60.0,178.0,33.0,1.0
384127,1.388495,-1.178733,-0.385167,0.232907,-0.189549,-0.28501,0.0,12.0,60.0,178.0,33.0,1.0
384128,1.461192,-1.2389059999999998,-0.298541,0.136544,-0.269189,-0.404104,0.0,12.0,60.0,178.0,33.0,1.0
384129,1.501062,-1.289313,-0.229831,0.080091,-0.379254,-0.26726700000000003,0.0,12.0,60.0,178.0,33.0,1.0
384130,1.505299,-1.31915,-0.187519,0.023713,-0.451719,-0.18689,0.0,12.0,60.0,178.0,33.0,1.0
384131,1.533971,-1.343592,-0.117382,0.07358200000000001,-0.670635,-0.112084,0.0,12.0,60.0,178.0,33.0,1.0
384132,1.571476,-1.371513,-0.027362,0.348448,-0.8901969999999999,0.025409,0.0,12.0,60.0,178.0,33.0,1.0
384133,1.606323,-1.390657,0.046514,0.398706,-1.066323,0.167374,0.0,12.0,60.0,178.0,33.0,1.0
384134,1.643861,-1.391414,0.089935,-0.006893000000000001,-1.253562,-0.020774,0.0,12.0,60.0,178.0,33.0,1.0
384135,1.678345,-1.379441,0.134551,-0.281971,-1.075223,-0.057674,0.0,12.0,60.0,178.0,33.0,1.0
384136,1.711893,-1.363403,0.20717800000000006,-0.561455,-0.59733,0.261452,0.0,12.0,60.0,178.0,33.0,1.0
384137,1.7725669999999998,-1.345542,0.290592,0.066329,1.368662,-0.418718,0.0,12.0,60.0,178.0,33.0,1.0
384138,1.756881,-1.3287129999999998,0.241476,0.028964,1.63092,0.139688,0.0,12.0,60.0,178.0,33.0,1.0
384139,1.758918,-1.318467,0.181472,0.175314,0.578435,0.332785,0.0,12.0,60.0,178.0,33.0,1.0
384140,1.800313,-1.31291,0.187751,0.8917639999999999,-0.078717,-0.687366,0.0,12.0,60.0,178.0,33.0,1.0
384141,1.764552,-1.308525,0.124122,0.5711609999999999,-0.000868,0.08732000000000001,0.0,12.0,60.0,178.0,33.0,1.0
384142,1.73063,-1.308619,0.07948200000000001,0.416047,0.128899,0.026930000000000003,0.0,12.0,60.0,178.0,33.0,1.0
384143,1.701488,-1.3060120000000002,0.043105,0.406416,0.240555,-0.086775,0.0,12.0,60.0,178.0,33.0,1.0
384144,1.610354,-1.287783,-0.082206,0.391689,-0.085997,-0.592479,0.0,12.0,60.0,178.0,33.0,1.0
384145,1.475569,-1.236244,-0.25502600000000003,0.34337,0.101051,-0.564652,0.0,12.0,60.0,178.0,33.0,1.0
384146,1.375369,-1.166884,-0.374839,0.52518,0.8755440000000001,-0.407342,0.0,12.0,60.0,178.0,33.0,1.0
384147,1.276199,-1.095709,-0.453251,0.093153,1.028823,0.127469,0.0,12.0,60.0,178.0,33.0,1.0
384148,1.201406,-1.05457,-0.493882,-0.248094,-0.024885,0.8383510000000001,0.0,12.0,60.0,178.0,33.0,1.0
384149,1.17029,-1.039574,-0.529928,-1.18315,-0.038626,-0.067996,0.0,12.0,60.0,178.0,33.0,1.0
384150,1.200381,-1.056593,-0.530472,-0.322198,0.513425,-0.13209,0.0,12.0,60.0,178.0,33.0,1.0
384151,1.262992,-1.089742,-0.501644,-0.054468,0.314237,-0.14021199999999998,0.0,12.0,60.0,178.0,33.0,1.0
384152,1.353218,-1.133933,-0.449998,0.302387,-0.034623,-0.196207,0.0,12.0,60.0,178.0,33.0,1.0
384153,1.4525290000000002,-1.184582,-0.377368,0.041184,-0.606807,-0.358174,0.0,12.0,60.0,178.0,33.0,1.0
384154,1.543475,-1.235058,-0.286817,0.05837000000000001,-0.601592,-0.446094,0.0,12.0,60.0,178.0,33.0,1.0
384155,1.605186,-1.2833370000000002,-0.196545,0.178343,-0.5511149999999999,-0.5053529999999999,0.0,12.0,60.0,178.0,33.0,1.0
384156,1.650379,-1.321476,-0.102732,0.382326,-0.400858,-0.120169,0.0,12.0,60.0,178.0,33.0,1.0
384157,1.710705,-1.3429950000000002,0.008973,0.285416,-0.490797,-0.040187,0.0,12.0,60.0,178.0,33.0,1.0
384158,1.771363,-1.355011,0.104144,0.016265,-0.7650170000000001,-0.14538900000000002,0.0,12.0,60.0,178.0,33.0,1.0
384159,1.794075,-1.364213,0.153427,0.06979500000000001,-1.118081,0.165953,0.0,12.0,60.0,178.0,33.0,1.0
384160,1.78517,-1.3705120000000002,0.16589600000000002,0.065295,-1.237136,0.201916,0.0,12.0,60.0,178.0,33.0,1.0
384161,1.804356,-1.369504,0.208844,-0.090046,-1.1493950000000002,0.230085,0.0,12.0,60.0,178.0,33.0,1.0
384162,1.900616,-1.354723,0.329059,-0.249887,0.111556,-0.192078,0.0,12.0,60.0,178.0,33.0,1.0
384163,1.961779,-1.332317,0.408818,-0.265448,0.116604,-0.212665,0.0,12.0,60.0,178.0,33.0,1.0
384164,1.971916,-1.310708,0.411432,0.316049,1.162142,-0.052626,0.0,12.0,60.0,178.0,33.0,1.0
384165,1.978236,-1.293737,0.370785,0.331785,1.055409,-0.044567,0.0,12.0,60.0,178.0,33.0,1.0
384166,1.968477,-1.283309,0.329008,0.54201,1.189341,-0.516205,0.0,12.0,60.0,178.0,33.0,1.0
384167,1.953379,-1.28038,0.314761,0.164638,-0.108836,0.121791,0.0,12.0,60.0,178.0,33.0,1.0
384168,1.93418,-1.278126,0.29030100000000003,0.349887,-0.217456,0.114714,0.0,12.0,60.0,178.0,33.0,1.0
384169,1.936414,-1.2775450000000002,0.284992,0.257083,-0.007388,0.268851,0.0,12.0,60.0,178.0,33.0,1.0
384170,1.925015,-1.279179,0.261428,0.463568,0.4447930000000001,-0.407438,0.0,12.0,60.0,178.0,33.0,1.0
384171,1.853346,-1.273515,0.158614,0.5273680000000001,-0.067312,-0.448117,0.0,12.0,60.0,178.0,33.0,1.0
384172,1.713294,-1.247023,-0.009123,0.308389,0.032961000000000004,-0.318525,0.0,12.0,60.0,178.0,33.0,1.0
384173,1.554269,-1.20168,-0.189151,0.14566800000000002,0.719865,-0.386402,0.0,12.0,60.0,178.0,33.0,1.0
384174,1.415969,-1.145277,-0.327394,0.035532,0.936038,-0.263967,0.0,12.0,60.0,178.0,33.0,1.0
384175,1.33079,-1.095514,-0.405787,-0.174656,0.948712,-0.039164,0.0,12.0,60.0,178.0,33.0,1.0
384176,1.28807,-1.067801,-0.448695,-0.6985899999999999,-0.199476,9.3e-05,0.0,12.0,60.0,178.0,33.0,1.0
384177,1.275213,-1.058082,-0.472716,-0.537223,0.445646,-0.129798,0.0,12.0,60.0,178.0,33.0,1.0
384178,1.295442,-1.072825,-0.472234,-0.293183,0.500185,-0.058476,0.0,12.0,60.0,178.0,33.0,1.0
384179,1.316622,-1.101237,-0.459903,0.087888,-0.143873,-0.075724,0.0,12.0,60.0,178.0,33.0,1.0
384180,1.341045,-1.142375,-0.436677,-0.027126,-0.508836,-0.189039,0.0,12.0,60.0,178.0,33.0,1.0
384181,1.388874,-1.193889,-0.380163,-0.003927,-0.55879,-0.312627,0.0,12.0,60.0,178.0,33.0,1.0
384182,1.458574,-1.253298,-0.290372,0.098162,-0.184745,-0.345793,0.0,12.0,60.0,178.0,33.0,1.0
384183,1.525983,-1.307518,-0.185016,0.186097,-0.147946,-0.444855,0.0,12.0,60.0,178.0,33.0,1.0
384184,1.576873,-1.343371,-0.086653,0.151804,-0.330146,-0.394787,0.0,12.0,60.0,178.0,33.0,1.0
384185,1.60293,-1.37005,-0.029991000000000007,-0.020741,-0.6479020000000001,-0.166043,0.0,12.0,60.0,178.0,33.0,1.0
384186,1.559136,-1.395911,-0.02729,0.295867,-0.928136,-0.0065780000000000005,0.0,12.0,60.0,178.0,33.0,1.0
384187,1.471724,-1.415922,-0.060620000000000014,0.514018,-1.251718,0.241236,0.0,12.0,60.0,178.0,33.0,1.0
384188,1.457364,-1.417055,-0.068234,0.091461,-1.328766,0.052424,0.0,12.0,60.0,178.0,33.0,1.0
384189,1.521145,-1.3971870000000002,0.011671,-0.547828,-0.657255,0.5493279999999999,0.0,12.0,60.0,178.0,33.0,1.0
384190,1.652347,-1.370782,0.156691,-0.368085,-0.038718,0.50695,0.0,12.0,60.0,178.0,33.0,1.0
384191,1.73429,-1.344998,0.226901,0.405393,1.883645,-0.334883,0.0,12.0,60.0,178.0,33.0,1.0
384192,1.7254060000000002,-1.336691,0.167771,0.371877,0.8928020000000001,-0.2516,0.0,12.0,60.0,178.0,33.0,1.0
384193,1.666661,-1.340512,0.109866,0.5107010000000001,0.59224,-0.13033599999999998,0.0,12.0,60.0,178.0,33.0,1.0
384194,1.59634,-1.340215,0.046098,0.5095149999999999,0.000343,-0.073906,0.0,12.0,60.0,178.0,33.0,1.0
384195,1.541455,-1.340143,-0.020533000000000003,-0.09211,0.131036,0.169182,0.0,12.0,60.0,178.0,33.0,1.0
384196,1.557518,-1.346555,-0.01551,0.165493,0.203473,0.29438000000000003,0.0,12.0,60.0,178.0,33.0,1.0
384197,1.623894,-1.351373,0.033738,0.4842770000000001,0.079321,0.004074,0.0,12.0,60.0,178.0,33.0,1.0
384198,1.592044,-1.332526,-0.041843,0.715712,-0.392158,-0.65603,0.0,12.0,60.0,178.0,33.0,1.0
384199,1.469583,-1.277675,-0.202265,0.513731,0.252187,-0.320263,0.0,12.0,60.0,178.0,33.0,1.0
384200,1.343583,-1.207558,-0.334543,0.342745,0.911196,-0.520354,0.0,12.0,60.0,178.0,33.0,1.0
384201,1.2151299999999998,-1.14135,-0.429912,-0.21519,0.987059,0.277978,0.0,12.0,60.0,178.0,33.0,1.0
384202,1.15516,-1.095634,-0.460961,-0.442039,0.206988,0.347573,0.0,12.0,60.0,178.0,33.0,1.0
384203,1.128491,-1.071871,-0.47227,-0.553554,-0.33554,0.195506,0.0,12.0,60.0,178.0,33.0,1.0
384204,1.129285,-1.069242,-0.479145,-0.746598,-0.161107,0.095608,0.0,12.0,60.0,178.0,33.0,1.0
384205,1.165537,-1.086058,-0.468987,-0.358203,0.263732,-0.09174,0.0,12.0,60.0,178.0,33.0,1.0
384206,1.219863,-1.12131,-0.437671,0.315529,0.613474,-0.245286,0.0,12.0,60.0,178.0,33.0,1.0
384207,1.272061,-1.170109,-0.391499,0.212592,-0.236086,-0.311247,0.0,12.0,60.0,178.0,33.0,1.0
384208,1.310201,-1.226722,-0.338611,0.181324,-0.376798,-0.40694,0.0,12.0,60.0,178.0,33.0,1.0
384209,1.333761,-1.287708,-0.286709,0.116291,-0.297646,-0.424311,0.0,12.0,60.0,178.0,33.0,1.0
384210,1.374584,-1.3392620000000002,-0.209248,0.100788,-0.304614,-0.096854,0.0,12.0,60.0,178.0,33.0,1.0
384211,1.470363,-1.372247,-0.08680299999999999,-0.023606,-0.387946,0.056502,0.0,12.0,60.0,178.0,33.0,1.0
384212,1.547312,-1.3975879999999998,0.009144,-0.16808499999999998,-0.706137,-0.29556,0.0,12.0,60.0,178.0,33.0,1.0
384213,1.553489,-1.427285,0.047205,0.0807,-0.986485,-0.17669400000000002,0.0,12.0,60.0,178.0,33.0,1.0
384214,1.483994,-1.457197,0.008634000000000001,0.222275,-1.19996,-0.029819,0.0,12.0,60.0,178.0,33.0,1.0
384215,1.496092,-1.475671,0.036648,0.179398,-1.080715,0.356313,0.0,12.0,60.0,178.0,33.0,1.0
384216,1.721905,-1.4800719999999998,0.276254,-0.199176,-0.6088020000000001,0.309521,0.0,12.0,60.0,178.0,33.0,1.0
384217,1.98577,-1.470687,0.563629,0.190664,0.461229,0.240887,0.0,12.0,60.0,178.0,33.0,1.0
384218,2.204227,-1.447978,0.780346,0.410707,1.421977,-1.111246,0.0,12.0,60.0,178.0,33.0,1.0
384219,2.026478,-1.445041,0.592432,0.474279,1.351464,0.056394000000000014,0.0,12.0,60.0,178.0,33.0,1.0
384220,1.920001,-1.451728,0.475258,0.6296189999999999,1.184159,0.271002,0.0,12.0,60.0,178.0,33.0,1.0
384221,1.747514,-1.463904,0.319039,0.979308,-0.360351,-0.48176,0.0,12.0,60.0,178.0,33.0,1.0
384222,1.520016,-1.476265,0.092943,0.520926,0.13185999999999998,0.20271,0.0,12.0,60.0,178.0,33.0,1.0
384223,1.4228299999999998,-1.490478,0.004084,0.620598,0.367741,0.111291,0.0,12.0,60.0,178.0,33.0,1.0
384224,1.62064,-1.508029,0.224402,0.723526,0.090333,0.147148,0.0,12.0,60.0,178.0,33.0,1.0
384225,2.179464,-1.513025,0.815052,0.529736,-0.356959,0.14531,0.0,12.0,60.0,178.0,33.0,1.0
384226,2.482313,-1.500432,1.139561,0.5314180000000001,-0.472455,0.093679,0.0,12.0,60.0,178.0,33.0,1.0
384227,1.907861,-1.498635,0.552529,0.6188,-0.141273,-0.6457970000000001,0.0,12.0,60.0,178.0,33.0,1.0
384228,1.313442,-1.440042,-0.045848,0.174214,0.46868,-0.28729,0.0,12.0,60.0,178.0,33.0,1.0
384229,1.190662,-1.360001,-0.159875,-0.0025670000000000003,0.760523,-0.096902,0.0,12.0,60.0,178.0,33.0,1.0
384230,1.150021,-1.292432,-0.187748,-0.103414,1.340816,0.536229,0.0,12.0,60.0,178.0,33.0,1.0
384231,1.16603,-1.254129,-0.14818900000000002,-0.050492,1.782418,0.5493680000000001,0.0,12.0,60.0,178.0,33.0,1.0
384232,1.274242,-1.237252,-0.029702,0.126502,1.453641,0.403866,0.0,12.0,60.0,178.0,33.0,1.0
384233,1.370856,-1.191625,0.06523999999999999,1.05577,0.137755,-0.723209,0.0,12.0,60.0,178.0,33.0,1.0
384234,1.371713,-1.139067,0.13312100000000002,-0.32766100000000004,0.21272800000000006,0.14960199999999998,0.0,12.0,60.0,178.0,33.0,1.0
384235,1.341618,-1.095588,0.189182,-0.363047,0.231774,0.170785,0.0,12.0,60.0,178.0,33.0,1.0
384236,1.30894,-1.067663,0.245566,-0.429259,-0.272194,0.149752,0.0,12.0,60.0,178.0,33.0,1.0
384237,1.27121,-1.0570389999999998,0.294839,-0.58778,-0.505166,0.30675,0.0,12.0,60.0,178.0,33.0,1.0
384238,1.233364,-1.062322,0.334727,-0.577608,-0.5077510000000001,0.322887,0.0,12.0,60.0,178.0,33.0,1.0
384239,1.196969,-1.081915,0.365417,-0.509354,-0.466904,0.202139,0.0,12.0,60.0,178.0,33.0,1.0
384240,1.162457,-1.110552,0.38889,-0.4227,-0.487115,0.145866,0.0,12.0,60.0,178.0,33.0,1.0
384241,1.147155,-1.149274,0.420395,-0.278046,-0.48458,0.195412,0.0,12.0,60.0,178.0,33.0,1.0
384242,1.17718,-1.198987,0.482955,0.010256,-0.444626,0.076695,0.0,12.0,60.0,178.0,33.0,1.0
384243,1.218159,-1.244848,0.546633,0.108964,-0.307485,-0.237466,0.0,12.0,60.0,178.0,33.0,1.0
384244,1.168459,-1.260914,0.545044,0.21003400000000005,-0.040733,-0.6491680000000001,0.0,12.0,60.0,178.0,33.0,1.0
384245,1.1013700000000002,-1.233109,0.521575,0.822784,0.8132510000000001,-0.260166,0.0,12.0,60.0,178.0,33.0,1.0
384246,1.120764,-1.188375,0.536115,0.708583,-0.157698,0.319335,0.0,12.0,60.0,178.0,33.0,1.0
384247,1.192514,-1.152386,0.574468,0.456807,-0.538644,0.695054,0.0,12.0,60.0,178.0,33.0,1.0
384248,1.278517,-1.13657,0.635977,-1.084985,2.071686,-0.090604,0.0,12.0,60.0,178.0,33.0,1.0
384249,1.262449,-1.13923,0.636957,-0.317227,1.315581,-0.787684,0.0,12.0,60.0,178.0,33.0,1.0
384250,1.230787,-1.140005,0.619622,0.4218770000000001,-0.251623,0.8126770000000001,0.0,12.0,60.0,178.0,33.0,1.0
384251,1.218652,-1.149119,0.6159020000000001,-0.034633,-0.715962,0.665732,0.0,12.0,60.0,178.0,33.0,1.0
384252,1.225767,-1.169276,0.661532,-0.044702,-0.293606,0.971948,0.0,12.0,60.0,178.0,33.0,1.0
384253,1.253298,-1.201671,0.7496079999999999,0.120744,0.657628,0.571833,0.0,12.0,60.0,178.0,33.0,1.0
384254,1.298511,-1.243594,0.874333,0.57791,1.080444,-0.224101,0.0,12.0,60.0,178.0,33.0,1.0
384255,1.298987,-1.255057,0.937601,-0.211353,-0.019812,0.049977,0.0,12.0,60.0,178.0,33.0,1.0
384256,1.247492,-1.252809,0.963124,-0.400189,0.006157,0.335029,0.0,12.0,60.0,178.0,33.0,1.0
384257,1.252384,-1.269023,1.0451469999999998,-0.381962,-0.20356,0.33706,0.0,12.0,60.0,178.0,33.0,1.0
384258,1.325507,-1.29785,1.183518,-0.25542800000000004,-0.135787,0.067579,0.0,12.0,60.0,178.0,33.0,1.0
384259,1.420517,-1.331487,1.3219459999999998,-0.004942,-0.075338,0.058128,0.0,12.0,60.0,178.0,33.0,1.0
384260,1.535428,-1.365914,1.473658,0.23122,-0.121999,0.144538,0.0,12.0,60.0,178.0,33.0,1.0
384261,1.697709,-1.397731,1.677061,0.26960700000000004,-0.175095,0.186886,0.0,12.0,60.0,178.0,33.0,1.0
384262,1.894357,-1.418097,1.916189,0.305356,-0.227423,0.25545100000000004,0.0,12.0,60.0,178.0,33.0,1.0
384263,2.085073,-1.421448,2.152267,0.245314,-0.237419,0.145055,0.0,12.0,60.0,178.0,33.0,1.0
384264,2.236062,-1.408579,2.347413,0.129933,-0.105005,0.015302,0.0,12.0,60.0,178.0,33.0,1.0
384265,2.329539,-1.388223,2.478322,0.132422,-0.027661,-0.056704,0.0,12.0,60.0,178.0,33.0,1.0
384266,2.345532,-1.369821,2.528757,0.268102,-0.092696,-0.249671,0.0,12.0,60.0,178.0,33.0,1.0
384267,2.271614,-1.363057,2.49426,0.390492,-0.24884,-0.078263,0.0,12.0,60.0,178.0,33.0,1.0
384268,2.101735,-1.365856,2.366145,0.392005,-0.320977,0.095042,0.0,12.0,60.0,178.0,33.0,1.0
384269,1.837585,-1.356184,2.136987,0.569308,0.111625,0.442838,0.0,12.0,60.0,178.0,33.0,1.0
384270,1.575797,-1.31575,1.863892,0.484793,0.304962,0.287618,0.0,12.0,60.0,178.0,33.0,1.0
384271,1.435429,-1.24744,1.6956779999999998,0.348043,0.604621,0.13380699999999998,0.0,12.0,60.0,178.0,33.0,1.0
384272,1.36249,-1.187048,1.655601,-0.225119,1.156656,0.752214,0.0,12.0,60.0,178.0,33.0,1.0
384273,1.306815,-1.151235,1.652989,-0.340381,0.8696149999999999,0.896251,0.0,12.0,60.0,178.0,33.0,1.0
384274,1.304021,-1.130073,1.68146,-0.216441,0.187598,0.336868,0.0,12.0,60.0,178.0,33.0,1.0
384275,1.292434,-1.098604,1.707389,0.400354,0.004614,0.10679,0.0,12.0,60.0,178.0,33.0,1.0
384276,1.247039,-1.0565870000000002,1.732392,0.232475,0.148956,0.39063,0.0,12.0,60.0,178.0,33.0,1.0
384277,1.209448,-1.021003,1.768068,-0.133978,0.263212,0.7227939999999999,0.0,12.0,60.0,178.0,33.0,1.0
384278,1.178051,-0.990892,1.814014,-0.276909,0.27228,0.334908,0.0,12.0,60.0,178.0,33.0,1.0
384279,1.153621,-0.964799,1.868358,-0.35704600000000003,0.247158,0.350165,0.0,12.0,60.0,178.0,33.0,1.0
384280,1.1292879999999998,-0.941159,1.922423,-0.460541,0.13759000000000002,0.354506,0.0,12.0,60.0,178.0,33.0,1.0
384281,1.101819,-0.925113,1.966681,-0.4648850000000001,0.005144,0.32092,0.0,12.0,60.0,178.0,33.0,1.0
384282,1.076053,-0.921058,1.998825,-0.473973,-0.051079,0.251356,0.0,12.0,60.0,178.0,33.0,1.0
384283,1.057328,-0.928341,2.024177,-0.44624,-0.036299,0.209071,0.0,12.0,60.0,178.0,33.0,1.0
384284,1.045775,-0.944728,2.046159,-0.401812,-0.159733,0.184066,0.0,12.0,60.0,178.0,33.0,1.0
384285,1.040319,-0.968608,2.064968,-0.32926,-0.245775,0.141232,0.0,12.0,60.0,178.0,33.0,1.0
384286,1.038937,-1.0000790000000002,2.080779,-0.241117,-0.274619,0.148817,0.0,12.0,60.0,178.0,33.0,1.0
384287,1.0437,-1.036849,2.099757,0.165709,-0.236156,0.035713,0.0,12.0,60.0,178.0,33.0,1.0
384288,1.041385,-1.07248,2.11479,0.427836,-0.016908000000000003,-0.106743,0.0,12.0,60.0,178.0,33.0,1.0
384289,1.001992,-1.09113,2.104658,0.7183039999999999,0.202512,-0.198826,0.0,12.0,60.0,178.0,33.0,1.0
384290,0.969664,-1.081568,2.099054,0.836872,0.11051400000000003,0.10952,0.0,12.0,60.0,178.0,33.0,1.0
384291,0.993623,-1.062705,2.132291,0.448005,-0.229998,0.589209,0.0,12.0,60.0,178.0,33.0,1.0
384292,1.057978,-1.049198,2.196585,-0.054908000000000005,-0.430501,0.710588,0.0,12.0,60.0,178.0,33.0,1.0
384293,1.150432,-1.051224,2.291672,-0.546491,0.415797,0.35743400000000003,0.0,12.0,60.0,178.0,33.0,1.0
384294,1.239839,-1.075701,2.392213,-0.684934,1.826802,-0.13865999999999998,0.0,12.0,60.0,178.0,33.0,1.0
384295,1.236512,-1.084768,2.429653,-0.751326,1.351248,-0.816075,0.0,12.0,60.0,178.0,33.0,1.0
384296,1.173037,-1.09311,2.407451,-0.07051,-0.346114,0.12781099999999998,0.0,12.0,60.0,178.0,33.0,1.0
384297,1.072298,-1.098448,2.3611,-0.065204,0.034531,0.738368,0.0,12.0,60.0,178.0,33.0,1.0
384298,0.992974,-1.107151,2.332015,-0.10066,0.253735,0.929428,0.0,12.0,60.0,178.0,33.0,1.0
384299,0.973867,-1.1185770000000002,2.3605400000000003,-0.310654,0.388896,0.862909,0.0,12.0,60.0,178.0,33.0,1.0
384300,0.988691,-1.140062,2.418207,-0.223841,0.263185,0.420011,0.0,12.0,60.0,178.0,33.0,1.0
384301,1.071546,-1.175797,2.5110080000000004,-0.032119,0.17093599999999998,0.12984600000000002,0.0,12.0,60.0,178.0,33.0,1.0
384302,1.133192,-1.195859,2.571587,0.010621,-0.1068,-0.230038,0.0,12.0,60.0,178.0,33.0,1.0
384303,1.131162,-1.201797,2.5820540000000003,-0.143665,-0.141459,0.130693,0.0,12.0,60.0,178.0,33.0,1.0
384304,1.143682,-1.212287,2.60402,-0.244746,-0.241765,0.268362,0.0,12.0,60.0,178.0,33.0,1.0
384305,1.149671,-1.22299,2.617462,-0.20721,-0.371443,0.022748,0.0,12.0,60.0,178.0,33.0,1.0
384306,1.14075,-1.234016,2.6171740000000003,-0.110058,-0.451636,0.099281,0.0,12.0,60.0,178.0,33.0,1.0
384307,1.138534,-1.24435,2.619386,-0.064196,-0.512648,0.036252,0.0,12.0,60.0,178.0,33.0,1.0
384308,1.135357,-1.246051,2.612897,0.111948,-0.5738,-0.151583,0.0,12.0,60.0,178.0,33.0,1.0
384309,1.116677,-1.237215,2.591057,-0.070935,-0.365179,0.057904,0.0,12.0,60.0,178.0,33.0,1.0
384310,1.108527,-1.229413,2.581916,-0.145009,-0.361757,0.201536,0.0,12.0,60.0,178.0,33.0,1.0
384311,1.108186,-1.224376,2.581163,-0.07805,-0.457791,0.101078,0.0,12.0,60.0,178.0,33.0,1.0
384312,1.098267,-1.221231,2.575171,-0.143725,-0.286125,0.246894,0.0,12.0,60.0,178.0,33.0,1.0
384313,1.105924,-1.222542,2.570479,-0.090067,-0.136732,0.3123,0.0,12.0,60.0,178.0,33.0,1.0
384314,1.112199,-1.220981,2.5623970000000003,0.214136,0.008699,0.235136,0.0,12.0,60.0,178.0,33.0,1.0
384315,1.1161709999999998,-1.214919,2.554949,0.157065,-0.160913,0.128715,0.0,12.0,60.0,178.0,33.0,1.0
384316,1.103788,-1.194561,2.53386,0.073924,-0.133546,0.252848,0.0,12.0,60.0,178.0,33.0,1.0
384317,1.094034,-1.157158,2.504775,0.16756,0.460404,0.052125,0.0,12.0,60.0,178.0,33.0,1.0
384318,1.069227,-1.093884,2.467264,0.481572,1.593334,-0.300797,0.0,12.0,60.0,178.0,33.0,1.0
384319,1.05239,-1.01771,2.451939,0.45138,1.85208,-0.211101,0.0,12.0,60.0,178.0,33.0,1.0
384320,1.03632,-0.953138,2.445901,-0.185061,0.917551,-0.015395,0.0,12.0,60.0,178.0,33.0,1.0
384321,1.035556,-0.909196,2.447105,-0.352427,0.72541,0.011679,0.0,12.0,60.0,178.0,33.0,1.0
384322,1.045132,-0.8874110000000001,2.456311,-0.224316,0.489758,-0.029339,0.0,12.0,60.0,178.0,33.0,1.0
384323,1.040496,-0.88395,2.458581,-0.26632100000000003,-0.086635,0.22366,0.0,12.0,60.0,178.0,33.0,1.0
384324,1.040129,-0.896325,2.456954,-0.393972,-0.38466,0.428268,0.0,12.0,60.0,178.0,33.0,1.0
384325,1.043097,-0.920412,2.450945,-0.422703,-0.446257,0.390279,0.0,12.0,60.0,178.0,33.0,1.0
384326,1.051433,-0.955419,2.444741,-0.335522,-0.376629,0.126751,0.0,12.0,60.0,178.0,33.0,1.0
384327,1.048945,-0.997467,2.438,-0.150617,-0.072872,-0.188837,0.0,12.0,60.0,178.0,33.0,1.0
384328,1.0346959999999998,-1.049602,2.435743,-0.0851,0.075921,-0.218742,0.0,12.0,60.0,178.0,33.0,1.0
384329,1.026787,-1.104274,2.440212,-0.099796,0.25121,0.028811,0.0,12.0,60.0,178.0,33.0,1.0
384330,0.999873,-1.1470790000000002,2.430447,0.053906,0.12984500000000002,0.100084,0.0,12.0,60.0,178.0,33.0,1.0
384331,0.952787,-1.174639,2.416864,0.12441,-0.066822,-0.015437,0.0,12.0,60.0,178.0,33.0,1.0
384332,0.920674,-1.189884,2.426702,0.116614,-0.5028189999999999,0.14372,0.0,12.0,60.0,178.0,33.0,1.0
384333,0.929,-1.198894,2.459445,-0.098279,-0.874051,0.439058,0.0,12.0,60.0,178.0,33.0,1.0
384334,0.966248,-1.2075209999999998,2.507639,-0.099553,-0.877151,0.423491,0.0,12.0,60.0,178.0,33.0,1.0
384335,0.993818,-1.219358,2.554114,-0.318768,-1.165349,0.173069,0.0,12.0,60.0,178.0,33.0,1.0
384336,0.999197,-1.234745,2.591746,-0.35530300000000004,-1.147861,-0.166187,0.0,12.0,60.0,178.0,33.0,1.0
384337,0.978708,-1.248498,2.622957,-0.340791,-1.152306,-0.16780599999999998,0.0,12.0,60.0,178.0,33.0,1.0
384338,0.986306,-1.25781,2.675786,-0.120118,-0.255129,0.354287,0.0,12.0,60.0,178.0,33.0,1.0
384339,1.050637,-1.253281,2.738884,0.202257,1.233229,0.60411,0.0,12.0,60.0,178.0,33.0,1.0
384340,1.121946,-1.240641,2.779154,0.181094,1.237251,0.5896140000000001,0.0,12.0,60.0,178.0,33.0,1.0
384341,1.167874,-1.234323,2.778144,-0.129149,0.785171,-0.101839,0.0,12.0,60.0,178.0,33.0,1.0
384342,1.198933,-1.233942,2.769388,0.80576,0.08230900000000001,0.076191,0.0,12.0,60.0,178.0,33.0,1.0
384343,1.20999,-1.206695,2.749146,0.780508,0.091664,0.081813,0.0,12.0,60.0,178.0,33.0,1.0
384344,1.228867,-1.163971,2.722957,0.215707,0.175612,0.339951,0.0,12.0,60.0,178.0,33.0,1.0
384345,1.224151,-1.1388280000000002,2.688704,-0.059092,0.230742,-0.052377,0.0,12.0,60.0,178.0,33.0,1.0
384346,1.189966,-1.130247,2.653692,-0.06122100000000001,0.234368,-0.036111,0.0,12.0,60.0,178.0,33.0,1.0
384347,1.157162,-1.116337,2.610574,0.42163,0.207291,0.118593,0.0,12.0,60.0,178.0,33.0,1.0
384348,1.128605,-1.079514,2.566949,0.372683,0.776459,-0.14210799999999998,0.0,12.0,60.0,178.0,33.0,1.0
384349,1.092177,-1.017565,2.5239130000000003,0.311244,1.276351,-0.228942,0.0,12.0,60.0,178.0,33.0,1.0
384350,1.04067,-0.948912,2.4866330000000003,0.03138,1.779564,-0.12617799999999998,0.0,12.0,60.0,178.0,33.0,1.0
384351,1.001099,-0.902857,2.461849,-0.772933,0.491878,0.432933,0.0,12.0,60.0,178.0,33.0,1.0
384352,1.004658,-0.8801620000000001,2.4523080000000004,-0.937779,0.222673,0.162026,0.0,12.0,60.0,178.0,33.0,1.0
384353,1.031752,-0.883502,2.448911,-0.161895,0.027007,0.137651,0.0,12.0,60.0,178.0,33.0,1.0
384354,1.06414,-0.902257,2.453558,-0.104726,-0.03926,0.10925,0.0,12.0,60.0,178.0,33.0,1.0
384355,1.0931110000000002,-0.936443,2.459716,-0.205815,-0.19106,0.076228,0.0,12.0,60.0,178.0,33.0,1.0
384356,1.124062,-0.985627,2.471075,-0.283667,-0.479493,-0.108898,0.0,12.0,60.0,178.0,33.0,1.0
384357,1.147512,-1.04877,2.491776,-0.14969200000000002,-0.31340500000000004,-0.158374,0.0,12.0,60.0,178.0,33.0,1.0
384358,1.162107,-1.11805,2.52197,-0.01357,-0.170673,-0.15476099999999998,0.0,12.0,60.0,178.0,33.0,1.0
384359,1.157349,-1.176125,2.556321,0.23860100000000006,-0.353665,-0.156145,0.0,12.0,60.0,178.0,33.0,1.0
384360,1.129492,-1.212851,2.579762,0.04408,-0.776829,-0.087607,0.0,12.0,60.0,178.0,33.0,1.0
384361,1.085433,-1.235603,2.587475,-0.040903,-0.812038,-0.002515,0.0,12.0,60.0,178.0,33.0,1.0
384362,1.026775,-1.252236,2.579979,-0.050887,-0.973506,0.365103,0.0,12.0,60.0,178.0,33.0,1.0
384363,0.984773,-1.263803,2.5760650000000003,-0.0071930000000000015,-1.195632,0.466118,0.0,12.0,60.0,178.0,33.0,1.0
384364,0.986296,-1.2723719999999998,2.602312,-0.010102,-1.311407,0.424371,0.0,12.0,60.0,178.0,33.0,1.0
384365,1.002649,-1.272252,2.633244,-0.331849,-0.807145,-0.07113,0.0,12.0,60.0,178.0,33.0,1.0
384366,1.056312,-1.265153,2.693789,-0.4674930000000001,0.082708,0.044962,0.0,12.0,60.0,178.0,33.0,1.0
384367,1.115438,-1.246744,2.7629900000000003,-0.293599,0.636596,0.33660500000000004,0.0,12.0,60.0,178.0,33.0,1.0
384368,1.191312,-1.232326,2.826761,0.136674,1.868473,0.151609,0.0,12.0,60.0,178.0,33.0,1.0
384369,1.290234,-1.219747,2.843927,0.78751,0.5150279999999999,-0.246382,0.0,12.0,60.0,178.0,33.0,1.0
384370,1.285562,-1.198794,2.8093630000000003,0.664537,0.140298,-0.346914,0.0,12.0,60.0,178.0,33.0,1.0
384371,1.263022,-1.182613,2.791897,0.413369,-0.209793,0.058814,0.0,12.0,60.0,178.0,33.0,1.0
384372,1.258374,-1.163964,2.775472,0.325811,-0.170958,0.241083,0.0,12.0,60.0,178.0,33.0,1.0
384373,1.262119,-1.146891,2.759846,0.055332000000000006,0.322245,0.325121,0.0,12.0,60.0,178.0,33.0,1.0
384374,1.251817,-1.118775,2.719107,0.1099,0.090165,-0.078681,0.0,12.0,60.0,178.0,33.0,1.0
384375,1.218931,-1.059271,2.651549,0.29008,0.273585,-0.4380600000000001,0.0,12.0,60.0,178.0,33.0,1.0
384376,1.167814,-0.973951,2.588035,0.372488,0.731053,-0.314459,0.0,12.0,60.0,178.0,33.0,1.0
384377,1.0992620000000002,-0.8886059999999999,2.542279,-0.104547,2.266699,0.046808,0.0,12.0,60.0,178.0,33.0,1.0
384378,1.058565,-0.843133,2.5129900000000003,-0.6586890000000001,0.636677,0.472644,0.0,12.0,60.0,178.0,33.0,1.0
384379,1.05311,-0.824269,2.493486,-0.8983479999999999,0.329944,-0.027586000000000003,0.0,12.0,60.0,178.0,33.0,1.0
384380,1.064453,-0.831512,2.482241,-0.20959,0.191988,0.197914,0.0,12.0,60.0,178.0,33.0,1.0
384381,1.079607,-0.8576440000000001,2.4717,-0.086925,-0.08452,0.329665,0.0,12.0,60.0,178.0,33.0,1.0
384382,1.090094,-0.8969459999999999,2.458761,-0.329644,-0.329979,0.207344,0.0,12.0,60.0,178.0,33.0,1.0
384383,1.099644,-0.948976,2.460032,-0.416244,-0.353774,-0.083491,0.0,12.0,60.0,178.0,33.0,1.0
384384,1.1021299999999998,-1.01566,2.480633,-0.237845,-0.008443,-0.222717,0.0,12.0,60.0,178.0,33.0,1.0
384385,1.09125,-1.087798,2.510262,-0.035578,-0.075838,-0.26221,0.0,12.0,60.0,178.0,33.0,1.0
384386,1.065517,-1.148906,2.527217,0.149473,-0.475457,-0.08275199999999999,0.0,12.0,60.0,178.0,33.0,1.0
384387,1.058955,-1.1979799999999998,2.542005,0.207397,-0.871231,0.094989,0.0,12.0,60.0,178.0,33.0,1.0
384388,1.06009,-1.239432,2.561239,0.208254,-1.017102,0.077762,0.0,12.0,60.0,178.0,33.0,1.0
384389,1.015231,-1.26491,2.559268,0.194892,-1.163419,0.220909,0.0,12.0,60.0,178.0,33.0,1.0
384390,0.967523,-1.27332,2.556079,0.133153,-1.31228,0.330988,0.0,12.0,60.0,178.0,33.0,1.0
384391,0.991265,-1.270142,2.608216,-0.017952000000000003,-1.135944,0.311189,0.0,12.0,60.0,178.0,33.0,1.0
384392,1.066835,-1.252352,2.685994,-0.50183,-0.515687,0.383042,0.0,12.0,60.0,178.0,33.0,1.0
384393,1.1393719999999998,-1.2277049999999998,2.764574,-0.379663,1.169899,0.460811,0.0,12.0,60.0,178.0,33.0,1.0
384394,1.223914,-1.2146370000000002,2.839437,-0.252871,1.904935,0.315816,0.0,12.0,60.0,178.0,33.0,1.0
384395,1.333026,-1.208906,2.880437,0.772858,0.576764,-0.813585,0.0,12.0,60.0,178.0,33.0,1.0
384396,1.342521,-1.187266,2.8529310000000003,0.560906,-0.07560399999999999,0.401175,0.0,12.0,60.0,178.0,33.0,1.0
384397,1.329182,-1.173953,2.83897,0.495547,-0.15446300000000002,0.5590609999999999,0.0,12.0,60.0,178.0,33.0,1.0
384398,1.315711,-1.174134,2.825723,0.428522,0.060463,0.40423,0.0,12.0,60.0,178.0,33.0,1.0
384399,1.296142,-1.17306,2.807509,0.143507,0.148845,0.334189,0.0,12.0,60.0,178.0,33.0,1.0
384400,1.261225,-1.154861,2.745262,-0.033268,0.157222,-0.032947000000000004,0.0,12.0,60.0,178.0,33.0,1.0
384401,1.231332,-1.108191,2.67502,-0.002272,0.864949,-0.113149,0.0,12.0,60.0,178.0,33.0,1.0
384402,1.200994,-1.042073,2.615287,0.209958,1.35658,-0.3813760000000001,0.0,12.0,60.0,178.0,33.0,1.0
384403,1.152598,-0.970572,2.567806,0.359601,1.57039,-0.503467,0.0,12.0,60.0,178.0,33.0,1.0
384404,1.112506,-0.916745,2.536664,-0.385632,0.471969,0.4629680000000001,0.0,12.0,60.0,178.0,33.0,1.0
384405,1.083901,-0.88705,2.508547,-0.7599020000000001,-0.240086,0.31190300000000004,0.0,12.0,60.0,178.0,33.0,1.0
384406,1.079867,-0.873505,2.485585,-0.763763,-0.143797,0.187347,0.0,12.0,60.0,178.0,33.0,1.0
384407,1.092562,-0.883986,2.474177,-0.094472,0.533948,0.034116,0.0,12.0,60.0,178.0,33.0,1.0
384408,1.09976,-0.90882,2.469281,0.006695,0.197641,0.029265,0.0,12.0,60.0,178.0,33.0,1.0
384409,1.104591,-0.94596,2.472857,-0.031611,-0.015756,-0.0068980000000000005,0.0,12.0,60.0,178.0,33.0,1.0
384410,1.1097290000000002,-0.996444,2.483319,-0.25816100000000003,-0.33843,0.011318,0.0,12.0,60.0,178.0,33.0,1.0
384411,1.109397,-1.059979,2.492974,-0.183275,-0.204316,0.033066000000000005,0.0,12.0,60.0,178.0,33.0,1.0
384412,1.092184,-1.125316,2.497713,-0.070288,-0.111235,-0.013548,0.0,12.0,60.0,178.0,33.0,1.0
384413,1.071941,-1.1759879999999998,2.51812,0.064367,-0.240118,0.08443200000000001,0.0,12.0,60.0,178.0,33.0,1.0
384414,1.080756,-1.208103,2.564345,-0.30746100000000004,-0.384652,0.050131,0.0,12.0,60.0,178.0,33.0,1.0
384415,1.100852,-1.226817,2.607128,-0.487192,-0.415099,-0.062609,0.0,12.0,60.0,178.0,33.0,1.0
384416,1.086753,-1.242989,2.613205,-0.322752,-0.846622,-0.121475,0.0,12.0,60.0,178.0,33.0,1.0
384417,1.038967,-1.260376,2.588795,0.11258,-1.215847,0.164341,0.0,12.0,60.0,178.0,33.0,1.0
384418,0.990708,-1.272691,2.554475,0.244185,-1.357643,0.362909,0.0,12.0,60.0,178.0,33.0,1.0
384419,0.978948,-1.27952,2.540259,0.337075,-1.421883,0.333958,0.0,12.0,60.0,178.0,33.0,1.0
384420,1.066059,-1.283442,2.605676,0.09201,-0.953779,-0.173225,0.0,12.0,60.0,178.0,33.0,1.0
384421,1.108004,-1.2691940000000002,2.673429,-0.305267,-0.52078,-0.39934,0.0,12.0,60.0,178.0,33.0,1.0
384422,1.157965,-1.254006,2.755591,0.061969,0.653871,0.47857,0.0,12.0,60.0,178.0,33.0,1.0
384423,1.23475,-1.237515,2.820923,0.134127,1.617221,0.049510000000000005,0.0,12.0,60.0,178.0,33.0,1.0
384424,1.291349,-1.207098,2.787573,0.442669,2.28462,-0.7419859999999999,0.0,12.0,60.0,178.0,33.0,1.0
384425,1.297142,-1.177987,2.745327,0.112211,-0.09942,-0.107278,0.0,12.0,60.0,178.0,33.0,1.0
384426,1.269796,-1.163848,2.705294,0.1299,-0.102369,0.302892,0.0,12.0,60.0,178.0,33.0,1.0
384427,1.241162,-1.160122,2.677122,0.324652,0.009341,0.334411,0.0,12.0,60.0,178.0,33.0,1.0
384428,1.223635,-1.143151,2.650579,1.036884,0.164503,0.168429,0.0,12.0,60.0,178.0,33.0,1.0
384429,1.199285,-1.103062,2.605898,0.391195,0.445283,0.06448999999999999,0.0,12.0,60.0,178.0,33.0,1.0
384430,1.170292,-1.045362,2.559486,0.033777,0.566229,0.173555,0.0,12.0,60.0,178.0,33.0,1.0
384431,1.132723,-0.975742,2.518247,-0.260317,1.340232,-0.310909,0.0,12.0,60.0,178.0,33.0,1.0
384432,1.098106,-0.91507,2.494695,-0.238322,1.447919,0.044812,0.0,12.0,60.0,178.0,33.0,1.0
384433,1.08128,-0.8794360000000001,2.481369,-0.529989,0.4201720000000001,0.174821,0.0,12.0,60.0,178.0,33.0,1.0
384434,1.078691,-0.860504,2.471673,-0.529925,0.605949,0.128136,0.0,12.0,60.0,178.0,33.0,1.0
384435,1.096793,-0.866246,2.467017,-0.184081,0.47502,0.151671,0.0,12.0,60.0,178.0,33.0,1.0
384436,1.116908,-0.8887430000000001,2.465134,-0.163938,0.134883,0.116259,0.0,12.0,60.0,178.0,33.0,1.0
384437,1.139805,-0.926787,2.464405,-0.318674,-0.204877,0.105277,0.0,12.0,60.0,178.0,33.0,1.0
384438,1.1555030000000002,-0.976281,2.471376,-0.319056,-0.301641,-0.06941699999999999,0.0,12.0,60.0,178.0,33.0,1.0
384439,1.158124,-1.035418,2.485586,-0.214816,-0.193831,-0.039155,0.0,12.0,60.0,178.0,33.0,1.0
384440,1.135666,-1.095537,2.494897,-0.093971,-0.096404,-0.118343,0.0,12.0,60.0,178.0,33.0,1.0
384441,1.09999,-1.145867,2.504568,-0.026455000000000003,-0.603176,0.001298,0.0,12.0,60.0,178.0,33.0,1.0
384442,1.080101,-1.189469,2.522585,0.028732,-0.780543,0.042876,0.0,12.0,60.0,178.0,33.0,1.0
384443,1.080614,-1.236844,2.5560560000000003,0.197003,-0.96868,0.079068,0.0,12.0,60.0,178.0,33.0,1.0
384444,1.06216,-1.274725,2.5707,0.14743299999999998,-1.251519,0.102651,0.0,12.0,60.0,178.0,33.0,1.0
384445,1.024293,-1.291908,2.559686,0.181965,-1.351377,0.113871,0.0,12.0,60.0,178.0,33.0,1.0
384446,1.01643,-1.290681,2.569902,-0.093174,-1.242014,0.478443,0.0,12.0,60.0,178.0,33.0,1.0
384447,1.076507,-1.27723,2.628677,-0.377936,-0.94376,0.284199,0.0,12.0,60.0,178.0,33.0,1.0
384448,1.147556,-1.258581,2.706947,-0.6521239999999999,-0.054439,-0.20574,0.0,12.0,60.0,178.0,33.0,1.0
384449,1.207439,-1.239793,2.768653,-0.158743,1.477211,0.241601,0.0,12.0,60.0,178.0,33.0,1.0
384450,1.242276,-1.223993,2.769755,0.550289,1.998775,-0.357823,0.0,12.0,60.0,178.0,33.0,1.0
384451,1.229941,-1.204158,2.713222,0.785568,1.092753,0.428549,0.0,12.0,60.0,178.0,33.0,1.0
384452,1.22423,-1.1860190000000002,2.6975830000000003,0.303178,-0.273913,-0.020105,0.0,12.0,60.0,178.0,33.0,1.0
384453,1.229031,-1.183696,2.695404,0.173177,0.174792,0.215599,0.0,12.0,60.0,178.0,33.0,1.0
384454,1.255209,-1.19454,2.723567,0.196767,0.348686,0.4259,0.0,12.0,60.0,178.0,33.0,1.0
384455,1.308145,-1.210485,2.775943,0.30127600000000004,0.080967,0.161194,0.0,12.0,60.0,178.0,33.0,1.0
384456,1.319831,-1.205739,2.773971,0.368029,0.063669,-0.105986,0.0,12.0,60.0,178.0,33.0,1.0
384457,1.304616,-1.167086,2.739541,0.402231,0.252326,-0.13463,0.0,12.0,60.0,178.0,33.0,1.0
384458,1.269779,-1.104494,2.681643,0.197697,0.881742,-0.377767,0.0,12.0,60.0,178.0,33.0,1.0
384459,1.199681,-1.031793,2.618338,0.195832,1.227427,-0.27736,0.0,12.0,60.0,178.0,33.0,1.0
384460,1.118321,-0.966806,2.5628580000000003,0.066924,1.087477,0.099733,0.0,12.0,60.0,178.0,33.0,1.0
384461,1.067596,-0.921027,2.529843,-0.482596,0.277614,0.5289010000000001,0.0,12.0,60.0,178.0,33.0,1.0
384462,1.040202,-0.894027,2.505705,-0.840305,-0.127867,0.151701,0.0,12.0,60.0,178.0,33.0,1.0
384463,1.03075,-0.882663,2.492458,-0.879868,0.100278,-0.021977,0.0,12.0,60.0,178.0,33.0,1.0
384464,1.043752,-0.8917459999999999,2.494482,-0.285116,0.46234,-0.07041,0.0,12.0,60.0,178.0,33.0,1.0
384465,1.060504,-0.916013,2.504666,0.035801,0.06454700000000001,0.00878,0.0,12.0,60.0,178.0,33.0,1.0
384466,1.068922,-0.955832,2.509388,-0.023113,-0.275229,-0.016465999999999998,0.0,12.0,60.0,178.0,33.0,1.0
384467,1.0648,-1.0070709999999998,2.50861,-0.06605499999999999,-0.385874,-0.02285,0.0,12.0,60.0,178.0,33.0,1.0
384468,1.047242,-1.069488,2.504562,-0.036829,-0.26816,0.007354,0.0,12.0,60.0,178.0,33.0,1.0
384469,1.021799,-1.135684,2.507725,0.045405,-0.109948,-0.020524,0.0,12.0,60.0,178.0,33.0,1.0
384470,0.99573,-1.185948,2.535311,0.063773,-0.115836,0.09534,0.0,12.0,60.0,178.0,33.0,1.0
384471,0.989397,-1.210777,2.574596,-0.195264,-0.316872,0.15271500000000002,0.0,12.0,60.0,178.0,33.0,1.0
384472,1.003104,-1.219913,2.615098,-0.548791,-0.319974,-0.050035,0.0,12.0,60.0,178.0,33.0,1.0
384473,0.984938,-1.228762,2.617106,-0.604414,-0.628537,-0.037975,0.0,12.0,60.0,178.0,33.0,1.0
384474,0.940524,-1.242265,2.586566,-0.071656,-1.0578610000000002,0.08911000000000001,0.0,12.0,60.0,178.0,33.0,1.0
384475,0.894849,-1.254922,2.550077,0.118355,-1.176416,0.299128,0.0,12.0,60.0,178.0,33.0,1.0
384476,0.8789950000000001,-1.268308,2.5429470000000003,0.300507,-1.44436,0.423945,0.0,12.0,60.0,178.0,33.0,1.0
384477,0.915422,-1.28454,2.59385,-0.109824,-0.8011659999999999,-0.017541,0.0,12.0,60.0,178.0,33.0,1.0
384478,0.95244,-1.289295,2.677203,-0.294739,-0.497383,0.522085,0.0,12.0,60.0,178.0,33.0,1.0
384479,1.0231290000000002,-1.294025,2.7831240000000004,0.203325,0.505556,0.165498,0.0,12.0,60.0,178.0,33.0,1.0
384480,1.096399,-1.281162,2.845895,0.439385,1.3642379999999998,-0.217381,0.0,12.0,60.0,178.0,33.0,1.0
384481,1.117376,-1.254716,2.829726,0.224773,1.406991,-0.114499,0.0,12.0,60.0,178.0,33.0,1.0
384482,1.150458,-1.254192,2.822503,0.541852,0.293705,-0.440262,0.0,12.0,60.0,178.0,33.0,1.0
384483,1.124737,-1.248338,2.80318,1.288505,0.231732,-0.119379,0.0,12.0,60.0,178.0,33.0,1.0
384484,1.045237,-1.248361,2.742963,1.300283,0.231725,-0.097117,0.0,12.0,60.0,178.0,33.0,1.0
384485,0.991279,-1.258564,2.726923,0.5686640000000001,-0.021734,0.321458,0.0,12.0,60.0,178.0,33.0,1.0
384486,0.988762,-1.257242,2.735671,0.192473,-0.162425,0.26069200000000003,0.0,12.0,60.0,178.0,33.0,1.0
384487,0.999847,-1.22386,2.720452,0.083565,0.122554,0.135167,0.0,12.0,60.0,178.0,33.0,1.0
384488,0.9997,-1.162022,2.692866,0.183193,0.998712,-0.374147,0.0,12.0,60.0,178.0,33.0,1.0
384489,0.948928,-1.106372,2.678057,0.267435,0.910989,0.331743,0.0,12.0,60.0,178.0,33.0,1.0
384490,0.92053,-1.06895,2.689328,0.117542,0.835585,0.426383,0.0,12.0,60.0,178.0,33.0,1.0
384491,0.922602,-1.040672,2.720527,0.093518,0.368411,0.131036,0.0,12.0,60.0,178.0,33.0,1.0
384492,0.93837,-1.015961,2.763345,-0.055589,0.180271,0.13661800000000002,0.0,12.0,60.0,178.0,33.0,1.0
384493,0.951887,-1.003076,2.808978,-0.134822,0.052974,0.032728,0.0,12.0,60.0,178.0,33.0,1.0
384494,0.943961,-1.003823,2.841223,-0.311604,-0.162363,0.214363,0.0,12.0,60.0,178.0,33.0,1.0
384495,0.918738,-1.01851,2.858041,-0.31910900000000003,-0.192636,0.289335,0.0,12.0,60.0,178.0,33.0,1.0
384496,0.871338,-1.0427030000000002,2.8549900000000004,-0.340857,-0.245026,0.315383,0.0,12.0,60.0,178.0,33.0,1.0
384497,0.800391,-1.072836,2.83304,-0.365541,-0.400303,0.240898,0.0,12.0,60.0,178.0,33.0,1.0
384498,0.7153189999999999,-1.105359,2.79687,-0.253263,-0.462931,0.26010900000000003,0.0,12.0,60.0,178.0,33.0,1.0
384499,0.621792,-1.134961,2.751051,-0.16096,-0.476266,0.23510100000000006,0.0,12.0,60.0,178.0,33.0,1.0
384500,0.532072,-1.163325,2.706424,-0.068229,-0.549107,0.061226,0.0,12.0,60.0,178.0,33.0,1.0
384501,0.454597,-1.18721,2.664792,0.06475,-0.5439510000000001,-0.111399,0.0,12.0,60.0,178.0,33.0,1.0
384502,0.399598,-1.19543,2.63142,0.16984200000000002,-0.4749140000000001,-0.14601,0.0,12.0,60.0,178.0,33.0,1.0
384503,0.388139,-1.189584,2.634794,0.241443,0.046578,-0.189067,0.0,12.0,60.0,178.0,33.0,1.0
384504,0.404129,-1.181086,2.665673,0.018382,0.196044,-0.12359,0.0,12.0,60.0,178.0,33.0,1.0
384505,0.428829,-1.170362,2.700128,0.07443999999999999,-0.151894,-0.136374,0.0,12.0,60.0,178.0,33.0,1.0
384506,0.468461,-1.158914,2.7402330000000004,0.065798,-0.216158,-0.513971,0.0,12.0,60.0,178.0,33.0,1.0
384507,0.51745,-1.134013,2.776176,0.508916,1.301814,-0.042836,0.0,12.0,60.0,178.0,33.0,1.0
384508,0.5866279999999999,-1.106329,2.824392,0.117411,1.4827860000000002,0.17363399999999998,0.0,12.0,60.0,178.0,33.0,1.0
384509,0.637262,-1.092981,2.845358,-0.774562,0.364516,1.620162,0.0,12.0,60.0,178.0,33.0,1.0
384510,0.640642,-1.099086,2.879833,-0.610592,0.313233,0.917311,0.0,12.0,60.0,178.0,33.0,1.0
384511,0.625664,-1.129014,2.890055,-0.258016,0.468491,0.839065,0.0,12.0,60.0,178.0,33.0,1.0
384512,0.5959939999999999,-1.167518,2.882976,0.580453,1.216161,0.8500549999999999,0.0,12.0,60.0,178.0,33.0,1.0
384513,0.607266,-1.208335,2.929796,0.520727,0.757814,0.525734,0.0,12.0,60.0,178.0,33.0,1.0
384514,0.686189,-1.247243,3.003772,0.182077,0.438149,0.086883,0.0,12.0,60.0,178.0,33.0,1.0
384515,0.751323,-1.271852,3.0716240000000004,-0.267466,0.388499,-0.213111,0.0,12.0,60.0,178.0,33.0,1.0
384516,0.769342,-1.300955,3.109891,-0.119798,0.256691,0.041806,0.0,12.0,60.0,178.0,33.0,1.0
384517,0.782986,-1.338575,3.135952,0.053427,0.127642,0.050187,0.0,12.0,60.0,178.0,33.0,1.0
384518,0.781854,-1.381595,-3.139707,0.153246,-0.180839,0.140604,0.0,12.0,60.0,178.0,33.0,1.0
384519,0.7561760000000001,-1.427232,3.13394,0.17618399999999998,-0.376263,0.158645,0.0,12.0,60.0,178.0,33.0,1.0
384520,0.6831729999999999,-1.470079,3.073801,0.218654,-0.382933,0.094711,0.0,12.0,60.0,178.0,33.0,1.0
384521,0.5189729999999999,-1.511187,2.923763,0.405631,-0.29430500000000004,-0.091021,0.0,12.0,60.0,178.0,33.0,1.0
384522,-0.065469,-1.544311,2.362971,0.470978,-0.453949,-0.149836,0.0,12.0,60.0,178.0,33.0,1.0
384523,-1.218877,-1.543899,1.234776,0.528906,-0.547978,-0.166724,0.0,12.0,60.0,178.0,33.0,1.0
384524,-1.473141,-1.539406,0.990408,0.681721,-0.468578,-0.216495,0.0,12.0,60.0,178.0,33.0,1.0
384525,-1.026058,-1.550131,1.439293,0.579689,-0.136459,0.031706,0.0,12.0,60.0,178.0,33.0,1.0
384526,-0.06779299999999999,-1.542906,2.419089,0.564045,-0.136284,0.048786,0.0,12.0,60.0,178.0,33.0,1.0
384527,0.325685,-1.524793,2.858908,0.79488,-0.142527,0.221478,0.0,12.0,60.0,178.0,33.0,1.0
384528,0.497248,-1.494193,3.0568880000000003,0.483428,-0.29906900000000003,0.512887,0.0,12.0,60.0,178.0,33.0,1.0
384529,0.623058,-1.426232,-3.121974,0.444514,-0.07660499999999999,0.446823,0.0,12.0,60.0,178.0,33.0,1.0
384530,0.697933,-1.33462,-3.08818,0.623276,1.015599,-0.277202,0.0,12.0,60.0,178.0,33.0,1.0
384531,0.71531,-1.263567,-3.047641,0.485746,0.959499,0.776641,0.0,12.0,60.0,178.0,33.0,1.0
384532,0.675901,-1.209137,-3.010913,0.339427,0.789802,1.158277,0.0,12.0,60.0,178.0,33.0,1.0
384533,0.675295,-1.170807,-2.945968,0.10716,0.524324,0.814053,0.0,12.0,60.0,178.0,33.0,1.0
384534,0.738308,-1.158436,-2.840477,0.292114,0.220114,0.500969,0.0,12.0,60.0,178.0,33.0,1.0
384535,0.800771,-1.134634,-2.739086,0.321614,0.17495,0.140454,0.0,12.0,60.0,178.0,33.0,1.0
384536,0.831476,-1.09702,-2.645041,-0.144062,0.285777,0.524101,0.0,12.0,60.0,178.0,33.0,1.0
384537,0.85424,-1.066334,-2.5468040000000003,-0.178111,0.123528,0.535129,0.0,12.0,60.0,178.0,33.0,1.0
384538,0.865585,-1.040611,-2.448122,-0.20622,-0.008618,0.5594279999999999,0.0,12.0,60.0,178.0,33.0,1.0
384539,0.863516,-1.019511,-2.361971,-0.263115,-0.283645,0.4891680000000001,0.0,12.0,60.0,178.0,33.0,1.0
384540,0.846316,-1.007892,-2.294284,-0.166916,-0.197286,0.466308,0.0,12.0,60.0,178.0,33.0,1.0
384541,0.8192950000000001,-1.005997,-2.243033,-0.12654,-0.14009100000000002,0.476619,0.0,12.0,60.0,178.0,33.0,1.0
384542,0.787782,-1.013138,-2.204843,-0.187604,0.060988,0.39459,0.0,12.0,60.0,178.0,33.0,1.0
384543,0.757793,-1.029355,-2.177069,-0.240971,0.084989,0.352977,0.0,12.0,60.0,178.0,33.0,1.0
384544,0.735849,-1.052058,-2.156669,-0.253185,0.036874,0.320947,0.0,12.0,60.0,178.0,33.0,1.0
384545,0.726155,-1.08045,-2.141487,-0.195522,-0.190168,0.122391,0.0,12.0,60.0,178.0,33.0,1.0
384546,0.725729,-1.114726,-2.128748,0.025956,-0.381585,0.0028710000000000003,0.0,12.0,60.0,178.0,33.0,1.0
384547,0.725405,-1.1534950000000002,-2.1155470000000003,0.183204,-0.42238,-0.13255699999999998,0.0,12.0,60.0,178.0,33.0,1.0
384548,0.704634,-1.189934,-2.119133,0.748128,-0.331146,-0.048048,0.0,12.0,60.0,178.0,33.0,1.0
384549,0.670079,-1.213185,-2.139178,1.103675,-0.07206599999999999,0.175803,0.0,12.0,60.0,178.0,33.0,1.0
384550,0.6664479999999999,-1.215866,-2.123498,1.053385,0.196408,0.138879,0.0,12.0,60.0,178.0,33.0,1.0
384551,0.703209,-1.209021,-2.058825,0.675057,-0.08570599999999999,0.33567,0.0,12.0,60.0,178.0,33.0,1.0
384552,0.773844,-1.207137,-1.965958,0.349404,-0.390107,0.5362439999999999,0.0,12.0,60.0,178.0,33.0,1.0
384553,0.8702629999999999,-1.217639,-1.855466,0.042387,-0.1744,0.509156,0.0,12.0,60.0,178.0,33.0,1.0
384554,0.965018,-1.246024,-1.7472759999999998,-0.578576,2.02652,0.245973,0.0,12.0,60.0,178.0,33.0,1.0
384555,0.956196,-1.25011,-1.717436,-0.15389,-0.318419,0.244657,0.0,12.0,60.0,178.0,33.0,1.0
384556,0.8866059999999999,-1.247787,-1.76403,-0.142336,-0.317684,0.263517,0.0,12.0,60.0,178.0,33.0,1.0
384557,0.825903,-1.250509,-1.813359,-0.168448,-0.305209,0.809812,0.0,12.0,60.0,178.0,33.0,1.0
384558,0.7593300000000001,-1.269347,-1.862857,-0.011599,0.210346,0.8413,0.0,12.0,60.0,178.0,33.0,1.0
384559,0.70395,-1.2955290000000002,-1.87163,0.016878999999999998,0.2029,0.833149,0.0,12.0,60.0,178.0,33.0,1.0
384560,0.6815060000000001,-1.326242,-1.835159,0.196171,0.167023,0.35641300000000004,0.0,12.0,60.0,178.0,33.0,1.0
384561,0.744677,-1.37037,-1.732904,0.476943,0.004241,-0.022671,0.0,12.0,60.0,178.0,33.0,1.0
384562,0.8598680000000001,-1.406797,-1.604381,0.577332,-0.052744000000000006,-0.503551,0.0,12.0,60.0,178.0,33.0,1.0
384563,0.8675719999999999,-1.416664,-1.56099,0.069574,-0.13527,0.248987,0.0,12.0,60.0,178.0,33.0,1.0
384564,0.874458,-1.427895,-1.512701,-0.049508,-0.236954,0.480633,0.0,12.0,60.0,178.0,33.0,1.0
384565,0.974165,-1.447235,-1.383279,-0.115698,-0.218817,0.482686,0.0,12.0,60.0,178.0,33.0,1.0
384566,1.211192,-1.473011,-1.1280059999999998,-0.096575,0.023454,-0.236483,0.0,12.0,60.0,178.0,33.0,1.0
384567,1.534281,-1.4980440000000002,-0.774783,0.179175,-0.00506,-0.142627,0.0,12.0,60.0,178.0,33.0,1.0
384568,1.969191,-1.516705,-0.310529,0.269391,-0.06930800000000001,-0.009706,0.0,12.0,60.0,178.0,33.0,1.0
384569,2.563703,-1.520125,0.30795700000000004,0.30873,-0.187712,0.057220000000000014,0.0,12.0,60.0,178.0,33.0,1.0
384570,2.996179,-1.504964,0.767474,0.190426,-0.204331,-0.05906,0.0,12.0,60.0,178.0,33.0,1.0
384571,-3.074089,-1.479476,1.010924,0.154632,-0.178679,-0.079462,0.0,12.0,60.0,178.0,33.0,1.0
384572,-2.953665,-1.451638,1.15776,0.190523,-0.122288,-0.08956499999999999,0.0,12.0,60.0,178.0,33.0,1.0
384573,-2.897827,-1.430997,1.23358,0.554821,-0.05636,-0.14086300000000002,0.0,12.0,60.0,178.0,33.0,1.0
384574,-2.8900360000000003,-1.424579,1.259401,0.648824,-0.090709,-0.115897,0.0,12.0,60.0,178.0,33.0,1.0
384575,-2.919649,-1.428937,1.253696,0.657231,-0.103373,0.12145999999999997,0.0,12.0,60.0,178.0,33.0,1.0
384576,-3.023541,-1.445022,1.177274,0.607499,0.011454,0.208508,0.0,12.0,60.0,178.0,33.0,1.0
384577,2.980814,-1.465334,0.919136,0.546111,0.162096,0.278168,0.0,12.0,60.0,178.0,33.0,1.0
384578,2.502069,-1.465836,0.437219,0.313299,0.459605,0.262746,0.0,12.0,60.0,178.0,33.0,1.0
384579,2.086517,-1.437407,-0.003024,0.013031,0.531008,-0.6397189999999999,0.0,12.0,60.0,178.0,33.0,1.0
384580,1.6963119999999998,-1.405555,-0.405628,-0.142002,0.425075,-0.933264,0.0,12.0,60.0,178.0,33.0,1.0
384581,1.430806,-1.369078,-0.680722,-0.217439,0.446592,0.240219,0.0,12.0,60.0,178.0,33.0,1.0
384582,1.293347,-1.334896,-0.8254370000000001,-0.318321,0.341187,0.233615,0.0,12.0,60.0,178.0,33.0,1.0
384583,1.229719,-1.304937,-0.8869889999999999,-0.31203200000000003,0.328071,0.171181,0.0,12.0,60.0,178.0,33.0,1.0
384584,1.199602,-1.274992,-0.905483,0.40804,0.024282,-0.011101,0.0,12.0,60.0,178.0,33.0,1.0
384585,1.182867,-1.228127,-0.906648,0.383628,0.15854200000000002,0.0045850000000000005,0.0,12.0,60.0,178.0,33.0,1.0
384586,1.18006,-1.177397,-0.887267,0.059921,0.28470100000000004,0.060211,0.0,12.0,60.0,178.0,33.0,1.0
384587,1.159053,-1.136775,-0.8716020000000001,-0.156459,0.014181,0.108174,0.0,12.0,60.0,178.0,33.0,1.0
384588,1.12263,-1.105668,-0.8588049999999999,-0.318847,-0.14069700000000002,0.191761,0.0,12.0,60.0,178.0,33.0,1.0
384589,1.085134,-1.0859370000000002,-0.845521,-0.36482,-0.153814,0.236331,0.0,12.0,60.0,178.0,33.0,1.0
384590,1.06003,-1.076356,-0.830219,-0.436277,-0.30037,0.26539,0.0,12.0,60.0,178.0,33.0,1.0
384591,1.051398,-1.077397,-0.810895,-0.260322,-0.4847010000000001,0.189124,0.0,12.0,60.0,178.0,33.0,1.0
384592,1.053902,-1.090939,-0.790443,-0.115264,-0.556632,0.140003,0.0,12.0,60.0,178.0,33.0,1.0
384593,1.061987,-1.115023,-0.769387,-0.01539,-0.545901,0.06393099999999999,0.0,12.0,60.0,178.0,33.0,1.0
384594,1.07287,-1.147977,-0.748437,0.10802,-0.414515,0.007054,0.0,12.0,60.0,178.0,33.0,1.0
384595,1.083603,-1.188354,-0.731009,0.1788,-0.329367,-0.045008,0.0,12.0,60.0,178.0,33.0,1.0
384596,1.09682,-1.233336,-0.71333,0.088747,0.052709000000000006,-0.035713,0.0,12.0,60.0,178.0,33.0,1.0
384597,1.104394,-1.274438,-0.6963590000000001,-0.001926,0.287078,-0.145476,0.0,12.0,60.0,178.0,33.0,1.0
384598,1.102874,-1.3016370000000002,-0.67691,0.036234,0.26905300000000004,-0.109559,0.0,12.0,60.0,178.0,33.0,1.0
384599,1.110133,-1.318173,-0.646794,0.017561,-0.027464,-0.013711,0.0,12.0,60.0,178.0,33.0,1.0
384600,1.150918,-1.327843,-0.592114,-0.16384500000000002,-0.300939,-0.060751,0.0,12.0,60.0,178.0,33.0,1.0
384601,1.21459,-1.334697,-0.519216,-0.307838,-0.629484,0.039557,0.0,12.0,60.0,178.0,33.0,1.0
384602,1.279811,-1.348294,-0.440611,-0.23182600000000006,-1.073462,0.087994,0.0,12.0,60.0,178.0,33.0,1.0
384603,1.3633,-1.374994,-0.334729,0.01641,-1.347515,0.039313,0.0,12.0,60.0,178.0,33.0,1.0
384604,1.436489,-1.403262,-0.234931,0.212962,-1.4473790000000002,0.026674,0.0,12.0,60.0,178.0,33.0,1.0
384605,1.485013,-1.423197,-0.153695,0.40468,-1.480506,-0.028921,0.0,12.0,60.0,178.0,33.0,1.0
384606,1.6185120000000002,-1.422224,0.018802000000000003,-0.186637,-0.117905,-0.488901,0.0,12.0,60.0,178.0,33.0,1.0
384607,1.650938,-1.402829,0.109403,-0.07042799999999999,0.566869,-0.443542,0.0,12.0,60.0,178.0,33.0,1.0
384608,1.709082,-1.374093,0.181271,0.157095,1.321469,0.8476049999999999,0.0,12.0,60.0,178.0,33.0,1.0
384609,1.7719790000000002,-1.348666,0.199925,0.067691,1.863101,-0.121535,0.0,12.0,60.0,178.0,33.0,1.0
384610,1.718322,-1.318026,0.07161000000000001,0.139928,-0.179085,-0.346619,0.0,12.0,60.0,178.0,33.0,1.0
384611,1.6363379999999998,-1.305782,-0.035636,0.456473,0.575545,0.15154700000000002,0.0,12.0,60.0,178.0,33.0,1.0
384612,1.592218,-1.3132780000000002,-0.086007,0.549697,0.388749,0.196556,0.0,12.0,60.0,178.0,33.0,1.0
384613,1.583981,-1.318102,-0.08354199999999999,0.55433,0.387532,0.198715,0.0,12.0,60.0,178.0,33.0,1.0
384614,1.568628,-1.308324,-0.097734,0.612007,-0.52108,0.031431,0.0,12.0,60.0,178.0,33.0,1.0
384615,1.48287,-1.285818,-0.200507,0.201012,0.168186,-0.21245100000000006,0.0,12.0,60.0,178.0,33.0,1.0
384616,1.345652,-1.236261,-0.35672,-0.008875,0.727404,-0.355232,0.0,12.0,60.0,178.0,33.0,1.0
384617,1.240466,-1.167501,-0.451563,0.338995,2.072308,-0.353697,0.0,12.0,60.0,178.0,33.0,1.0
384618,1.161065,-1.110047,-0.505406,-0.362355,0.8414780000000001,0.201852,0.0,12.0,60.0,178.0,33.0,1.0
384619,1.144268,-1.071827,-0.516223,-0.598179,0.4640260000000001,0.111847,0.0,12.0,60.0,178.0,33.0,1.0
384620,1.143883,-1.051422,-0.519163,-0.462755,-0.124554,0.172096,0.0,12.0,60.0,178.0,33.0,1.0
384621,1.158246,-1.051828,-0.519116,-0.053335,-0.11708,0.113519,0.0,12.0,60.0,178.0,33.0,1.0
384622,1.168584,-1.07067,-0.521412,-0.110146,-0.220112,0.137543,0.0,12.0,60.0,178.0,33.0,1.0
384623,1.181582,-1.102888,-0.517749,-0.171522,-0.562542,-0.047715,0.0,12.0,60.0,178.0,33.0,1.0
384624,1.205464,-1.147918,-0.494598,-0.098979,-0.605607,-0.109629,0.0,12.0,60.0,178.0,33.0,1.0
384625,1.2411530000000002,-1.20159,-0.454329,-0.03629,-0.575971,-0.069755,0.0,12.0,60.0,178.0,33.0,1.0
384626,1.276146,-1.259226,-0.404837,0.103565,-0.244273,-0.10829,0.0,12.0,60.0,178.0,33.0,1.0
384627,1.306928,-1.310782,-0.34212800000000004,0.247133,-0.16121,-0.216534,0.0,12.0,60.0,178.0,33.0,1.0
384628,1.359093,-1.349119,-0.251222,0.23475,-0.189443,-0.197456,0.0,12.0,60.0,178.0,33.0,1.0
384629,1.444233,-1.36725,-0.136531,0.023261,0.259368,-0.27217,0.0,12.0,60.0,178.0,33.0,1.0
384630,1.50353,-1.367053,-0.056883,-0.160661,0.025475,-0.41705,0.0,12.0,60.0,178.0,33.0,1.0
384631,1.502973,-1.364115,-0.03856,-0.191066,-0.188159,-0.343058,0.0,12.0,60.0,178.0,33.0,1.0
384632,1.49259,-1.362495,-0.045389,0.022734,-0.918722,0.170727,0.0,12.0,60.0,178.0,33.0,1.0
384633,1.518374,-1.36658,-0.025717,0.098279,-0.996402,0.174505,0.0,12.0,60.0,178.0,33.0,1.0
384634,1.582301,-1.3725040000000002,0.036436,0.122007,-1.1558959999999998,0.130684,0.0,12.0,60.0,178.0,33.0,1.0
384635,1.628832,-1.373472,0.106787,-0.092897,-1.188435,-0.079058,0.0,12.0,60.0,178.0,33.0,1.0
384636,1.692661,-1.36892,0.22305,-0.158459,-0.606355,0.114834,0.0,12.0,60.0,178.0,33.0,1.0
384637,1.736976,-1.355877,0.317198,-0.082093,-0.004093,-0.275509,0.0,12.0,60.0,178.0,33.0,1.0
384638,1.786155,-1.333115,0.342952,0.745378,2.390723,0.243344,0.0,12.0,60.0,178.0,33.0,1.0
384639,1.7513990000000002,-1.313433,0.260004,0.370762,1.7961189999999998,-0.11696,0.0,12.0,60.0,178.0,33.0,1.0
384640,1.690748,-1.296887,0.169506,-0.185485,-0.458067,0.067197,0.0,12.0,60.0,178.0,33.0,1.0
384641,1.632161,-1.2999379999999998,0.090244,0.283115,0.173513,-0.238621,0.0,12.0,60.0,178.0,33.0,1.0
384642,1.616927,-1.303879,0.04741,0.310908,0.413646,0.128402,0.0,12.0,60.0,178.0,33.0,1.0
384643,1.632892,-1.303409,0.039364,0.32965,0.410139,0.139351,0.0,12.0,60.0,178.0,33.0,1.0
384644,1.665713,-1.297809,0.029402,0.541312,-0.229129,-0.242836,0.0,12.0,60.0,178.0,33.0,1.0
384645,1.6049129999999998,-1.277207,-0.068267,0.652947,-0.241605,-0.696379,0.0,12.0,60.0,178.0,33.0,1.0
384646,1.482432,-1.233291,-0.212374,0.626316,-0.098216,-0.432967,0.0,12.0,60.0,178.0,33.0,1.0
384647,1.329677,-1.1757879999999998,-0.35625,0.325758,0.405284,-0.505555,0.0,12.0,60.0,178.0,33.0,1.0
384648,1.181497,-1.108516,-0.46745,-0.094146,0.727033,0.245852,0.0,12.0,60.0,178.0,33.0,1.0
384649,1.117177,-1.055169,-0.521971,-0.551027,0.753857,0.429791,0.0,12.0,60.0,178.0,33.0,1.0
384650,1.075706,-1.0240049999999998,-0.553249,-0.305794,0.279211,0.340262,0.0,12.0,60.0,178.0,33.0,1.0
384651,1.079399,-1.010989,-0.567496,-0.461226,0.385446,0.237946,0.0,12.0,60.0,178.0,33.0,1.0
384652,1.121225,-1.0200280000000002,-0.565423,-0.644171,0.615498,-0.238526,0.0,12.0,60.0,178.0,33.0,1.0
384653,1.182847,-1.05132,-0.5434329999999999,0.066518,0.313317,-0.188415,0.0,12.0,60.0,178.0,33.0,1.0
384654,1.261537,-1.104098,-0.499316,0.392046,0.101509,-0.185709,0.0,12.0,60.0,178.0,33.0,1.0
384655,1.346842,-1.170956,-0.43774,0.318656,-0.219448,-0.204657,0.0,12.0,60.0,178.0,33.0,1.0
384656,1.443331,-1.2382030000000002,-0.344481,0.295489,-0.264764,-0.287675,0.0,12.0,60.0,178.0,33.0,1.0
384657,1.543191,-1.293235,-0.219206,0.32744,-0.132198,-0.414633,0.0,12.0,60.0,178.0,33.0,1.0
384658,1.625296,-1.330382,-0.088443,0.153928,-0.4970270000000001,-0.4576560000000001,0.0,12.0,60.0,178.0,33.0,1.0
384659,1.685473,-1.357854,0.018138,-0.138076,-0.659741,-0.202021,0.0,12.0,60.0,178.0,33.0,1.0
384660,1.7083549999999998,-1.382115,0.084716,0.157551,-0.7964,-0.318411,0.0,12.0,60.0,178.0,33.0,1.0
384661,1.6658849999999998,-1.399925,0.089389,0.344346,-0.961694,-0.092421,0.0,12.0,60.0,178.0,33.0,1.0
384662,1.625481,-1.404326,0.066764,0.49758,-1.36818,0.312188,0.0,12.0,60.0,178.0,33.0,1.0
384663,1.608832,-1.397544,0.04192,-0.169047,-1.52725,0.229865,0.0,12.0,60.0,178.0,33.0,1.0
384664,1.67503,-1.381923,0.118086,-0.455966,-1.313714,0.069884,0.0,12.0,60.0,178.0,33.0,1.0
384665,1.802175,-1.361549,0.282252,-0.6861149999999999,-0.448448,-0.5674359999999999,0.0,12.0,60.0,178.0,33.0,1.0
384666,1.828196,-1.339145,0.302523,0.270077,1.825189,0.048356,0.0,12.0,60.0,178.0,33.0,1.0
384667,1.765386,-1.318782,0.200367,0.247448,1.830065,0.058583,0.0,12.0,60.0,178.0,33.0,1.0
384668,1.7510279999999998,-1.313498,0.130198,0.420537,-0.253336,-0.161442,0.0,12.0,60.0,178.0,33.0,1.0
384669,1.756925,-1.305688,0.100888,0.873828,0.028207,-0.406303,0.0,12.0,60.0,178.0,33.0,1.0
384670,1.746389,-1.30203,0.081492,0.800201,0.463757,0.034425,0.0,12.0,60.0,178.0,33.0,1.0
384671,1.769912,-1.296699,0.082799,0.44556,-0.062035,-0.082606,0.0,12.0,60.0,178.0,33.0,1.0
384672,1.754521,-1.290187,0.052644,0.480418,-0.040309,-0.30659000000000003,0.0,12.0,60.0,178.0,33.0,1.0
384673,1.684834,-1.278693,-0.023972,0.420046,0.049684,-0.138434,0.0,12.0,60.0,178.0,33.0,1.0
384674,1.585847,-1.254962,-0.13788499999999998,0.262633,0.097161,-0.16486099999999998,0.0,12.0,60.0,178.0,33.0,1.0
384675,1.460077,-1.213389,-0.278349,0.056785,0.513282,-0.267208,0.0,12.0,60.0,178.0,33.0,1.0
384676,1.342699,-1.155139,-0.389235,0.163957,1.177327,-0.344745,0.0,12.0,60.0,178.0,33.0,1.0
384677,1.263715,-1.102036,-0.446312,0.004571,1.037864,0.231593,0.0,12.0,60.0,178.0,33.0,1.0
384678,1.219381,-1.0675059999999998,-0.474573,-0.160563,0.5000680000000001,0.477393,0.0,12.0,60.0,178.0,33.0,1.0
384679,1.209251,-1.050168,-0.497337,-0.8069069999999999,-0.08731,-0.048052,0.0,12.0,60.0,178.0,33.0,1.0
384680,1.231941,-1.055696,-0.501438,-0.372762,0.321575,-0.084786,0.0,12.0,60.0,178.0,33.0,1.0
384681,1.26642,-1.079243,-0.493324,-0.106057,0.022818,-0.018976,0.0,12.0,60.0,178.0,33.0,1.0
384682,1.302294,-1.119591,-0.479476,-0.013025,-0.103505,-0.037475,0.0,12.0,60.0,178.0,33.0,1.0
384683,1.339958,-1.170773,-0.455487,-0.001966,-0.356843,-0.21159,0.0,12.0,60.0,178.0,33.0,1.0
384684,1.38369,-1.232215,-0.406437,0.148497,-0.20699,-0.316406,0.0,12.0,60.0,178.0,33.0,1.0
384685,1.416132,-1.295793,-0.344188,0.259124,-0.197974,-0.30842,0.0,12.0,60.0,178.0,33.0,1.0
384686,1.45174,-1.349831,-0.262873,0.417346,-0.588403,-0.195283,0.0,12.0,60.0,178.0,33.0,1.0
384687,1.52861,-1.385183,-0.147806,0.283211,-0.8845719999999999,-0.163421,0.0,12.0,60.0,178.0,33.0,1.0
384688,1.615486,-1.410717,-0.02796,0.243038,-0.969179,-0.187982,0.0,12.0,60.0,178.0,33.0,1.0
384689,1.601089,-1.430706,-0.000377,0.080579,-1.279663,0.099104,0.0,12.0,60.0,178.0,33.0,1.0
384690,1.542225,-1.438798,-0.013669999999999998,0.200889,-1.374632,0.480215,0.0,12.0,60.0,178.0,33.0,1.0
384691,1.6110520000000002,-1.43346,0.082461,0.204429,-1.407317,0.5417930000000001,0.0,12.0,60.0,178.0,33.0,1.0
384692,1.779425,-1.409476,0.25427,-0.333968,-0.486986,-0.258987,0.0,12.0,60.0,178.0,33.0,1.0
384693,1.826962,-1.38498,0.311447,-0.054024,1.477816,0.192818,0.0,12.0,60.0,178.0,33.0,1.0
384694,1.865261,-1.373317,0.324474,-0.063057,1.480037,0.182687,0.0,12.0,60.0,178.0,33.0,1.0
384695,1.879282,-1.369824,0.301331,0.258287,1.4698950000000002,0.172963,0.0,12.0,60.0,178.0,33.0,1.0
384696,1.898009,-1.366447,0.287032,1.0631469999999998,-0.075034,-0.29944,0.0,12.0,60.0,178.0,33.0,1.0
384697,1.848578,-1.3592540000000002,0.207921,1.278014,-0.213334,-0.6205470000000001,0.0,12.0,60.0,178.0,33.0,1.0
384698,1.804215,-1.359504,0.171269,0.208972,0.169212,0.18129,0.0,12.0,60.0,178.0,33.0,1.0
384699,1.824433,-1.362066,0.205229,0.231265,0.159019,0.30018,0.0,12.0,60.0,178.0,33.0,1.0
384700,1.876489,-1.360192,0.261489,0.215602,0.111573,0.269823,0.0,12.0,60.0,178.0,33.0,1.0
384701,1.86732,-1.351529,0.22027,0.323807,0.32542600000000005,-0.290542,0.0,12.0,60.0,178.0,33.0,1.0
384702,1.767573,-1.326554,0.08380599999999999,0.452083,0.287248,-0.534733,0.0,12.0,60.0,178.0,33.0,1.0
384703,1.613499,-1.282072,-0.093116,0.409174,0.418437,-0.416513,0.0,12.0,60.0,178.0,33.0,1.0
384704,1.439273,-1.232492,-0.248324,0.087003,0.89149,-0.140878,0.0,12.0,60.0,178.0,33.0,1.0
384705,1.301821,-1.192373,-0.36188,-0.210611,0.4324310000000001,0.290195,0.0,12.0,60.0,178.0,33.0,1.0
384706,1.233967,-1.16666,-0.424863,-0.225568,0.442237,0.321974,0.0,12.0,60.0,178.0,33.0,1.0
384707,1.216311,-1.15373,-0.459518,-0.7742060000000001,0.276164,-0.043569,0.0,12.0,60.0,178.0,33.0,1.0
384708,1.22589,-1.158346,-0.475556,-0.146544,0.260678,-0.054655,0.0,12.0,60.0,178.0,33.0,1.0
384709,1.253999,-1.174448,-0.471396,0.066636,0.126779,-0.03707,0.0,12.0,60.0,178.0,33.0,1.0
384710,1.279925,-1.201165,-0.461644,0.187602,-0.186733,-0.028856,0.0,12.0,60.0,178.0,33.0,1.0
384711,1.296454,-1.238118,-0.450642,-0.049523000000000005,-0.50288,-0.252639,0.0,12.0,60.0,178.0,33.0,1.0
384712,1.303639,-1.288891,-0.433496,-0.022275,-0.543169,-0.27452600000000005,0.0,12.0,60.0,178.0,33.0,1.0
384713,1.295783,-1.351788,-0.415836,0.223974,-0.33434400000000003,-0.235712,0.0,12.0,60.0,178.0,33.0,1.0
384714,1.3200459999999998,-1.41066,-0.348075,0.523255,-0.26223,-0.080557,0.0,12.0,60.0,178.0,33.0,1.0
384715,1.446689,-1.443107,-0.182101,0.551365,-0.266883,-0.104357,0.0,12.0,60.0,178.0,33.0,1.0
384716,1.582646,-1.4496950000000002,-0.029209,-0.050596,-0.6456,-0.173489,0.0,12.0,60.0,178.0,33.0,1.0
384717,1.607912,-1.453588,0.00959,-0.128109,-0.8546959999999999,-0.116887,0.0,12.0,60.0,178.0,33.0,1.0
384718,1.526593,-1.462491,-0.049381,-0.06502000000000001,-0.993866,0.077254,0.0,12.0,60.0,178.0,33.0,1.0
384719,1.380406,-1.468909,-0.175877,0.17920899999999998,-1.518358,0.402833,0.0,12.0,60.0,178.0,33.0,1.0
384720,1.398729,-1.470472,-0.143893,0.149353,-1.489051,0.163613,0.0,12.0,60.0,178.0,33.0,1.0
384721,1.6483720000000002,-1.458012,0.122461,0.080829,-1.115458,0.103707,0.0,12.0,60.0,178.0,33.0,1.0
384722,1.847097,-1.431551,0.334075,0.185292,1.02567,0.040207,0.0,12.0,60.0,178.0,33.0,1.0
384723,1.902962,-1.409811,0.367738,0.196083,1.976126,-0.414034,0.0,12.0,60.0,178.0,33.0,1.0
384724,1.917152,-1.410338,0.354623,0.000994,1.510084,0.152754,0.0,12.0,60.0,178.0,33.0,1.0
384725,2.074184,-1.42477,0.517777,0.880401,0.428886,-0.142205,0.0,12.0,60.0,178.0,33.0,1.0
384726,2.1238330000000003,-1.430624,0.5833729999999999,1.636149,-0.2486,-0.422041,0.0,12.0,60.0,178.0,33.0,1.0
384727,2.030738,-1.440544,0.508228,1.531245,-0.268369,-0.14640699999999998,0.0,12.0,60.0,178.0,33.0,1.0
384728,1.931407,-1.45315,0.443373,0.700833,0.128891,-0.056498,0.0,12.0,60.0,178.0,33.0,1.0
384729,1.828333,-1.461037,0.377291,0.461709,-0.029185000000000006,-0.06286599999999999,0.0,12.0,60.0,178.0,33.0,1.0
384730,1.646628,-1.4579950000000002,0.20542800000000006,0.315749,-0.224586,-0.107067,0.0,12.0,60.0,178.0,33.0,1.0
384731,1.365809,-1.422987,-0.06905,0.250056,-0.034276999999999995,0.03089,0.0,12.0,60.0,178.0,33.0,1.0
384732,1.203502,-1.359202,-0.215374,0.168472,0.471186,0.16994,0.0,12.0,60.0,178.0,33.0,1.0
384733,1.137522,-1.283328,-0.249819,0.141394,1.523076,0.66281,0.0,12.0,60.0,178.0,33.0,1.0
384734,1.171373,-1.217195,-0.191954,0.092027,3.218698,0.5025649999999999,0.0,12.0,60.0,178.0,33.0,1.0
384735,1.335482,-1.187729,-0.043333,-0.122737,1.060164,0.066008,0.0,12.0,60.0,178.0,33.0,1.0
384736,1.447203,-1.144776,0.067739,0.264621,0.22175300000000006,-0.602803,0.0,12.0,60.0,178.0,33.0,1.0
384737,1.469099,-1.096957,0.140111,-0.036203,0.463113,-0.101259,0.0,12.0,60.0,178.0,33.0,1.0
384738,1.446505,-1.0571549999999998,0.188236,-0.053077,0.324977,-0.140778,0.0,12.0,60.0,178.0,33.0,1.0
384739,1.409044,-1.027226,0.228401,-0.109743,0.203489,-0.069875,0.0,12.0,60.0,178.0,33.0,1.0
384740,1.370638,-1.011534,0.260869,-0.447423,-0.1229,0.107212,0.0,12.0,60.0,178.0,33.0,1.0
384741,1.327925,-1.0097,0.281556,-0.6397229999999999,-0.277535,0.234245,0.0,12.0,60.0,178.0,33.0,1.0
384742,1.283886,-1.016041,0.297055,-0.715511,-0.277748,0.267865,0.0,12.0,60.0,178.0,33.0,1.0
384743,1.248872,-1.030518,0.314173,-0.801163,-0.6112890000000001,0.255104,0.0,12.0,60.0,178.0,33.0,1.0
384744,1.225695,-1.053788,0.3316,-0.634813,-0.749001,0.230259,0.0,12.0,60.0,178.0,33.0,1.0
384745,1.222361,-1.087548,0.358942,-0.498086,-0.824257,0.168991,0.0,12.0,60.0,178.0,33.0,1.0
384746,1.247391,-1.133967,0.40821,-0.180503,-0.7920689999999999,0.049472,0.0,12.0,60.0,178.0,33.0,1.0
384747,1.274926,-1.1857719999999998,0.454287,0.21736,-0.344438,-0.021474,0.0,12.0,60.0,178.0,33.0,1.0
384748,1.219242,-1.212979,0.435008,0.801265,0.546231,-0.505497,0.0,12.0,60.0,178.0,33.0,1.0
384749,1.125402,-1.191118,0.406849,1.005189,1.020099,-0.396319,0.0,12.0,60.0,178.0,33.0,1.0
384750,1.119213,-1.158665,0.442362,0.5373020000000001,-0.042429,0.277552,0.0,12.0,60.0,178.0,33.0,1.0
384751,1.154613,-1.12965,0.48031,0.488613,-0.336819,0.356847,0.0,12.0,60.0,178.0,33.0,1.0
384752,1.215954,-1.112234,0.534317,-0.116355,-0.07015199999999999,0.041629,0.0,12.0,60.0,178.0,33.0,1.0
384753,1.276151,-1.117526,0.6014430000000001,-0.453866,1.887556,-0.445084,0.0,12.0,60.0,178.0,33.0,1.0
384754,1.237414,-1.118298,0.580326,-0.44797,1.887218,-0.429178,0.0,12.0,60.0,178.0,33.0,1.0
384755,1.201671,-1.114867,0.558268,-0.440266,-0.342005,0.506726,0.0,12.0,60.0,178.0,33.0,1.0
384756,1.184256,-1.121721,0.538188,-0.746868,-0.300629,0.307824,0.0,12.0,60.0,178.0,33.0,1.0
384757,1.146957,-1.141134,0.502462,-0.705885,-0.252368,0.55962,0.0,12.0,60.0,178.0,33.0,1.0
384758,1.09565,-1.176908,0.472509,-0.223144,0.307686,0.670575,0.0,12.0,60.0,178.0,33.0,1.0
384759,1.0245030000000002,-1.215741,0.460125,0.25356,0.386805,0.59575,0.0,12.0,60.0,178.0,33.0,1.0
384760,1.0043030000000002,-1.2526469999999998,0.515659,0.370813,0.268537,0.5201520000000001,0.0,12.0,60.0,178.0,33.0,1.0
384761,1.096504,-1.279289,0.652181,0.05715700000000001,-0.016069999999999997,-0.006382,0.0,12.0,60.0,178.0,33.0,1.0
384762,1.181332,-1.287472,0.75683,-0.305189,0.094159,-0.746904,0.0,12.0,60.0,178.0,33.0,1.0
384763,1.166158,-1.29448,0.785849,-0.344355,0.064453,-0.398491,0.0,12.0,60.0,178.0,33.0,1.0
384764,1.166883,-1.308494,0.829468,-0.205987,-0.171896,0.187296,0.0,12.0,60.0,178.0,33.0,1.0
384765,1.215908,-1.326144,0.905936,-0.160295,-0.211219,0.033885000000000005,0.0,12.0,60.0,178.0,33.0,1.0
384766,1.28194,-1.346103,0.989977,-0.159729,-0.050836,-0.096692,0.0,12.0,60.0,178.0,33.0,1.0
384767,1.343798,-1.369651,1.071704,-0.029092000000000007,-0.144847,-0.045753,0.0,12.0,60.0,178.0,33.0,1.0
384768,1.400796,-1.3943370000000002,1.149502,0.032266,-0.189214,0.016116,0.0,12.0,60.0,178.0,33.0,1.0
384769,1.46955,-1.4173129999999998,1.233617,0.053412,-0.20995500000000006,0.066842,0.0,12.0,60.0,178.0,33.0,1.0
384770,1.58169,-1.437635,1.360136,0.12846300000000002,-0.18179,0.06778300000000001,0.0,12.0,60.0,178.0,33.0,1.0
384771,1.788391,-1.452345,1.58969,0.232357,-0.050305,-0.070458,0.0,12.0,60.0,178.0,33.0,1.0
384772,2.07144,-1.453979,1.909763,0.284526,-0.003866,-0.145637,0.0,12.0,60.0,178.0,33.0,1.0
384773,2.301903,-1.448555,2.1848810000000003,0.4198520000000001,0.033875,-0.241127,0.0,12.0,60.0,178.0,33.0,1.0
384774,2.410889,-1.445165,2.326572,0.61436,0.04937,-0.217514,0.0,12.0,60.0,178.0,33.0,1.0
384775,2.379166,-1.444518,2.315646,0.61657,-0.0013,-0.158776,0.0,12.0,60.0,178.0,33.0,1.0
384776,2.222559,-1.448715,2.184479,0.4834350000000001,-0.062687,0.017134,0.0,12.0,60.0,178.0,33.0,1.0
384777,1.921824,-1.449941,1.919372,0.538062,-0.153076,0.298107,0.0,12.0,60.0,178.0,33.0,1.0
384778,1.58214,-1.424241,1.612774,0.5493899999999999,-0.018836,0.417884,0.0,12.0,60.0,178.0,33.0,1.0
384779,1.379722,-1.368442,1.41314,0.278146,0.014499,0.500628,0.0,12.0,60.0,178.0,33.0,1.0
384780,1.298269,-1.295636,1.3170190000000002,-0.063314,0.428762,-0.085516,0.0,12.0,60.0,178.0,33.0,1.0
384781,1.2394040000000002,-1.230318,1.262917,-0.199946,0.809663,-0.468761,0.0,12.0,60.0,178.0,33.0,1.0
384782,1.193139,-1.1842629999999998,1.240385,-0.184346,0.493059,0.677825,0.0,12.0,60.0,178.0,33.0,1.0
384783,1.184271,-1.152131,1.247371,-0.100878,0.103458,0.303612,0.0,12.0,60.0,178.0,33.0,1.0
384784,1.19382,-1.123597,1.274964,-0.126406,0.115428,0.309545,0.0,12.0,60.0,178.0,33.0,1.0
384785,1.198723,-1.087019,1.314947,0.26542,-0.205801,0.148921,0.0,12.0,60.0,178.0,33.0,1.0
384786,1.202067,-1.0378459999999998,1.36512,0.227905,-0.063872,0.308598,0.0,12.0,60.0,178.0,33.0,1.0
384787,1.201338,-0.989837,1.4234,0.083242,0.14673,0.356084,0.0,12.0,60.0,178.0,33.0,1.0
384788,1.178829,-0.947898,1.483244,-0.060063,0.241123,0.364582,0.0,12.0,60.0,178.0,33.0,1.0
384789,1.139168,-0.913361,1.543499,-0.23781,0.188998,0.409303,0.0,12.0,60.0,178.0,33.0,1.0
384790,1.098914,-0.8875959999999999,1.602549,-0.316269,0.179598,0.450499,0.0,12.0,60.0,178.0,33.0,1.0
384791,1.06606,-0.8715379999999999,1.65878,-0.391755,0.176498,0.351613,0.0,12.0,60.0,178.0,33.0,1.0
384792,1.039127,-0.8652270000000001,1.70985,-0.342781,0.127643,0.338428,0.0,12.0,60.0,178.0,33.0,1.0
384793,1.018958,-0.8665639999999999,1.7553,-0.382609,0.060782,0.321893,0.0,12.0,60.0,178.0,33.0,1.0
384794,1.006714,-0.874719,1.798604,-0.454089,0.003847,0.284879,0.0,12.0,60.0,178.0,33.0,1.0
384795,0.998771,-0.8893969999999999,1.839154,-0.492465,-0.037541000000000005,0.254748,0.0,12.0,60.0,178.0,33.0,1.0
384796,0.992387,-0.910621,1.874369,-0.480965,-0.094465,0.243036,0.0,12.0,60.0,178.0,33.0,1.0
384797,0.989902,-0.939204,1.905687,-0.360463,-0.175451,0.296147,0.0,12.0,60.0,178.0,33.0,1.0
384798,0.99582,-0.974689,1.940614,-0.079104,-0.135496,-0.065219,0.0,12.0,60.0,178.0,33.0,1.0
384799,0.993344,-1.0101870000000002,1.971187,0.035226,-0.105888,-0.222629,0.0,12.0,60.0,178.0,33.0,1.0
384800,0.983695,-1.038691,1.98917,0.37772,0.022811,-0.115517,0.0,12.0,60.0,178.0,33.0,1.0
384801,0.982311,-1.050591,1.998145,0.8463709999999999,0.311909,0.15170899999999998,0.0,12.0,60.0,178.0,33.0,1.0
384802,0.998131,-1.042048,2.031026,0.717221,0.25316900000000003,0.190279,0.0,12.0,60.0,178.0,33.0,1.0
384803,1.021449,-1.027901,2.082048,0.360683,-0.080261,0.145304,0.0,12.0,60.0,178.0,33.0,1.0
384804,1.063646,-1.018724,2.142527,0.164166,0.662721,0.196629,0.0,12.0,60.0,178.0,33.0,1.0
384805,1.113475,-1.023353,2.196912,-0.38068,1.23771,0.199842,0.0,12.0,60.0,178.0,33.0,1.0
384806,1.1419549999999998,-1.026397,2.237621,-0.733118,0.811615,-0.050701,0.0,12.0,60.0,178.0,33.0,1.0
384807,1.138379,-1.023521,2.263321,-0.477971,-0.210253,0.209581,0.0,12.0,60.0,178.0,33.0,1.0
384808,1.128424,-1.029179,2.268101,-0.524564,-0.39043,0.275114,0.0,12.0,60.0,178.0,33.0,1.0
384809,1.100398,-1.040178,2.246328,-0.600282,-0.184974,0.437788,0.0,12.0,60.0,178.0,33.0,1.0
384810,1.062683,-1.061852,2.214321,-0.5441779999999999,0.134599,0.6150979999999999,0.0,12.0,60.0,178.0,33.0,1.0
384811,1.023138,-1.092427,2.190203,-0.362942,0.383402,0.497896,0.0,12.0,60.0,178.0,33.0,1.0
384812,0.984281,-1.126238,2.193951,-0.101344,0.350938,0.374661,0.0,12.0,60.0,178.0,33.0,1.0
384813,0.996491,-1.1628889999999998,2.241251,0.120815,0.187256,0.397307,0.0,12.0,60.0,178.0,33.0,1.0
384814,1.064746,-1.186138,2.305349,0.190747,0.059233,0.104997,0.0,12.0,60.0,178.0,33.0,1.0
384815,1.094629,-1.194723,2.335534,-0.08592899999999999,0.018739,-0.145087,0.0,12.0,60.0,178.0,33.0,1.0
384816,1.096443,-1.2045860000000002,2.349464,-0.177406,-0.058249,0.205087,0.0,12.0,60.0,178.0,33.0,1.0
384817,1.114265,-1.218305,2.380109,-0.168285,-0.098275,0.229108,0.0,12.0,60.0,178.0,33.0,1.0
384818,1.14127,-1.23312,2.418277,-0.094145,-0.12294,0.090383,0.0,12.0,60.0,178.0,33.0,1.0
384819,1.165793,-1.246384,2.451143,-0.065706,-0.118035,0.026439,0.0,12.0,60.0,178.0,33.0,1.0
384820,1.190138,-1.256849,2.479164,-0.057833,-0.133358,0.01799,0.0,12.0,60.0,178.0,33.0,1.0
384821,1.211111,-1.264399,2.500248,-0.090403,-0.268276,0.02767,0.0,12.0,60.0,178.0,33.0,1.0
384822,1.213658,-1.268306,2.50644,-0.115439,-0.310066,0.066954,0.0,12.0,60.0,178.0,33.0,1.0
384823,1.212205,-1.2713020000000002,2.503171,-0.110364,-0.339855,0.089456,0.0,12.0,60.0,178.0,33.0,1.0
384824,1.217743,-1.27127,2.49624,-0.022766,-0.494066,0.035933,0.0,12.0,60.0,178.0,33.0,1.0
384825,1.200521,-1.264535,2.472989,-0.055785,-0.634879,-0.174608,0.0,12.0,60.0,178.0,33.0,1.0
384826,1.16761,-1.25386,2.435389,-0.061389,-0.6316069999999999,-0.161433,0.0,12.0,60.0,178.0,33.0,1.0
384827,1.148177,-1.247743,2.405298,-0.17533900000000002,-0.366468,0.241592,0.0,12.0,60.0,178.0,33.0,1.0
384828,1.144265,-1.244149,2.392291,0.059711,-0.197062,0.1128,0.0,12.0,60.0,178.0,33.0,1.0
384829,1.155951,-1.2408,2.383263,0.055279,-0.195983,0.110655,0.0,12.0,60.0,178.0,33.0,1.0
384830,1.179577,-1.240299,2.384432,0.256673,0.085842,0.121616,0.0,12.0,60.0,178.0,33.0,1.0
384831,1.201276,-1.244037,2.405046,0.378284,-0.025945,0.239853,0.0,12.0,60.0,178.0,33.0,1.0
384832,1.215651,-1.236668,2.413709,0.370112,-0.023554,0.237963,0.0,12.0,60.0,178.0,33.0,1.0
384833,1.1952459999999998,-1.201347,2.370432,0.171979,0.391097,-0.270115,0.0,12.0,60.0,178.0,33.0,1.0
384834,1.126789,-1.132932,2.282471,0.114459,1.46075,-0.424572,0.0,12.0,60.0,178.0,33.0,1.0
384835,1.070077,-1.054949,2.243737,0.064635,1.496534,-0.36991,0.0,12.0,60.0,178.0,33.0,1.0
384836,1.054603,-0.997113,2.240373,0.0792,1.200818,0.564413,0.0,12.0,60.0,178.0,33.0,1.0
384837,1.081101,-0.960781,2.262846,0.043066,0.698763,0.065903,0.0,12.0,60.0,178.0,33.0,1.0
384838,1.11114,-0.938983,2.294006,0.019313,0.711444,0.058463,0.0,12.0,60.0,178.0,33.0,1.0
384839,1.134523,-0.931584,2.3253060000000003,-0.254959,0.040879,0.08455800000000001,0.0,12.0,60.0,178.0,33.0,1.0
384840,1.157951,-0.937786,2.355058,-0.505368,-0.194174,0.112821,0.0,12.0,60.0,178.0,33.0,1.0
384841,1.178201,-0.95682,2.381494,-0.495785,-0.205288,0.095888,0.0,12.0,60.0,178.0,33.0,1.0
384842,1.192834,-0.990014,2.405764,-0.259778,-0.27110700000000004,-0.065928,0.0,12.0,60.0,178.0,33.0,1.0
384843,1.187785,-1.037512,2.419432,-0.15900799999999998,-0.29147,-0.075797,0.0,12.0,60.0,178.0,33.0,1.0
384844,1.144641,-1.091168,2.409271,-0.062337,-0.259756,-0.047641,0.0,12.0,60.0,178.0,33.0,1.0
384845,1.069447,-1.138027,2.379207,-0.031495,-0.193498,0.087864,0.0,12.0,60.0,178.0,33.0,1.0
384846,1.01209,-1.170779,2.372527,-0.211207,-0.40578,0.199747,0.0,12.0,60.0,178.0,33.0,1.0
384847,0.999246,-1.1964860000000002,2.402736,-0.319091,-0.4653060000000001,0.19288,0.0,12.0,60.0,178.0,33.0,1.0
384848,0.998626,-1.222559,2.430164,-0.532808,-0.5415989999999999,-0.022254,0.0,12.0,60.0,178.0,33.0,1.0
384849,0.950588,-1.245175,2.409956,-0.4311930000000001,-0.733066,-0.179803,0.0,12.0,60.0,178.0,33.0,1.0
384850,0.870592,-1.262145,2.364888,0.023951,-1.045273,0.106274,0.0,12.0,60.0,178.0,33.0,1.0
384851,0.810008,-1.270602,2.3391330000000004,0.482822,-1.471606,0.506888,0.0,12.0,60.0,178.0,33.0,1.0
384852,0.813872,-1.268524,2.362641,0.145739,-1.125637,-0.287698,0.0,12.0,60.0,178.0,33.0,1.0
384853,0.826017,-1.2507700000000002,2.401401,-0.031646,-0.706704,-0.125443,0.0,12.0,60.0,178.0,33.0,1.0
384854,0.8856379999999999,-1.229076,2.477138,-0.13239800000000002,0.193913,0.700238,0.0,12.0,60.0,178.0,33.0,1.0
384855,0.990694,-1.211803,2.562779,0.027822000000000003,1.525297,0.481229,0.0,12.0,60.0,178.0,33.0,1.0
384856,1.104464,-1.191989,2.594352,0.331624,0.975129,-0.192252,0.0,12.0,60.0,178.0,33.0,1.0
384857,1.133578,-1.1619270000000002,2.576584,0.769335,0.949037,-0.541532,0.0,12.0,60.0,178.0,33.0,1.0
384858,1.122873,-1.136188,2.548577,0.25305700000000003,0.024911000000000003,0.31776,0.0,12.0,60.0,178.0,33.0,1.0
384859,1.101255,-1.092574,2.513787,0.373575,-0.305737,0.186256,0.0,12.0,60.0,178.0,33.0,1.0
384860,1.061248,-1.017624,2.4683200000000003,0.469184,0.61859,0.018862,0.0,12.0,60.0,178.0,33.0,1.0
384861,1.038381,-0.920829,2.450837,0.501083,1.094247,0.007367,0.0,12.0,60.0,178.0,33.0,1.0
384862,1.021966,-0.84298,2.448848,0.550672,2.50421,0.425813,0.0,12.0,60.0,178.0,33.0,1.0
384863,1.019405,-0.8019970000000001,2.4525490000000003,-1.133595,1.159626,-0.334406,0.0,12.0,60.0,178.0,33.0,1.0
384864,1.045532,-0.799084,2.469985,-0.279696,0.762988,-0.201279,0.0,12.0,60.0,178.0,33.0,1.0
384865,1.082657,-0.8169529999999999,2.486084,-0.205441,0.6427930000000001,-0.07935199999999999,0.0,12.0,60.0,178.0,33.0,1.0
384866,1.109994,-0.847937,2.491512,-0.080138,-0.159585,0.21222,0.0,12.0,60.0,178.0,33.0,1.0
384867,1.133039,-0.890076,2.496502,-0.378263,-0.5036510000000001,0.028048000000000003,0.0,12.0,60.0,178.0,33.0,1.0
384868,1.145361,-0.941332,2.512963,-0.40769,-0.575952,-0.099636,0.0,12.0,60.0,178.0,33.0,1.0
384869,1.146819,-1.002586,2.530652,-0.329509,-0.391022,-0.09648,0.0,12.0,60.0,178.0,33.0,1.0
384870,1.122875,-1.06747,2.533039,-0.140716,-0.337378,-0.119183,0.0,12.0,60.0,178.0,33.0,1.0
384871,1.074818,-1.127006,2.520777,0.031282,-0.422265,-0.074297,0.0,12.0,60.0,178.0,33.0,1.0
384872,1.029273,-1.176619,2.509196,0.320533,-0.489048,0.188155,0.0,12.0,60.0,178.0,33.0,1.0
384873,1.009821,-1.208342,2.5244880000000003,0.193279,-0.384294,0.133761,0.0,12.0,60.0,178.0,33.0,1.0
384874,1.004604,-1.218734,2.555744,-0.017884,-0.341343,-0.07166499999999999,0.0,12.0,60.0,178.0,33.0,1.0
384875,0.977003,-1.2166370000000002,2.5611740000000003,-0.30293400000000004,-0.500728,0.051746,0.0,12.0,60.0,178.0,33.0,1.0
384876,0.954099,-1.214261,2.558073,-0.14210599999999998,-0.903207,0.500149,0.0,12.0,60.0,178.0,33.0,1.0
384877,0.955165,-1.214943,2.570391,-0.112822,-1.041994,0.704188,0.0,12.0,60.0,178.0,33.0,1.0
384878,0.980438,-1.2220209999999998,2.610375,-0.409766,-1.092944,0.395356,0.0,12.0,60.0,178.0,33.0,1.0
384879,1.0024959999999998,-1.240069,2.693868,-0.5958399999999999,-0.293768,-0.238061,0.0,12.0,60.0,178.0,33.0,1.0
384880,1.040092,-1.253095,2.769689,0.270404,1.012309,0.337609,0.0,12.0,60.0,178.0,33.0,1.0
384881,1.1175389999999998,-1.240383,2.832431,0.802161,1.596114,-0.035335000000000005,0.0,12.0,60.0,178.0,33.0,1.0
384882,1.152374,-1.202249,2.835401,0.640949,1.11146,0.142486,0.0,12.0,60.0,178.0,33.0,1.0
384883,1.144424,-1.175771,2.821197,0.234499,0.542605,0.066393,0.0,12.0,60.0,178.0,33.0,1.0
384884,1.129749,-1.173427,2.806046,-0.330804,-0.22062,0.362816,0.0,12.0,60.0,178.0,33.0,1.0
384885,1.13512,-1.186653,2.803641,-0.050503,-0.15626099999999998,0.298552,0.0,12.0,60.0,178.0,33.0,1.0
384886,1.17332,-1.209206,2.82915,0.050076,0.147032,0.47835,0.0,12.0,60.0,178.0,33.0,1.0
384887,1.209807,-1.216089,2.843849,0.27722,0.283169,0.183063,0.0,12.0,60.0,178.0,33.0,1.0
384888,1.205205,-1.186661,2.792705,0.333642,-0.247405,-0.382583,0.0,12.0,60.0,178.0,33.0,1.0
384889,1.186554,-1.143552,2.740354,0.153302,0.168014,0.027349,0.0,12.0,60.0,178.0,33.0,1.0
384890,1.147633,-1.083129,2.683708,0.163422,0.787898,-0.274888,0.0,12.0,60.0,178.0,33.0,1.0
384891,1.115081,-1.018666,2.648632,0.477775,1.404252,-0.12523,0.0,12.0,60.0,178.0,33.0,1.0
384892,1.099087,-0.963854,2.628753,-0.027812,0.8923190000000001,0.343662,0.0,12.0,60.0,178.0,33.0,1.0
384893,1.105852,-0.932719,2.620892,-0.58207,0.7989,0.187025,0.0,12.0,60.0,178.0,33.0,1.0
384894,1.131724,-0.922284,2.627575,0.08277999999999999,0.661299,-0.112045,0.0,12.0,60.0,178.0,33.0,1.0
384895,1.143647,-0.923603,2.635866,0.055675,0.394161,-0.095748,0.0,12.0,60.0,178.0,33.0,1.0
384896,1.152265,-0.936947,2.646955,-0.29735300000000003,-0.091368,0.101418,0.0,12.0,60.0,178.0,33.0,1.0
384897,1.155108,-0.960758,2.657632,-0.48016,-0.374557,0.080467,0.0,12.0,60.0,178.0,33.0,1.0
384898,1.151062,-0.995836,2.6634130000000003,-0.441753,-0.440089,0.0499,0.0,12.0,60.0,178.0,33.0,1.0
384899,1.142138,-1.041022,2.661593,-0.378207,-0.4432430000000001,0.0593,0.0,12.0,60.0,178.0,33.0,1.0
384900,1.119144,-1.093157,2.64857,-0.30366,-0.371298,0.063802,0.0,12.0,60.0,178.0,33.0,1.0
384901,1.080222,-1.143641,2.634948,-0.159867,-0.100287,0.049259,0.0,12.0,60.0,178.0,33.0,1.0
384902,1.0657450000000002,-1.182417,2.652342,-0.090741,-0.053301,0.215254,0.0,12.0,60.0,178.0,33.0,1.0
384903,1.088556,-1.2091,2.691105,-0.286094,-0.220531,0.008357999999999999,0.0,12.0,60.0,178.0,33.0,1.0
384904,1.085158,-1.230422,2.7062310000000003,-0.363821,-0.367831,-0.195937,0.0,12.0,60.0,178.0,33.0,1.0
384905,1.036046,-1.2500209999999998,2.682209,0.066447,-0.996828,0.079855,0.0,12.0,60.0,178.0,33.0,1.0
384906,0.979447,-1.271273,2.651837,0.321608,-1.1540700000000002,0.175626,0.0,12.0,60.0,178.0,33.0,1.0
384907,0.954559,-1.289493,2.640739,0.476987,-1.254274,0.301906,0.0,12.0,60.0,178.0,33.0,1.0
384908,0.94425,-1.2936450000000002,2.638632,0.337264,-1.404359,0.291607,0.0,12.0,60.0,178.0,33.0,1.0
384909,0.969912,-1.28769,2.673195,0.209496,-1.217913,0.130962,0.0,12.0,60.0,178.0,33.0,1.0
384910,1.006884,-1.272382,2.738496,-0.156144,-0.3703550000000001,-0.229306,0.0,12.0,60.0,178.0,33.0,1.0
384911,1.085484,-1.260271,2.835955,0.109204,1.552649,0.13563699999999998,0.0,12.0,60.0,178.0,33.0,1.0
384912,1.1572209999999998,-1.24374,2.873175,0.16824,1.906218,-0.179947,0.0,12.0,60.0,178.0,33.0,1.0
384913,1.173659,-1.2158209999999998,2.822446,0.040271,1.07977,0.163588,0.0,12.0,60.0,178.0,33.0,1.0
384914,1.159494,-1.195257,2.792312,0.552158,0.122379,-0.451983,0.0,12.0,60.0,178.0,33.0,1.0
384915,1.147536,-1.179237,2.755923,0.292724,0.241991,0.182946,0.0,12.0,60.0,178.0,33.0,1.0
384916,1.140656,-1.179958,2.740426,-0.06592,0.507035,0.271148,0.0,12.0,60.0,178.0,33.0,1.0
384917,1.153469,-1.1913200000000002,2.757145,0.143772,0.013341,0.520304,0.0,12.0,60.0,178.0,33.0,1.0
384918,1.175329,-1.18252,2.74685,0.436355,-0.344584,0.22685500000000006,0.0,12.0,60.0,178.0,33.0,1.0
384919,1.195267,-1.134093,2.717817,0.442815,-0.08028400000000001,-0.044158,0.0,12.0,60.0,178.0,33.0,1.0
384920,1.181791,-1.068106,2.685753,0.338778,1.7558049999999998,-0.5084850000000001,0.0,12.0,60.0,178.0,33.0,1.0
384921,1.136314,-1.00699,2.653376,0.138632,1.546878,0.259574,0.0,12.0,60.0,178.0,33.0,1.0
384922,1.105062,-0.962256,2.632832,-0.145545,1.111295,0.221491,0.0,12.0,60.0,178.0,33.0,1.0
384923,1.099531,-0.943152,2.618804,-0.463776,0.5381670000000001,0.127789,0.0,12.0,60.0,178.0,33.0,1.0
384924,1.103008,-0.941682,2.609149,-0.26349,0.284163,0.098061,0.0,12.0,60.0,178.0,33.0,1.0
384925,1.102931,-0.951986,2.598126,-0.24061,0.165625,0.112214,0.0,12.0,60.0,178.0,33.0,1.0
384926,1.103923,-0.973641,2.588417,-0.396155,-0.153354,0.125826,0.0,12.0,60.0,178.0,33.0,1.0
384927,1.109253,-1.007855,2.584849,-0.212496,-0.294969,0.11768,0.0,12.0,60.0,178.0,33.0,1.0
384928,1.110662,-1.051775,2.5821,-0.116813,-0.4128,0.009041,0.0,12.0,60.0,178.0,33.0,1.0
384929,1.093286,-1.101005,2.575549,-0.129367,-0.267044,-0.072901,0.0,12.0,60.0,178.0,33.0,1.0
384930,1.048099,-1.154372,2.562682,-0.046171,-0.046255,-0.144157,0.0,12.0,60.0,178.0,33.0,1.0
384931,1.003173,-1.203754,2.561226,0.071312,-0.035047,-0.127202,0.0,12.0,60.0,178.0,33.0,1.0
384932,0.983624,-1.238943,2.576055,0.130329,-0.30834,0.18847,0.0,12.0,60.0,178.0,33.0,1.0
384933,0.993742,-1.256604,2.604664,-0.153346,-0.291943,0.104786,0.0,12.0,60.0,178.0,33.0,1.0
384934,1.025589,-1.264182,2.643855,-0.152412,-0.294258,0.092712,0.0,12.0,60.0,178.0,33.0,1.0
384935,1.034513,-1.269861,2.658467,-0.485398,-0.800519,-0.219603,0.0,12.0,60.0,178.0,33.0,1.0
384936,1.012621,-1.284116,2.657242,-0.084065,-0.945562,-0.07665,0.0,12.0,60.0,178.0,33.0,1.0
384937,1.004859,-1.300778,2.649568,0.666101,-1.234213,-0.016107,0.0,12.0,60.0,178.0,33.0,1.0
384938,0.997464,-1.302681,2.653938,-0.022471,-1.12368,0.13226300000000002,0.0,12.0,60.0,178.0,33.0,1.0
384939,0.971417,-1.311917,2.669457,-0.046706,-1.115817,-0.042755,0.0,12.0,60.0,178.0,33.0,1.0
384940,1.029699,-1.322948,2.763121,-0.071453,-0.996191,0.219171,0.0,12.0,60.0,178.0,33.0,1.0
384941,1.124268,-1.32123,2.883932,-0.086952,0.352941,0.388633,0.0,12.0,60.0,178.0,33.0,1.0
384942,1.24637,-1.3105440000000002,3.019305,0.269554,2.063246,0.659064,0.0,12.0,60.0,178.0,33.0,1.0
384943,1.406107,-1.303591,3.123758,0.252991,2.065059,0.6203270000000001,0.0,12.0,60.0,178.0,33.0,1.0
384944,1.4373209999999998,-1.278816,3.121209,0.803771,0.350582,-0.549555,0.0,12.0,60.0,178.0,33.0,1.0
384945,1.344561,-1.265773,3.046201,0.356059,0.193346,0.192316,0.0,12.0,60.0,178.0,33.0,1.0
384946,1.287805,-1.260645,3.001628,0.141914,0.17523,0.220671,0.0,12.0,60.0,178.0,33.0,1.0
384947,1.230402,-1.267305,2.968597,-0.122884,0.254365,0.38386,0.0,12.0,60.0,178.0,33.0,1.0
384948,1.188256,-1.280516,2.951765,0.09846,0.108731,0.357065,0.0,12.0,60.0,178.0,33.0,1.0
384949,1.192583,-1.27784,2.929827,0.061835,-0.149014,0.19434,0.0,12.0,60.0,178.0,33.0,1.0
384950,1.218078,-1.2406549999999998,2.907043,0.13776,-0.027692,-0.227219,0.0,12.0,60.0,178.0,33.0,1.0
384951,1.2035870000000002,-1.177659,2.869398,0.128709,0.532404,-0.4454,0.0,12.0,60.0,178.0,33.0,1.0
384952,1.157853,-1.120215,2.838681,0.520083,1.349852,-0.260083,0.0,12.0,60.0,178.0,33.0,1.0
384953,1.1412129999999998,-1.07708,2.83811,-0.16075699999999998,1.025046,0.114152,0.0,12.0,60.0,178.0,33.0,1.0
384954,1.149548,-1.055275,2.846151,-0.35833400000000004,0.563146,0.065412,0.0,12.0,60.0,178.0,33.0,1.0
384955,1.149123,-1.046233,2.848226,-0.302678,0.326764,0.051175,0.0,12.0,60.0,178.0,33.0,1.0
384956,1.151891,-1.041894,2.849525,-0.148757,0.110927,0.072965,0.0,12.0,60.0,178.0,33.0,1.0
384957,1.151868,-1.0433629999999998,2.8423700000000003,-0.455576,-0.08480499999999999,0.317577,0.0,12.0,60.0,178.0,33.0,1.0
384958,1.1487379999999998,-1.051996,2.833124,-0.4632020000000001,-0.301001,0.130893,0.0,12.0,60.0,178.0,33.0,1.0
384959,1.13798,-1.065778,2.821105,-0.361246,-0.277723,0.048661,0.0,12.0,60.0,178.0,33.0,1.0
384960,1.116527,-1.08536,2.801456,-0.296846,-0.40205,0.014113,0.0,12.0,60.0,178.0,33.0,1.0
384961,1.07801,-1.109346,2.770411,-0.309654,-0.5578069999999999,0.047885,0.0,12.0,60.0,178.0,33.0,1.0
384962,1.017188,-1.135624,2.731208,-0.247783,-0.955611,0.125417,0.0,12.0,60.0,178.0,33.0,1.0
384963,0.9513,-1.164356,2.695837,-0.145112,-0.969666,0.215442,0.0,12.0,60.0,178.0,33.0,1.0
384964,0.899985,-1.19374,2.673291,0.093146,-0.698322,0.269318,0.0,12.0,60.0,178.0,33.0,1.0
384965,0.896274,-1.22069,2.690983,0.418785,-0.066717,0.056826,0.0,12.0,60.0,178.0,33.0,1.0
384966,0.934691,-1.232712,2.74044,0.535826,0.125471,-0.23459,0.0,12.0,60.0,178.0,33.0,1.0
384967,0.94033,-1.220184,2.767443,0.4693310000000001,0.263886,-0.579961,0.0,12.0,60.0,178.0,33.0,1.0
384968,0.955284,-1.203026,2.80628,0.5688350000000001,0.265096,-0.520826,0.0,12.0,60.0,178.0,33.0,1.0
384969,0.991394,-1.192787,2.8536490000000003,0.293772,-0.228275,-0.289598,0.0,12.0,60.0,178.0,33.0,1.0
384970,1.033829,-1.176889,2.8916060000000003,0.091761,-0.108536,-0.225386,0.0,12.0,60.0,178.0,33.0,1.0
384971,1.116283,-1.1613870000000002,2.95415,-0.432292,0.685045,0.70555,0.0,12.0,60.0,178.0,33.0,1.0
384972,1.211588,-1.166248,3.01007,-0.5612689999999999,0.774415,0.927318,0.0,12.0,60.0,178.0,33.0,1.0
384973,1.272011,-1.19591,3.054948,-0.83521,1.180809,0.558847,0.0,12.0,60.0,178.0,33.0,1.0
384974,1.297811,-1.224187,3.092214,-0.827991,0.937827,0.563036,0.0,12.0,60.0,178.0,33.0,1.0
384975,1.291808,-1.245699,3.116587,-0.330416,0.415753,0.462085,0.0,12.0,60.0,178.0,33.0,1.0
384976,1.259251,-1.266675,3.128082,-0.285699,0.54885,0.696372,0.0,12.0,60.0,178.0,33.0,1.0
384977,1.27505,-1.295177,-3.108126,0.012024,0.622796,0.63249,0.0,12.0,60.0,178.0,33.0,1.0
384978,1.402464,-1.323769,-2.965468,0.127724,0.226493,0.252543,0.0,12.0,60.0,178.0,33.0,1.0
384979,1.597695,-1.333132,-2.777994,0.133445,0.224246,0.205247,0.0,12.0,60.0,178.0,33.0,1.0
384980,1.785038,-1.326458,-2.6298790000000003,-0.087378,-0.884299,0.025613,0.0,12.0,60.0,178.0,33.0,1.0
384981,1.897777,-1.320272,-2.555182,-0.362461,-0.074205,-0.193161,0.0,12.0,60.0,178.0,33.0,1.0
384982,1.97651,-1.320192,-2.507014,-0.511121,0.06778200000000001,-0.5040720000000001,0.0,12.0,60.0,178.0,33.0,1.0
384983,2.092628,-1.350702,-2.411438,-0.5373760000000001,-0.15619,-0.355185,0.0,12.0,60.0,178.0,33.0,1.0
384984,2.2613060000000003,-1.390596,-2.271962,0.289385,-0.341459,0.127132,0.0,12.0,60.0,178.0,33.0,1.0
384985,2.43876,-1.406628,-2.123912,0.321914,-0.34420500000000004,0.116592,0.0,12.0,60.0,178.0,33.0,1.0
384986,2.583159,-1.401351,-2.011976,0.387727,-0.389563,0.052912,0.0,12.0,60.0,178.0,33.0,1.0
384987,2.633937,-1.395018,-1.983815,0.313652,-0.204973,-0.249783,0.0,12.0,60.0,178.0,33.0,1.0
384988,2.619077,-1.397977,-2.030378,0.365045,-0.201168,-0.129126,0.0,12.0,60.0,178.0,33.0,1.0
384989,2.587539,-1.4111360000000002,-2.080959,0.567078,0.328454,0.072649,0.0,12.0,60.0,178.0,33.0,1.0
384990,2.58619,-1.412766,-2.080829,0.817928,0.180124,0.480731,0.0,12.0,60.0,178.0,33.0,1.0
384991,2.617264,-1.3901370000000002,-2.063615,0.6480819999999999,0.06223400000000001,0.387709,0.0,12.0,60.0,178.0,33.0,1.0
384992,2.606872,-1.376115,-2.0729580000000003,0.309417,0.57602,-0.533556,0.0,12.0,60.0,178.0,33.0,1.0
384993,2.492161,-1.373313,-2.19456,0.448624,0.437802,-0.030236,0.0,12.0,60.0,178.0,33.0,1.0
384994,2.2962290000000003,-1.366692,-2.400371,0.452288,0.332677,0.020002,0.0,12.0,60.0,178.0,33.0,1.0
384995,2.058855,-1.35372,-2.652142,-0.011288,0.507447,0.001235,0.0,12.0,60.0,178.0,33.0,1.0
384996,1.836716,-1.3436629999999998,-2.898832,-0.219756,0.22388,-0.017486,0.0,12.0,60.0,178.0,33.0,1.0
384997,1.668712,-1.326431,-3.096663,-0.409239,-0.048706,-0.057479,0.0,12.0,60.0,178.0,33.0,1.0
384998,1.54016,-1.288987,3.03095,-0.818294,0.374392,0.146427,0.0,12.0,60.0,178.0,33.0,1.0
384999,1.438809,-1.258386,2.916455,-0.41119,0.8330879999999999,0.171612,0.0,12.0,60.0,178.0,33.0,1.0
385000,1.374339,-1.244216,2.8326740000000004,-0.282322,0.589919,0.088528,0.0,12.0,60.0,178.0,33.0,1.0
385001,1.328093,-1.219201,2.7466,0.082928,-0.06973,-0.035566,0.0,12.0,60.0,178.0,33.0,1.0
385002,1.2911,-1.180059,2.694629,-0.061038,-0.05001,0.241251,0.0,12.0,60.0,178.0,33.0,1.0
385003,1.281872,-1.130622,2.67437,-0.176876,-0.029327,0.379794,0.0,12.0,60.0,178.0,33.0,1.0
385004,1.306593,-1.07951,2.678579,-0.407823,-0.014921,0.230936,0.0,12.0,60.0,178.0,33.0,1.0
385005,1.319634,-1.038277,2.688716,-0.586328,-0.084675,-0.025723000000000003,0.0,12.0,60.0,178.0,33.0,1.0
385006,1.3152620000000002,-1.006653,2.694685,-0.5719350000000001,-0.154801,0.059328,0.0,12.0,60.0,178.0,33.0,1.0
385007,1.303142,-0.984763,2.694381,-0.472129,-0.262371,0.062023,0.0,12.0,60.0,178.0,33.0,1.0
385008,1.270647,-0.972284,2.677537,-0.590619,-0.471759,0.217955,0.0,12.0,60.0,178.0,33.0,1.0
385009,1.243909,-0.974953,2.661283,-0.4608350000000001,-0.278619,0.257654,0.0,12.0,60.0,178.0,33.0,1.0
385010,1.234671,-0.99616,2.65506,-0.235719,-0.141163,0.263363,0.0,12.0,60.0,178.0,33.0,1.0
385011,1.255524,-1.036063,2.661536,-0.2078,-0.096641,0.177029,0.0,12.0,60.0,178.0,33.0,1.0
385012,1.278226,-1.095651,2.659798,-0.065432,0.258693,-0.055348,0.0,12.0,60.0,178.0,33.0,1.0
385013,1.272817,-1.13667,2.643092,0.446025,0.543491,-0.16810899999999998,0.0,12.0,60.0,178.0,33.0,1.0
385014,1.279279,-1.132035,2.630157,0.761555,0.371608,-0.023415,0.0,12.0,60.0,178.0,33.0,1.0
385015,1.3257709999999998,-1.108435,2.642336,0.587227,0.4557520000000001,-0.059292,0.0,12.0,60.0,178.0,33.0,1.0
385016,1.374083,-1.0918709999999998,2.662237,0.104054,0.21514,0.083062,0.0,12.0,60.0,178.0,33.0,1.0
385017,1.432342,-1.085248,2.698438,-0.346237,0.6818350000000001,0.119996,0.0,12.0,60.0,178.0,33.0,1.0
385018,1.447261,-1.089178,2.706551,-0.569157,0.7032619999999999,-0.142035,0.0,12.0,60.0,178.0,33.0,1.0
385019,1.403778,-1.098583,2.672474,-0.632892,0.199051,-0.271766,0.0,12.0,60.0,178.0,33.0,1.0
385020,1.33582,-1.111422,2.607491,-0.770351,-0.025572,-0.17578,0.0,12.0,60.0,178.0,33.0,1.0
385021,1.267058,-1.126593,2.526141,-0.7543890000000001,-0.237914,0.101169,0.0,12.0,60.0,178.0,33.0,1.0
385022,1.195199,-1.148887,2.405681,-0.594494,0.28236300000000003,1.131201,0.0,12.0,60.0,178.0,33.0,1.0
385023,1.207198,-1.172467,2.353543,-0.446908,0.683713,1.017931,0.0,12.0,60.0,178.0,33.0,1.0
