index,attitude.roll,attitude.pitch,attitude.yaw,userAcceleration.x,userAcceleration.y,userAcceleration.z,act,id,weight,height,age,gender
434242,-0.922867,-1.316937,-1.1475030000000002,-1.323448,0.468466,-0.8424379999999999,0.0,14.0,70.0,185.0,33.0,1.0
434243,-0.862836,-1.245265,-1.036537,-0.2164,0.8679030000000001,0.582307,0.0,14.0,70.0,185.0,33.0,1.0
434244,-0.8614709999999999,-1.198114,-0.934598,0.580759,0.921094,0.763488,0.0,14.0,70.0,185.0,33.0,1.0
434245,-0.800719,-1.194842,-0.912254,0.651564,1.281085,-1.091285,0.0,14.0,70.0,185.0,33.0,1.0
434246,-0.743966,-1.177819,-0.873986,0.26710900000000004,-0.469717,1.002736,0.0,14.0,70.0,185.0,33.0,1.0
434247,-0.671355,-1.188516,-0.8712629999999999,0.26459,-0.57395,0.702231,0.0,14.0,70.0,185.0,33.0,1.0
434248,-0.672129,-1.20633,-0.904751,-0.072325,-0.235767,-0.386474,0.0,14.0,70.0,185.0,33.0,1.0
434249,-0.739984,-1.200783,-0.937925,0.208309,0.330281,0.019368,0.0,14.0,70.0,185.0,33.0,1.0
434250,-0.770893,-1.195745,-0.941762,0.206226,0.298896,-0.186635,0.0,14.0,70.0,185.0,33.0,1.0
434251,-0.761672,-1.185355,-0.918431,0.046922000000000005,-0.0789,-0.134464,0.0,14.0,70.0,185.0,33.0,1.0
434252,-0.739062,-1.173409,-0.8958719999999999,-0.096754,-0.335634,-0.5135109999999999,0.0,14.0,70.0,185.0,33.0,1.0
434253,-0.701317,-1.1535799999999998,-0.864707,-0.073937,-0.297399,-0.251443,0.0,14.0,70.0,185.0,33.0,1.0
434254,-0.64561,-1.1263299999999998,-0.8440350000000001,0.013513,-0.221123,-0.297606,0.0,14.0,70.0,185.0,33.0,1.0
434255,-0.587117,-1.090865,-0.821032,-0.156856,-0.169726,0.370937,0.0,14.0,70.0,185.0,33.0,1.0
434256,-0.55332,-1.054526,-0.799686,-0.190477,-0.13330799999999998,0.550348,0.0,14.0,70.0,185.0,33.0,1.0
434257,-0.543053,-1.0025879999999998,-0.769062,-0.185763,0.123961,0.829202,0.0,14.0,70.0,185.0,33.0,1.0
434258,-0.532309,-0.91673,-0.715696,0.051583,0.514947,0.705553,0.0,14.0,70.0,185.0,33.0,1.0
434259,-0.507726,-0.8046760000000001,-0.65035,0.145523,0.356466,-1.365542,0.0,14.0,70.0,185.0,33.0,1.0
434260,-0.537401,-0.738642,-0.643265,0.268004,-0.146612,-0.113055,0.0,14.0,70.0,185.0,33.0,1.0
434261,-0.529361,-0.720899,-0.654683,-0.405213,-0.004802000000000001,0.165574,0.0,14.0,70.0,185.0,33.0,1.0
434262,-0.514419,-0.723641,-0.662752,-0.112613,-0.098977,0.147786,0.0,14.0,70.0,185.0,33.0,1.0
434263,-0.5160680000000001,-0.736758,-0.6712279999999999,0.157461,-0.34024,-0.007939,0.0,14.0,70.0,185.0,33.0,1.0
434264,-0.527243,-0.7659060000000001,-0.6815180000000001,0.165932,-0.521117,-0.007070999999999998,0.0,14.0,70.0,185.0,33.0,1.0
434265,-0.5346069999999999,-0.817012,-0.6974100000000001,0.165339,-0.7020350000000001,0.133186,0.0,14.0,70.0,185.0,33.0,1.0
434266,-0.543006,-0.885914,-0.721352,0.172167,-0.730243,0.154305,0.0,14.0,70.0,185.0,33.0,1.0
434267,-0.56217,-0.968142,-0.756139,0.213295,-0.673825,0.172189,0.0,14.0,70.0,185.0,33.0,1.0
434268,-0.6012310000000001,-1.059789,-0.804399,0.225488,-0.398207,0.122255,0.0,14.0,70.0,185.0,33.0,1.0
434269,-0.679346,-1.153747,-0.881742,0.166189,0.051502,0.107181,0.0,14.0,70.0,185.0,33.0,1.0
434270,-0.7955899999999999,-1.240719,-0.996025,0.178248,0.594708,0.067482,0.0,14.0,70.0,185.0,33.0,1.0
434271,-0.897199,-1.298946,-1.097062,0.169695,0.5907859999999999,0.337764,0.0,14.0,70.0,185.0,33.0,1.0
434272,-0.810806,-1.301366,-1.019196,-0.189729,0.830084,-0.418637,0.0,14.0,70.0,185.0,33.0,1.0
434273,-0.711808,-1.237753,-0.8768090000000001,-0.90937,1.347078,0.933841,0.0,14.0,70.0,185.0,33.0,1.0
434274,-0.801712,-1.188244,-0.943009,-1.3983139999999998,1.530003,-1.822911,0.0,14.0,70.0,185.0,33.0,1.0
434275,-0.70289,-1.10511,-0.796265,0.147884,-0.263402,1.791238,0.0,14.0,70.0,185.0,33.0,1.0
434276,-0.645021,-1.116046,-0.781435,0.578129,-0.702479,-0.8815299999999999,0.0,14.0,70.0,185.0,33.0,1.0
434277,-0.675752,-1.145766,-0.801226,0.52105,0.649749,0.258018,0.0,14.0,70.0,185.0,33.0,1.0
434278,-0.709575,-1.178589,-0.8666799999999999,0.33581300000000003,0.764745,0.105382,0.0,14.0,70.0,185.0,33.0,1.0
434279,-0.744684,-1.203807,-0.927215,-0.047921,0.312361,0.170425,0.0,14.0,70.0,185.0,33.0,1.0
434280,-0.780389,-1.217689,-0.954889,-0.263695,-0.347421,0.006804999999999999,0.0,14.0,70.0,185.0,33.0,1.0
434281,-0.806085,-1.216047,-0.960141,-0.266239,-0.363973,-0.193209,0.0,14.0,70.0,185.0,33.0,1.0
434282,-0.806067,-1.20003,-0.948144,-0.162511,-0.270673,-0.555959,0.0,14.0,70.0,185.0,33.0,1.0
434283,-0.806057,-1.196192,-0.964885,0.11947,-0.322849,-0.17991600000000002,0.0,14.0,70.0,185.0,33.0,1.0
434284,-0.769756,-1.206238,-1.004234,0.141958,-0.271348,-0.118329,0.0,14.0,70.0,185.0,33.0,1.0
434285,-0.7135739999999999,-1.206812,-1.027302,0.113839,-0.252143,0.180378,0.0,14.0,70.0,185.0,33.0,1.0
434286,-0.667342,-1.188373,-1.008973,0.042122,-0.20503,0.370332,0.0,14.0,70.0,185.0,33.0,1.0
434287,-0.632081,-1.140927,-0.962908,-0.15746300000000002,-0.209542,0.8239,0.0,14.0,70.0,185.0,33.0,1.0
434288,-0.6112489999999999,-1.058382,-0.918649,-0.268179,0.04311,0.97116,0.0,14.0,70.0,185.0,33.0,1.0
434289,-0.6045689999999999,-0.944015,-0.874031,-0.130704,0.491045,0.202649,0.0,14.0,70.0,185.0,33.0,1.0
434290,-0.561373,-0.812913,-0.810763,0.234794,0.616054,-1.697227,0.0,14.0,70.0,185.0,33.0,1.0
434291,-0.5678850000000001,-0.768208,-0.810856,0.130954,-0.041893,0.098891,0.0,14.0,70.0,185.0,33.0,1.0
434292,-0.542866,-0.757456,-0.810098,-0.117756,-0.134982,0.100701,0.0,14.0,70.0,185.0,33.0,1.0
434293,-0.5252560000000001,-0.759882,-0.806099,-0.158582,-0.13298900000000002,0.029507,0.0,14.0,70.0,185.0,33.0,1.0
434294,-0.5139819999999999,-0.7817569999999999,-0.806427,0.075503,-0.355833,-0.256974,0.0,14.0,70.0,185.0,33.0,1.0
434295,-0.516031,-0.825729,-0.812443,0.13603900000000002,-0.535732,-0.194602,0.0,14.0,70.0,185.0,33.0,1.0
434296,-0.532212,-0.885216,-0.8218530000000001,0.154507,-0.662434,-0.125288,0.0,14.0,70.0,185.0,33.0,1.0
434297,-0.554221,-0.957798,-0.8358620000000001,0.279037,-0.66987,0.159152,0.0,14.0,70.0,185.0,33.0,1.0
434298,-0.570882,-1.046784,-0.858358,0.324272,-0.300556,0.236439,0.0,14.0,70.0,185.0,33.0,1.0
434299,-0.60307,-1.151231,-0.906235,0.271065,-0.179196,0.190508,0.0,14.0,70.0,185.0,33.0,1.0
434300,-0.6969569999999999,-1.2522879999999998,-1.0059280000000002,0.279292,0.099918,0.346239,0.0,14.0,70.0,185.0,33.0,1.0
434301,-0.842101,-1.330362,-1.153681,0.33529200000000003,-0.109708,0.384995,0.0,14.0,70.0,185.0,33.0,1.0
434302,-0.95933,-1.375756,-1.266356,0.266154,-0.310462,0.334923,0.0,14.0,70.0,185.0,33.0,1.0
434303,-0.983365,-1.385208,-1.273662,-0.292916,-0.552423,0.214223,0.0,14.0,70.0,185.0,33.0,1.0
434304,-0.939044,-1.359675,-1.20024,-0.835728,0.145571,-0.064687,0.0,14.0,70.0,185.0,33.0,1.0
434305,-0.976611,-1.311195,-1.172133,-1.1258629999999998,0.663802,-0.07885299999999999,0.0,14.0,70.0,185.0,33.0,1.0
434306,-0.883642,-1.216336,-0.969704,-0.14153,3.209734,-1.895866,0.0,14.0,70.0,185.0,33.0,1.0
434307,-0.725753,-1.153057,-0.79933,0.164181,0.963799,0.30504000000000003,0.0,14.0,70.0,185.0,33.0,1.0
434308,-0.615012,-1.187001,-0.8292120000000001,0.279756,-1.200718,-0.053215,0.0,14.0,70.0,185.0,33.0,1.0
434309,-0.564343,-1.203254,-0.8260790000000001,0.5777260000000001,-0.398606,0.278848,0.0,14.0,70.0,185.0,33.0,1.0
434310,-0.6110899999999999,-1.21785,-0.8284950000000001,0.504749,0.268429,-0.210738,0.0,14.0,70.0,185.0,33.0,1.0
434311,-0.674501,-1.204706,-0.8354440000000001,0.360646,2.072339,-0.343385,0.0,14.0,70.0,185.0,33.0,1.0
434312,-0.6524270000000001,-1.1564020000000002,-0.79408,-0.006887000000000001,0.5414720000000001,-0.231811,0.0,14.0,70.0,185.0,33.0,1.0
434313,-0.615301,-1.109481,-0.7511680000000001,-0.219348,-0.728567,0.548741,0.0,14.0,70.0,185.0,33.0,1.0
434314,-0.588716,-1.057474,-0.741748,-0.223133,-0.8855379999999999,0.5495270000000001,0.0,14.0,70.0,185.0,33.0,1.0
434315,-0.558353,-0.998244,-0.746843,-0.235465,-1.006369,0.563025,0.0,14.0,70.0,185.0,33.0,1.0
434316,-0.540773,-0.9413,-0.753875,-0.21350700000000006,-0.945714,0.583646,0.0,14.0,70.0,185.0,33.0,1.0
434317,-0.560846,-0.880374,-0.741946,0.197496,-0.269802,0.686757,0.0,14.0,70.0,185.0,33.0,1.0
434318,-0.559852,-0.800134,-0.693822,0.576956,0.700199,-0.376706,0.0,14.0,70.0,185.0,33.0,1.0
434319,-0.568146,-0.766521,-0.6741560000000001,0.148831,0.042649,-0.106858,0.0,14.0,70.0,185.0,33.0,1.0
434320,-0.568509,-0.771043,-0.680633,-0.12508699999999998,-0.41719,-0.130294,0.0,14.0,70.0,185.0,33.0,1.0
434321,-0.585577,-0.7890119999999999,-0.695604,-0.326891,-0.5468770000000001,-0.03651,0.0,14.0,70.0,185.0,33.0,1.0
434322,-0.604204,-0.829277,-0.7101,0.017309,0.07195900000000001,-0.076573,0.0,14.0,70.0,185.0,33.0,1.0
434323,-0.638775,-0.8878969999999999,-0.723504,0.054731,0.06337999999999999,-0.146567,0.0,14.0,70.0,185.0,33.0,1.0
434324,-0.680053,-0.954272,-0.737302,0.123722,0.028742,-0.357619,0.0,14.0,70.0,185.0,33.0,1.0
434325,-0.715511,-1.020795,-0.749051,0.215393,-0.357681,-0.297091,0.0,14.0,70.0,185.0,33.0,1.0
434326,-0.725668,-1.10284,-0.755851,0.229755,-0.335165,-0.176823,0.0,14.0,70.0,185.0,33.0,1.0
434327,-0.7521479999999999,-1.196305,-0.8063060000000001,0.249329,-0.26771500000000004,0.155641,0.0,14.0,70.0,185.0,33.0,1.0
434328,-0.852223,-1.274852,-0.932618,0.083274,-0.128814,0.68313,0.0,14.0,70.0,185.0,33.0,1.0
434329,-1.05851,-1.318586,-1.140923,0.027259,-0.221201,0.873041,0.0,14.0,70.0,185.0,33.0,1.0
434330,-1.206881,-1.324567,-1.281933,-0.439412,0.369807,0.210698,0.0,14.0,70.0,185.0,33.0,1.0
434331,-1.119427,-1.279127,-1.170246,-0.705666,0.6224810000000001,-0.148383,0.0,14.0,70.0,185.0,33.0,1.0
434332,-1.004274,-1.196081,-0.950236,-0.894768,1.316061,0.187716,0.0,14.0,70.0,185.0,33.0,1.0
434333,-0.98332,-1.137774,-0.8196889999999999,0.73338,0.729338,-0.47652,0.0,14.0,70.0,185.0,33.0,1.0
434334,-1.000976,-1.170655,-0.866708,0.588136,0.6277,-0.8655520000000001,0.0,14.0,70.0,185.0,33.0,1.0
434335,-1.0222870000000002,-1.218063,-0.954832,0.34273200000000004,0.632506,-0.003471,0.0,14.0,70.0,185.0,33.0,1.0
434336,-1.090643,-1.253035,-1.055026,0.259579,0.476195,-0.156987,0.0,14.0,70.0,185.0,33.0,1.0
434337,-1.118681,-1.253518,-1.071004,0.105984,0.283021,-0.16028199999999998,0.0,14.0,70.0,185.0,33.0,1.0
434338,-1.057277,-1.228797,-0.977222,-0.143155,-0.188653,-0.132712,0.0,14.0,70.0,185.0,33.0,1.0
434339,-0.989045,-1.197673,-0.888509,-0.29074,-0.5982770000000001,-0.014594,0.0,14.0,70.0,185.0,33.0,1.0
434340,-0.930566,-1.159935,-0.816782,-0.186925,-0.832518,0.284164,0.0,14.0,70.0,185.0,33.0,1.0
434341,-0.881875,-1.125582,-0.781615,0.066373,-0.923987,0.43642,0.0,14.0,70.0,185.0,33.0,1.0
434342,-0.8536450000000001,-1.104386,-0.778198,0.187909,-0.8840790000000001,0.372173,0.0,14.0,70.0,185.0,33.0,1.0
434343,-0.8862049999999999,-1.102135,-0.785755,0.233529,-0.805077,0.512614,0.0,14.0,70.0,185.0,33.0,1.0
434344,-0.917921,-1.096266,-0.754825,0.335279,-0.7055779999999999,0.667423,0.0,14.0,70.0,185.0,33.0,1.0
434345,-0.8945219999999999,-1.080625,-0.684172,0.562591,-0.619786,0.513171,0.0,14.0,70.0,185.0,33.0,1.0
434346,-0.834068,-1.048802,-0.5990840000000001,0.479392,-0.356817,0.14139100000000002,0.0,14.0,70.0,185.0,33.0,1.0
434347,-0.794601,-1.010373,-0.544353,0.37652,-0.181274,-0.270413,0.0,14.0,70.0,185.0,33.0,1.0
434348,-0.836266,-1.0059,-0.564728,0.369607,0.076407,-0.099017,0.0,14.0,70.0,185.0,33.0,1.0
434349,-0.902662,-1.018446,-0.619848,0.395583,0.25408400000000003,0.048425,0.0,14.0,70.0,185.0,33.0,1.0
434350,-0.972756,-1.033118,-0.6832229999999999,0.26260500000000003,0.362932,0.04373,0.0,14.0,70.0,185.0,33.0,1.0
434351,-1.033328,-1.052502,-0.744256,-0.739129,0.5564899999999999,-0.827159,0.0,14.0,70.0,185.0,33.0,1.0
434352,-1.097131,-1.104344,-0.8059069999999999,-1.604929,0.8871959999999999,-1.272343,0.0,14.0,70.0,185.0,33.0,1.0
434353,-1.135909,-1.181049,-0.8690000000000001,-1.2191459999999998,1.141691,-1.24511,0.0,14.0,70.0,185.0,33.0,1.0
434354,-1.1175,-1.215106,-0.878216,0.182348,0.127154,-0.5843649999999999,0.0,14.0,70.0,185.0,33.0,1.0
434355,-1.028637,-1.216195,-0.7567689999999999,0.66904,-0.662852,0.733274,0.0,14.0,70.0,185.0,33.0,1.0
434356,-0.902264,-1.21674,-0.617991,0.6286430000000001,-0.8357100000000001,0.573213,0.0,14.0,70.0,185.0,33.0,1.0
434357,-0.7865850000000001,-1.183963,-0.509792,-0.293508,1.245187,0.266115,0.0,14.0,70.0,185.0,33.0,1.0
434358,-0.795773,-1.065499,-0.519195,-0.8669690000000001,1.868408,0.705228,0.0,14.0,70.0,185.0,33.0,1.0
434359,-0.901828,-1.019962,-0.5691,0.390606,0.6686479999999999,1.970454,0.0,14.0,70.0,185.0,33.0,1.0
434360,-0.891864,-1.059942,-0.6065520000000001,0.516618,0.965533,0.133802,0.0,14.0,70.0,185.0,33.0,1.0
434361,-0.911896,-1.091138,-0.607287,0.413588,1.23301,0.6111,0.0,14.0,70.0,185.0,33.0,1.0
434362,-0.992772,-1.133587,-0.657692,0.258397,1.111657,-0.083149,0.0,14.0,70.0,185.0,33.0,1.0
434363,-1.11109,-1.176544,-0.737376,0.112402,0.27186,0.184414,0.0,14.0,70.0,185.0,33.0,1.0
434364,-1.236559,-1.209698,-0.855576,-0.124255,-0.039223,0.016897,0.0,14.0,70.0,185.0,33.0,1.0
434365,-1.372086,-1.2282620000000002,-0.984965,0.017925,-0.160519,0.145204,0.0,14.0,70.0,185.0,33.0,1.0
434366,-1.49197,-1.237631,-1.101917,0.232635,-0.332341,0.143778,0.0,14.0,70.0,185.0,33.0,1.0
434367,-1.587795,-1.239213,-1.201344,0.030066,-0.403521,-0.249018,0.0,14.0,70.0,185.0,33.0,1.0
434368,-1.686854,-1.235686,-1.288566,-0.010271,-0.340401,-0.40478,0.0,14.0,70.0,185.0,33.0,1.0
434369,-1.7896169999999998,-1.226387,-1.369461,0.035185,-0.134985,-0.504199,0.0,14.0,70.0,185.0,33.0,1.0
434370,-1.861956,-1.210791,-1.445441,0.127353,-0.009763,-0.559709,0.0,14.0,70.0,185.0,33.0,1.0
434371,-1.905974,-1.191963,-1.521375,0.162305,0.009441,-0.6284069999999999,0.0,14.0,70.0,185.0,33.0,1.0
434372,-1.914773,-1.176501,-1.5576530000000002,0.4906970000000001,-0.138447,-0.547941,0.0,14.0,70.0,185.0,33.0,1.0
434373,-1.875413,-1.165716,-1.532257,0.5526310000000001,-0.097232,-0.462662,0.0,14.0,70.0,185.0,33.0,1.0
434374,-1.816719,-1.155444,-1.465709,0.49292,0.09763,-0.21542,0.0,14.0,70.0,185.0,33.0,1.0
434375,-1.737656,-1.144254,-1.368023,0.461479,0.760512,0.29164,0.0,14.0,70.0,185.0,33.0,1.0
434376,-1.624451,-1.137607,-1.235874,0.553946,0.6688149999999999,0.388393,0.0,14.0,70.0,185.0,33.0,1.0
434377,-1.491005,-1.140047,-1.0730309999999998,-0.010379,0.457146,0.213899,0.0,14.0,70.0,185.0,33.0,1.0
434378,-1.351233,-1.134211,-0.900817,-0.196386,0.818149,0.372063,0.0,14.0,70.0,185.0,33.0,1.0
434379,-1.208757,-1.12701,-0.7520479999999999,-0.127092,0.914754,0.294082,0.0,14.0,70.0,185.0,33.0,1.0
434380,-1.098301,-1.1262370000000002,-0.6389239999999999,0.164806,0.906511,0.099376,0.0,14.0,70.0,185.0,33.0,1.0
434381,-1.020713,-1.1316959999999998,-0.544775,0.393042,0.838975,0.208377,0.0,14.0,70.0,185.0,33.0,1.0
434382,-0.969122,-1.144785,-0.4547640000000001,0.360164,0.619271,0.325284,0.0,14.0,70.0,185.0,33.0,1.0
434383,-0.959519,-1.164815,-0.360939,0.389071,0.365831,0.657613,0.0,14.0,70.0,185.0,33.0,1.0
434384,-0.929625,-1.1753209999999998,-0.22680100000000006,0.322017,0.169197,0.610153,0.0,14.0,70.0,185.0,33.0,1.0
434385,-0.901286,-1.172403,-0.081231,0.17765799999999998,-0.209115,0.569911,0.0,14.0,70.0,185.0,33.0,1.0
434386,-0.851726,-1.156854,0.063937,0.073627,-0.455795,0.366005,0.0,14.0,70.0,185.0,33.0,1.0
434387,-0.827335,-1.141671,0.181056,0.074987,-0.604459,0.395151,0.0,14.0,70.0,185.0,33.0,1.0
434388,-0.8315229999999999,-1.135894,0.277077,0.334831,-0.54807,0.5024109999999999,0.0,14.0,70.0,185.0,33.0,1.0
434389,-0.8577739999999999,-1.134658,0.36119,0.502659,-0.501528,0.566484,0.0,14.0,70.0,185.0,33.0,1.0
434390,-0.886033,-1.132575,0.434322,0.464041,-0.445821,0.522101,0.0,14.0,70.0,185.0,33.0,1.0
434391,-0.906522,-1.130752,0.494839,0.275075,-0.414147,0.434709,0.0,14.0,70.0,185.0,33.0,1.0
434392,-0.922341,-1.133484,0.543114,-0.052709000000000006,-0.391519,0.323385,0.0,14.0,70.0,185.0,33.0,1.0
434393,-0.937628,-1.142918,0.575102,-0.410953,-0.356381,0.140626,0.0,14.0,70.0,185.0,33.0,1.0
434394,-0.963569,-1.158413,0.582374,-0.370845,-0.258484,0.06642200000000001,0.0,14.0,70.0,185.0,33.0,1.0
434395,-0.997467,-1.177539,0.571602,-0.278853,-0.158621,-0.023776,0.0,14.0,70.0,185.0,33.0,1.0
434396,-1.028586,-1.190413,0.560295,-0.150385,0.261541,-0.538428,0.0,14.0,70.0,185.0,33.0,1.0
434397,-1.04324,-1.193284,0.5665789999999999,0.148484,0.7987479999999999,-0.983034,0.0,14.0,70.0,185.0,33.0,1.0
434398,-1.057246,-1.184282,0.6148680000000001,0.202014,0.767573,-0.940257,0.0,14.0,70.0,185.0,33.0,1.0
434399,-1.04471,-1.160258,0.722008,0.6714359999999999,-0.141348,-0.714054,0.0,14.0,70.0,185.0,33.0,1.0
434400,-0.986991,-1.147918,0.845462,0.714004,-0.258469,-0.377315,0.0,14.0,70.0,185.0,33.0,1.0
434401,-0.936084,-1.158369,0.950888,0.654776,0.861575,0.392055,0.0,14.0,70.0,185.0,33.0,1.0
434402,-0.92719,-1.1846139999999998,0.92165,0.623587,2.36451,2.118474,0.0,14.0,70.0,185.0,33.0,1.0
434403,-0.915748,-1.196174,0.8471360000000001,0.085384,-0.352445,1.127879,0.0,14.0,70.0,185.0,33.0,1.0
434404,-0.901153,-1.184893,0.896136,-0.297474,-0.468543,0.905407,0.0,14.0,70.0,185.0,33.0,1.0
434405,-0.906158,-1.1419700000000002,0.958502,-0.725509,-1.030167,-0.725407,0.0,14.0,70.0,185.0,33.0,1.0
434406,-1.0375379999999998,-1.113721,0.962172,-0.470164,-0.299508,-0.25371900000000003,0.0,14.0,70.0,185.0,33.0,1.0
434407,-1.18681,-1.11502,0.916548,0.204467,0.857894,0.176439,0.0,14.0,70.0,185.0,33.0,1.0
434408,-1.290702,-1.142769,0.7735380000000001,0.762567,0.856403,0.428052,0.0,14.0,70.0,185.0,33.0,1.0
434409,-1.397119,-1.183446,0.549442,0.655226,0.538396,0.229533,0.0,14.0,70.0,185.0,33.0,1.0
434410,-1.520897,-1.210356,0.340837,0.493617,-0.039852,0.14185799999999998,0.0,14.0,70.0,185.0,33.0,1.0
434411,-1.614598,-1.222722,0.247934,0.16252,-0.395888,0.089848,0.0,14.0,70.0,185.0,33.0,1.0
434412,-1.701658,-1.226556,0.22542,-0.023807,-0.653414,-0.089766,0.0,14.0,70.0,185.0,33.0,1.0
434413,-1.796252,-1.223078,0.219821,0.046221,-0.386045,-0.110168,0.0,14.0,70.0,185.0,33.0,1.0
434414,-1.893063,-1.216143,0.190474,0.09092,0.001534,-0.126092,0.0,14.0,70.0,185.0,33.0,1.0
434415,-1.987095,-1.207852,0.118461,0.15174400000000002,0.112752,-0.213183,0.0,14.0,70.0,185.0,33.0,1.0
434416,-2.07193,-1.195878,0.019123,0.250731,0.098668,-0.220443,0.0,14.0,70.0,185.0,33.0,1.0
434417,-2.126848,-1.182274,-0.06162,0.13122799999999998,0.123175,-0.424188,0.0,14.0,70.0,185.0,33.0,1.0
434418,-2.16448,-1.172878,-0.102817,0.07508300000000001,0.448904,-0.769452,0.0,14.0,70.0,185.0,33.0,1.0
434419,-2.199581,-1.164594,-0.112022,0.204502,0.4900640000000001,-0.6861510000000001,0.0,14.0,70.0,185.0,33.0,1.0
434420,-2.191711,-1.164879,-0.086413,0.527167,0.265296,-0.41509,0.0,14.0,70.0,185.0,33.0,1.0
434421,-2.13931,-1.169084,-0.041119,0.524163,0.255709,-0.409636,0.0,14.0,70.0,185.0,33.0,1.0
434422,-2.033148,-1.177123,0.055365,0.313247,0.455797,-0.02958,0.0,14.0,70.0,185.0,33.0,1.0
434423,-1.860241,-1.191138,0.219062,0.043203,0.381466,-0.072523,0.0,14.0,70.0,185.0,33.0,1.0
434424,-1.640108,-1.202744,0.455018,-0.058945,0.105407,0.22696,0.0,14.0,70.0,185.0,33.0,1.0
434425,-1.496718,-1.195177,0.683477,-0.038424,0.12607000000000002,0.742314,0.0,14.0,70.0,185.0,33.0,1.0
434426,-1.420369,-1.174236,0.84531,0.257361,0.398665,0.500081,0.0,14.0,70.0,185.0,33.0,1.0
434427,-1.294809,-1.149405,1.033576,0.374588,0.6358189999999999,0.215338,0.0,14.0,70.0,185.0,33.0,1.0
434428,-1.153516,-1.115859,1.242646,0.052984,1.082165,-0.218454,0.0,14.0,70.0,185.0,33.0,1.0
434429,-1.084955,-1.089603,1.398543,0.184524,0.774491,0.144494,0.0,14.0,70.0,185.0,33.0,1.0
434430,-1.036134,-1.091742,1.526415,0.15822999999999998,0.227391,0.388768,0.0,14.0,70.0,185.0,33.0,1.0
434431,-0.950462,-1.101292,1.6485599999999998,0.117086,-0.38601,0.35239000000000004,0.0,14.0,70.0,185.0,33.0,1.0
434432,-0.870217,-1.111298,1.757715,0.12506,-0.764332,0.251659,0.0,14.0,70.0,185.0,33.0,1.0
434433,-0.821675,-1.1215,1.852294,0.253321,-0.823009,0.168499,0.0,14.0,70.0,185.0,33.0,1.0
434434,-0.812754,-1.136795,1.917418,0.381757,-0.6742130000000001,0.292585,0.0,14.0,70.0,185.0,33.0,1.0
434435,-0.8206370000000001,-1.164852,1.950948,0.4588060000000001,-0.644331,0.442168,0.0,14.0,70.0,185.0,33.0,1.0
434436,-0.828224,-1.204443,1.973219,0.350371,-0.52208,0.427331,0.0,14.0,70.0,185.0,33.0,1.0
434437,-0.8895569999999999,-1.246693,1.945918,0.07521699999999999,-0.480865,0.460629,0.0,14.0,70.0,185.0,33.0,1.0
434438,-1.023591,-1.279111,1.841723,-0.09689,-0.382214,0.287583,0.0,14.0,70.0,185.0,33.0,1.0
434439,-1.114837,-1.300875,1.751152,-0.325575,0.079238,-0.31962,0.0,14.0,70.0,185.0,33.0,1.0
434440,-1.14953,-1.312204,1.705811,-0.382653,0.432282,-0.955255,0.0,14.0,70.0,185.0,33.0,1.0
434441,-1.087394,-1.303328,1.785741,0.093946,0.195072,-0.727846,0.0,14.0,70.0,185.0,33.0,1.0
434442,-0.973291,-1.261577,1.97492,-0.298579,0.272862,0.904607,0.0,14.0,70.0,185.0,33.0,1.0
434443,-1.007074,-1.222143,2.014397,-0.200725,0.337587,1.139723,0.0,14.0,70.0,185.0,33.0,1.0
434444,-1.061882,-1.20487,1.95734,0.362981,0.012298,0.704986,0.0,14.0,70.0,185.0,33.0,1.0
434445,-1.155511,-1.211989,1.876976,0.551583,0.196939,0.28173000000000004,0.0,14.0,70.0,185.0,33.0,1.0
434446,-1.209578,-1.205836,1.882456,0.713719,0.687429,-0.34942199999999995,0.0,14.0,70.0,185.0,33.0,1.0
434447,-1.145525,-1.1916719999999998,2.000109,0.932817,0.491421,-0.309881,0.0,14.0,70.0,185.0,33.0,1.0
434448,-1.13058,-1.214406,1.992376,0.372655,0.099245,-0.07928099999999999,0.0,14.0,70.0,185.0,33.0,1.0
434449,-1.122289,-1.252545,1.944395,-0.15606,-0.010835,-0.156896,0.0,14.0,70.0,185.0,33.0,1.0
434450,-1.125408,-1.27968,1.912773,-0.7878850000000001,-0.107048,-0.171889,0.0,14.0,70.0,185.0,33.0,1.0
434451,-1.126565,-1.286013,1.936862,-0.51048,-0.19869,-0.162881,0.0,14.0,70.0,185.0,33.0,1.0
434452,-1.095667,-1.264858,2.015443,-0.033274,-0.240476,-0.166915,0.0,14.0,70.0,185.0,33.0,1.0
434453,-1.010513,-1.222201,2.118053,0.160114,-0.279224,-0.151308,0.0,14.0,70.0,185.0,33.0,1.0
434454,-0.909981,-1.175292,2.193002,0.193398,-0.180798,-0.508139,0.0,14.0,70.0,185.0,33.0,1.0
434455,-0.8574120000000001,-1.133291,2.220789,0.26782399999999995,-0.177845,-0.208056,0.0,14.0,70.0,185.0,33.0,1.0
434456,-0.8386469999999999,-1.095732,2.226531,0.143171,-0.179669,0.460657,0.0,14.0,70.0,185.0,33.0,1.0
434457,-0.815357,-1.061927,2.233479,0.07319099999999999,-0.362325,0.8677540000000001,0.0,14.0,70.0,185.0,33.0,1.0
434458,-0.784339,-1.02793,2.255898,0.092875,-0.665207,0.928946,0.0,14.0,70.0,185.0,33.0,1.0
434459,-0.7606850000000001,-0.980483,2.292534,0.30230500000000005,-0.65262,0.79693,0.0,14.0,70.0,185.0,33.0,1.0
434460,-0.698404,-0.8980790000000001,2.362048,0.101233,0.708316,-0.21707,0.0,14.0,70.0,185.0,33.0,1.0
434461,-0.620805,-0.805954,2.427449,-0.437863,0.92365,-1.728664,0.0,14.0,70.0,185.0,33.0,1.0
434462,-0.60075,-0.805904,2.431772,-0.24263,0.7330409999999999,-0.461469,0.0,14.0,70.0,185.0,33.0,1.0
434463,-0.56866,-0.830958,2.433811,0.225848,-0.5131600000000001,0.122587,0.0,14.0,70.0,185.0,33.0,1.0
434464,-0.5666220000000001,-0.87187,2.434963,0.188045,-1.029572,-0.29996100000000003,0.0,14.0,70.0,185.0,33.0,1.0
434465,-0.590417,-0.937635,2.414393,0.38485,-0.932504,-0.181206,0.0,14.0,70.0,185.0,33.0,1.0
434466,-0.6255430000000001,-1.027555,2.381876,0.421703,-0.8295790000000001,-0.141732,0.0,14.0,70.0,185.0,33.0,1.0
434467,-0.658077,-1.130135,2.346675,0.436386,-0.33165500000000003,-0.162832,0.0,14.0,70.0,185.0,33.0,1.0
434468,-0.681696,-1.225475,2.325972,0.490813,0.18266,-0.08532100000000001,0.0,14.0,70.0,185.0,33.0,1.0
434469,-0.666337,-1.293748,2.349312,0.560917,0.450959,0.066455,0.0,14.0,70.0,185.0,33.0,1.0
434470,-0.567654,-1.326452,2.4366790000000003,0.039974,1.646266,0.732546,0.0,14.0,70.0,185.0,33.0,1.0
434471,-0.6031880000000001,-1.320142,2.369471,-1.489003,2.245574,-0.6546930000000001,0.0,14.0,70.0,185.0,33.0,1.0
434472,-0.707893,-1.227685,2.3433740000000003,-2.481023,2.529159,-0.529453,0.0,14.0,70.0,185.0,33.0,1.0
434473,-0.6454489999999999,-1.129011,2.490948,0.297096,-0.582472,-1.248138,0.0,14.0,70.0,185.0,33.0,1.0
434474,-0.603087,-1.103934,2.57835,0.660935,-0.8917950000000001,-0.623444,0.0,14.0,70.0,185.0,33.0,1.0
434475,-0.5858869999999999,-1.121721,2.596936,0.7153109999999999,0.000762,-0.330583,0.0,14.0,70.0,185.0,33.0,1.0
434476,-0.5622699999999999,-1.144911,2.587489,0.617851,0.560732,-0.432051,0.0,14.0,70.0,185.0,33.0,1.0
434477,-0.568226,-1.134894,2.568766,0.118205,0.6165510000000001,0.012962,0.0,14.0,70.0,185.0,33.0,1.0
434478,-0.575651,-1.089613,2.566659,-0.163423,-0.104115,0.509053,0.0,14.0,70.0,185.0,33.0,1.0
434479,-0.573933,-1.033975,2.565961,-0.224949,-0.41369,0.738376,0.0,14.0,70.0,185.0,33.0,1.0
434480,-0.556746,-0.980689,2.558388,-0.320735,-1.052606,0.682876,0.0,14.0,70.0,185.0,33.0,1.0
434481,-0.5315529999999999,-0.927983,2.546736,-0.34520500000000004,-1.044294,0.617398,0.0,14.0,70.0,185.0,33.0,1.0
434482,-0.535925,-0.8808469999999999,2.531597,-0.203089,-0.853874,0.405792,0.0,14.0,70.0,185.0,33.0,1.0
434483,-0.5377270000000001,-0.8213239999999999,2.536597,0.793842,0.388465,-0.420278,0.0,14.0,70.0,185.0,33.0,1.0
434484,-0.546362,-0.804404,2.523223,0.464735,0.116832,0.079466,0.0,14.0,70.0,185.0,33.0,1.0
434485,-0.546696,-0.822009,2.507728,0.164476,-0.321276,0.011413,0.0,14.0,70.0,185.0,33.0,1.0
434486,-0.56499,-0.8573930000000001,2.494969,-0.068768,-0.34422800000000003,-0.11883,0.0,14.0,70.0,185.0,33.0,1.0
434487,-0.5834189999999999,-0.912903,2.484233,-0.051059,0.023812,-0.229289,0.0,14.0,70.0,185.0,33.0,1.0
434488,-0.590333,-0.984422,2.480584,-0.128055,0.070948,-0.431163,0.0,14.0,70.0,185.0,33.0,1.0
434489,-0.587039,-1.071333,2.489263,-0.13305699999999998,0.299269,-0.664085,0.0,14.0,70.0,185.0,33.0,1.0
434490,-0.582989,-1.163289,2.5035130000000003,-0.085424,0.773524,-0.777836,0.0,14.0,70.0,185.0,33.0,1.0
434491,-0.611302,-1.245268,2.4907220000000003,0.07272,0.670713,-0.467837,0.0,14.0,70.0,185.0,33.0,1.0
434492,-0.619132,-1.308465,2.496155,0.35302100000000003,0.017824,0.193577,0.0,14.0,70.0,185.0,33.0,1.0
434493,-0.489449,-1.371695,2.612257,0.230065,-0.551473,0.746496,0.0,14.0,70.0,185.0,33.0,1.0
434494,-0.342951,-1.446468,2.7369,-0.221265,-0.992739,0.985654,0.0,14.0,70.0,185.0,33.0,1.0
434495,-0.28936300000000004,-1.498685,2.783195,-0.54971,-0.553904,0.758175,0.0,14.0,70.0,185.0,33.0,1.0
434496,-0.434644,-1.4783309999999998,2.647636,-0.8869360000000001,0.701293,-1.020756,0.0,14.0,70.0,185.0,33.0,1.0
434497,-0.634666,-1.335413,2.630794,-0.440882,3.1446560000000003,-0.273333,0.0,14.0,70.0,185.0,33.0,1.0
434498,-0.623839,-1.184705,2.752728,0.5846399999999999,0.310703,0.300124,0.0,14.0,70.0,185.0,33.0,1.0
434499,-0.532501,-1.224431,2.771496,0.185605,-0.604248,-1.129042,0.0,14.0,70.0,185.0,33.0,1.0
434500,-0.461896,-1.267424,2.808551,0.371164,-0.357045,0.207411,0.0,14.0,70.0,185.0,33.0,1.0
434501,-0.4457890000000001,-1.294423,2.795281,0.163331,0.926361,-0.451428,0.0,14.0,70.0,185.0,33.0,1.0
434502,-0.498844,-1.260657,2.748111,-0.177531,0.333323,0.441893,0.0,14.0,70.0,185.0,33.0,1.0
434503,-0.527454,-1.186618,2.728285,-0.295075,-0.015211,0.515868,0.0,14.0,70.0,185.0,33.0,1.0
434504,-0.515849,-1.112839,2.717291,-0.373273,-0.600525,0.548765,0.0,14.0,70.0,185.0,33.0,1.0
434505,-0.469701,-1.052275,2.710122,-0.323889,-1.049171,0.453471,0.0,14.0,70.0,185.0,33.0,1.0
434506,-0.445725,-1.008601,2.68748,-0.456067,-1.113497,0.387989,0.0,14.0,70.0,185.0,33.0,1.0
434507,-0.477632,-0.964159,2.665919,0.892893,-0.344015,0.804809,0.0,14.0,70.0,185.0,33.0,1.0
434508,-0.49468,-0.909537,2.673344,1.111067,-0.149296,0.267982,0.0,14.0,70.0,185.0,33.0,1.0
434509,-0.466226,-0.868658,2.687642,0.471549,-0.194691,-0.367784,0.0,14.0,70.0,185.0,33.0,1.0
434510,-0.4708310000000001,-0.879173,2.666216,0.124461,-0.492837,-0.211167,0.0,14.0,70.0,185.0,33.0,1.0
434511,-0.495331,-0.905387,2.641581,0.134778,-0.584363,-0.293692,0.0,14.0,70.0,185.0,33.0,1.0
434512,-0.538255,-0.95554,2.621968,-0.004783,0.009165,-0.019948,0.0,14.0,70.0,185.0,33.0,1.0
434513,-0.58639,-1.02104,2.60069,-0.177758,0.29702199999999995,-0.319249,0.0,14.0,70.0,185.0,33.0,1.0
434514,-0.6099180000000001,-1.097406,2.593853,-0.325241,0.398257,-0.572438,0.0,14.0,70.0,185.0,33.0,1.0
434515,-0.5874550000000001,-1.180195,2.610802,-0.31800100000000003,0.930209,-0.779406,0.0,14.0,70.0,185.0,33.0,1.0
434516,-0.535342,-1.254678,2.636261,-0.093719,0.622945,-0.606434,0.0,14.0,70.0,185.0,33.0,1.0
434517,-0.471399,-1.313974,2.669265,0.074408,-0.10318800000000003,0.213382,0.0,14.0,70.0,185.0,33.0,1.0
434518,-0.403316,-1.371791,2.735404,-0.028452,-0.8184140000000001,1.225622,0.0,14.0,70.0,185.0,33.0,1.0
434519,-0.382804,-1.448603,2.765421,-0.325075,-0.564443,1.294675,0.0,14.0,70.0,185.0,33.0,1.0
434520,-0.5297430000000001,-1.474614,2.610687,-0.449589,-0.006074,0.117881,0.0,14.0,70.0,185.0,33.0,1.0
434521,-0.650524,-1.404793,2.564627,-0.127803,1.492553,-0.347621,0.0,14.0,70.0,185.0,33.0,1.0
434522,-0.690042,-1.257577,2.686058,-0.297366,2.498864,-1.067387,0.0,14.0,70.0,185.0,33.0,1.0
434523,-0.650095,-1.202383,2.762321,-0.064104,0.08043600000000001,-0.452573,0.0,14.0,70.0,185.0,33.0,1.0
434524,-0.557955,-1.23357,2.786801,0.062534,-0.480145,0.060252,0.0,14.0,70.0,185.0,33.0,1.0
434525,-0.4561520000000001,-1.25971,2.80611,0.13931300000000002,-0.029837,-0.306362,0.0,14.0,70.0,185.0,33.0,1.0
434526,-0.468474,-1.237629,2.777612,0.16478099999999998,0.213039,-0.134371,0.0,14.0,70.0,185.0,33.0,1.0
434527,-0.51027,-1.173059,2.740036,-0.209431,-0.045872,0.399172,0.0,14.0,70.0,185.0,33.0,1.0
434528,-0.520305,-1.100477,2.715343,-0.240044,-0.363714,0.334785,0.0,14.0,70.0,185.0,33.0,1.0
434529,-0.50778,-1.033905,2.703616,-0.009807,-0.770069,0.533736,0.0,14.0,70.0,185.0,33.0,1.0
434530,-0.5036229999999999,-0.993191,2.682197,0.010532,-0.990529,0.519389,0.0,14.0,70.0,185.0,33.0,1.0
434531,-0.5185310000000001,-0.955038,2.653287,0.397073,-0.7270260000000001,0.640307,0.0,14.0,70.0,185.0,33.0,1.0
434532,-0.528911,-0.906815,2.642696,0.64305,-0.4435810000000001,0.635516,0.0,14.0,70.0,185.0,33.0,1.0
434533,-0.519717,-0.855975,2.64414,0.8314379999999999,-0.122749,0.269094,0.0,14.0,70.0,185.0,33.0,1.0
434534,-0.526542,-0.8556889999999999,2.626496,0.144016,0.074826,-0.131148,0.0,14.0,70.0,185.0,33.0,1.0
434535,-0.5361,-0.8809520000000001,2.60089,0.083571,-0.474516,-0.214101,0.0,14.0,70.0,185.0,33.0,1.0
434536,-0.5595180000000001,-0.923966,2.581819,0.030066,-0.657846,-0.237366,0.0,14.0,70.0,185.0,33.0,1.0
434537,-0.588758,-0.984926,2.564965,-0.106705,-0.155298,-0.114348,0.0,14.0,70.0,185.0,33.0,1.0
434538,-0.618401,-1.059665,2.543003,-0.282337,0.524552,-0.573996,0.0,14.0,70.0,185.0,33.0,1.0
434539,-0.6374310000000001,-1.152623,2.522823,-0.326075,0.935197,-0.7794949999999999,0.0,14.0,70.0,185.0,33.0,1.0
434540,-0.659741,-1.2532450000000002,2.489122,-0.20481,1.192087,-0.456233,0.0,14.0,70.0,185.0,33.0,1.0
434541,-0.631969,-1.332142,2.486151,0.117955,-0.22510500000000006,0.038871,0.0,14.0,70.0,185.0,33.0,1.0
434542,-0.538562,-1.377497,2.560342,-0.018945,-0.6815859999999999,0.6133609999999999,0.0,14.0,70.0,185.0,33.0,1.0
434543,-0.475932,-1.416187,2.623471,-0.347974,-0.784047,1.239154,0.0,14.0,70.0,185.0,33.0,1.0
434544,-0.525576,-1.426417,2.567367,-0.6013350000000001,0.019804,0.110782,0.0,14.0,70.0,185.0,33.0,1.0
434545,-0.616859,-1.350144,2.535639,-0.463793,0.735793,-0.563809,0.0,14.0,70.0,185.0,33.0,1.0
434546,-0.681211,-1.2129450000000002,2.634895,0.771303,1.825128,-0.833311,0.0,14.0,70.0,185.0,33.0,1.0
434547,-0.6066739999999999,-1.148394,2.7089220000000003,0.258384,0.473422,-0.708069,0.0,14.0,70.0,185.0,33.0,1.0
434548,-0.543235,-1.182729,2.705478,0.057258,-0.408949,0.204031,0.0,14.0,70.0,185.0,33.0,1.0
434549,-0.4980189999999999,-1.228853,2.6964080000000004,0.134782,-0.420239,0.17156400000000002,0.0,14.0,70.0,185.0,33.0,1.0
434550,-0.523587,-1.247709,2.672778,-0.007687,0.497831,0.100439,0.0,14.0,70.0,185.0,33.0,1.0
434551,-0.593371,-1.234887,2.641632,-0.020051,0.425777,-0.076824,0.0,14.0,70.0,185.0,33.0,1.0
434552,-0.6124729999999999,-1.210013,2.64726,-0.056691,0.144107,-0.537734,0.0,14.0,70.0,185.0,33.0,1.0
434553,-0.603414,-1.173913,2.65841,-0.134095,-0.097319,-0.401739,0.0,14.0,70.0,185.0,33.0,1.0
434554,-0.593166,-1.133073,2.650436,-0.128202,-0.037006,0.011422,0.0,14.0,70.0,185.0,33.0,1.0
434555,-0.585154,-1.082692,2.625295,-0.158376,-0.248946,0.532651,0.0,14.0,70.0,185.0,33.0,1.0
434556,-0.5786859999999999,-1.034948,2.594584,-0.087885,-0.5712010000000001,0.608513,0.0,14.0,70.0,185.0,33.0,1.0
434557,-0.596807,-0.985568,2.577693,-0.034848000000000004,-0.385893,0.623112,0.0,14.0,70.0,185.0,33.0,1.0
434558,-0.6350060000000001,-0.91157,2.58431,0.381651,0.14354,1.033741,0.0,14.0,70.0,185.0,33.0,1.0
434559,-0.6001810000000001,-0.8198790000000001,2.61649,0.623109,0.32605,-1.317369,0.0,14.0,70.0,185.0,33.0,1.0
434560,-0.608358,-0.800816,2.60911,0.491978,0.348146,-0.166231,0.0,14.0,70.0,185.0,33.0,1.0
434561,-0.598237,-0.8097810000000001,2.5984580000000004,-0.389702,-0.480896,0.048658,0.0,14.0,70.0,185.0,33.0,1.0
434562,-0.586536,-0.8309340000000001,2.591319,-0.214392,-0.611166,-0.058217,0.0,14.0,70.0,185.0,33.0,1.0
434563,-0.58048,-0.871343,2.601988,0.034456,-0.354351,-0.289644,0.0,14.0,70.0,185.0,33.0,1.0
434564,-0.5783550000000001,-0.938329,2.619567,0.085242,-0.443992,-0.373537,0.0,14.0,70.0,185.0,33.0,1.0
434565,-0.592026,-1.026484,2.621034,0.156935,-0.562149,-0.313649,0.0,14.0,70.0,185.0,33.0,1.0
434566,-0.616797,-1.123833,2.611611,0.205332,-0.502289,-0.195774,0.0,14.0,70.0,185.0,33.0,1.0
434567,-0.644776,-1.222001,2.5869470000000003,0.18305,0.018345,0.23335100000000006,0.0,14.0,70.0,185.0,33.0,1.0
434568,-0.683346,-1.315252,2.525811,0.233902,0.042758,0.286035,0.0,14.0,70.0,185.0,33.0,1.0
434569,-0.779313,-1.400372,2.39133,0.20765300000000006,-0.13366,0.28294899999999995,0.0,14.0,70.0,185.0,33.0,1.0
434570,-1.000183,-1.4585,2.147114,-0.222137,-0.414829,0.555358,0.0,14.0,70.0,185.0,33.0,1.0
434571,-1.2575889999999998,-1.477279,1.901032,-0.354961,-0.055475,0.471787,0.0,14.0,70.0,185.0,33.0,1.0
434572,-1.246679,-1.457585,1.96215,-0.46343,0.2286,0.037206,0.0,14.0,70.0,185.0,33.0,1.0
434573,-0.966843,-1.380172,2.368679,-0.607576,1.540483,-0.913418,0.0,14.0,70.0,185.0,33.0,1.0
434574,-0.902089,-1.285652,2.572304,0.530138,2.320301,-1.455874,0.0,14.0,70.0,185.0,33.0,1.0
434575,-0.743179,-1.257831,2.649052,0.567647,0.694129,-0.491537,0.0,14.0,70.0,185.0,33.0,1.0
434576,-0.618501,-1.314725,2.623352,0.122835,-0.401734,-0.632238,0.0,14.0,70.0,185.0,33.0,1.0
434577,-0.6176659999999999,-1.351425,2.586827,0.193452,0.112924,-0.043837,0.0,14.0,70.0,185.0,33.0,1.0
434578,-0.729979,-1.330657,2.53493,0.28727600000000003,0.453042,0.532057,0.0,14.0,70.0,185.0,33.0,1.0
434579,-0.758126,-1.2820129999999998,2.551059,0.06821,0.50755,-0.043824,0.0,14.0,70.0,185.0,33.0,1.0
434580,-0.712463,-1.206634,2.623755,-0.355769,-0.117528,0.221569,0.0,14.0,70.0,185.0,33.0,1.0
434581,-0.652163,-1.141382,2.669639,-0.486642,-0.365783,0.227223,0.0,14.0,70.0,185.0,33.0,1.0
434582,-0.596527,-1.094435,2.6898470000000003,-0.274964,-0.912855,0.247851,0.0,14.0,70.0,185.0,33.0,1.0
434583,-0.601097,-1.073918,2.6815290000000003,-0.13361199999999998,-1.076707,0.5131220000000001,0.0,14.0,70.0,185.0,33.0,1.0
434584,-0.62712,-1.062438,2.68436,0.364057,-0.927851,0.623754,0.0,14.0,70.0,185.0,33.0,1.0
434585,-0.6260789999999999,-1.041407,2.713985,0.85114,-0.598589,0.5832470000000001,0.0,14.0,70.0,185.0,33.0,1.0
434586,-0.590017,-1.022793,2.754114,0.739904,-0.312795,-0.186622,0.0,14.0,70.0,185.0,33.0,1.0
434587,-0.5841649999999999,-1.0303209999999998,2.747434,-0.011532,-0.368664,-0.231046,0.0,14.0,70.0,185.0,33.0,1.0
434588,-0.600187,-1.065955,2.719385,0.073451,-0.426551,-0.14818199999999998,0.0,14.0,70.0,185.0,33.0,1.0
434589,-0.624007,-1.114364,2.689133,0.230912,-0.217394,-0.115995,0.0,14.0,70.0,185.0,33.0,1.0
434590,-0.678629,-1.17449,2.632276,0.017058,0.12011,-0.088479,0.0,14.0,70.0,185.0,33.0,1.0
434591,-0.776958,-1.245075,2.528294,-0.545566,0.820738,-0.202529,0.0,14.0,70.0,185.0,33.0,1.0
434592,-0.871008,-1.322035,2.410134,-0.673315,1.362462,-0.45867,0.0,14.0,70.0,185.0,33.0,1.0
434593,-0.8840520000000001,-1.381109,2.373248,0.023408,0.257423,-0.845352,0.0,14.0,70.0,185.0,33.0,1.0
434594,-0.754401,-1.405164,2.501528,0.044789,-1.247453,-0.006228,0.0,14.0,70.0,185.0,33.0,1.0
434595,-0.747096,-1.433805,2.541923,-0.138801,-1.238526,0.810244,0.0,14.0,70.0,185.0,33.0,1.0
434596,-1.093741,-1.461403,2.16895,-0.240135,-0.045673000000000005,1.239982,0.0,14.0,70.0,185.0,33.0,1.0
434597,-1.381209,-1.441474,1.819085,0.101346,1.3560219999999998,0.324424,0.0,14.0,70.0,185.0,33.0,1.0
434598,-1.198108,-1.400898,2.012365,0.845037,1.5375,-0.15293199999999998,0.0,14.0,70.0,185.0,33.0,1.0
434599,-1.047144,-1.3871209999999998,2.187671,0.16104100000000002,0.622931,0.27095,0.0,14.0,70.0,185.0,33.0,1.0
434600,-1.0888950000000002,-1.3910129999999998,2.193308,-0.256967,0.425999,-1.50841,0.0,14.0,70.0,185.0,33.0,1.0
434601,-1.195338,-1.39681,2.129634,0.35206,-0.075708,0.102596,0.0,14.0,70.0,185.0,33.0,1.0
434602,-1.440225,-1.414733,1.822923,0.389301,-0.05143,-0.071532,0.0,14.0,70.0,185.0,33.0,1.0
434603,-1.73537,-1.420499,1.457702,0.416774,-0.0983,0.101221,0.0,14.0,70.0,185.0,33.0,1.0
434604,-1.946832,-1.407464,1.194149,0.101008,-0.276028,0.008744,0.0,14.0,70.0,185.0,33.0,1.0
434605,-2.0519380000000003,-1.388366,1.069053,0.010704,-0.32260900000000003,-0.171017,0.0,14.0,70.0,185.0,33.0,1.0
434606,-2.118309,-1.367575,1.014003,0.012321,-0.126745,-0.640364,0.0,14.0,70.0,185.0,33.0,1.0
434607,-2.236038,-1.33394,0.921696,0.15467999999999998,-0.164906,-0.32006,0.0,14.0,70.0,185.0,33.0,1.0
434608,-2.237201,-1.303656,0.8901459999999999,0.367979,-0.207602,-0.13418,0.0,14.0,70.0,185.0,33.0,1.0
434609,-2.139207,-1.282044,0.934738,0.182079,-0.158887,-0.366945,0.0,14.0,70.0,185.0,33.0,1.0
434610,-2.037912,-1.266972,1.029925,0.122032,-0.269568,-0.33123400000000003,0.0,14.0,70.0,185.0,33.0,1.0
434611,-1.916544,-1.251287,1.195547,0.198382,-0.51453,-0.123108,0.0,14.0,70.0,185.0,33.0,1.0
434612,-1.75177,-1.2345540000000002,1.403901,0.354025,0.5454399999999999,0.367633,0.0,14.0,70.0,185.0,33.0,1.0
434613,-1.54926,-1.224607,1.624995,0.479442,1.255647,0.515562,0.0,14.0,70.0,185.0,33.0,1.0
434614,-1.342424,-1.238319,1.853466,0.242984,1.833023,0.297553,0.0,14.0,70.0,185.0,33.0,1.0
434615,-1.1780389999999998,-1.259642,2.054563,-0.537809,0.974411,0.20589,0.0,14.0,70.0,185.0,33.0,1.0
434616,-1.027854,-1.273911,2.239284,-0.449423,1.002946,0.008502,0.0,14.0,70.0,185.0,33.0,1.0
434617,-0.887972,-1.27223,2.431618,0.185134,0.968374,-0.086845,0.0,14.0,70.0,185.0,33.0,1.0
434618,-0.786071,-1.261758,2.606774,0.5350560000000001,1.011958,-0.08056,0.0,14.0,70.0,185.0,33.0,1.0
434619,-0.7423,-1.262569,2.7713400000000004,0.5219020000000001,0.784355,0.414074,0.0,14.0,70.0,185.0,33.0,1.0
434620,-0.65451,-1.253428,2.959038,0.3960280000000001,0.684675,0.442747,0.0,14.0,70.0,185.0,33.0,1.0
434621,-0.5912810000000001,-1.236741,3.109271,-0.112067,0.029508,0.500051,0.0,14.0,70.0,185.0,33.0,1.0
434622,-0.556553,-1.222524,-3.062223,-0.24747,-0.482612,0.5379189999999999,0.0,14.0,70.0,185.0,33.0,1.0
434623,-0.544946,-1.211724,-2.973857,-0.221561,-0.638265,0.519725,0.0,14.0,70.0,185.0,33.0,1.0
434624,-0.541161,-1.207287,-2.894689,0.17691400000000002,-0.781472,0.302106,0.0,14.0,70.0,185.0,33.0,1.0
434625,-0.55671,-1.215451,-2.835599,0.269801,-0.7211420000000001,0.3708280000000001,0.0,14.0,70.0,185.0,33.0,1.0
434626,-0.576629,-1.233877,-2.801847,0.168481,-0.6734220000000001,0.336083,0.0,14.0,70.0,185.0,33.0,1.0
434627,-0.5899449999999999,-1.261239,-2.786483,-0.214151,-0.715698,0.227718,0.0,14.0,70.0,185.0,33.0,1.0
434628,-0.628944,-1.296371,-2.814192,-0.266256,-0.725719,0.089692,0.0,14.0,70.0,185.0,33.0,1.0
434629,-0.700282,-1.326814,-2.882357,-0.262102,-0.229234,-0.108289,0.0,14.0,70.0,185.0,33.0,1.0
434630,-0.7417279999999999,-1.334615,-2.915189,-0.172894,0.7594810000000001,-0.6074069999999999,0.0,14.0,70.0,185.0,33.0,1.0
434631,-0.7041029999999999,-1.302118,-2.851452,-0.136252,1.6908,-1.129556,0.0,14.0,70.0,185.0,33.0,1.0
434632,-0.7213729999999999,-1.237322,-2.761021,0.047696,0.094793,-0.485965,0.0,14.0,70.0,185.0,33.0,1.0
434633,-0.740109,-1.172489,-2.639892,0.267904,-1.216946,-0.205539,0.0,14.0,70.0,185.0,33.0,1.0
434634,-0.764342,-1.140643,-2.5462700000000003,0.8961379999999999,-1.664944,0.238144,0.0,14.0,70.0,185.0,33.0,1.0
434635,-0.7546930000000001,-1.159563,-2.486908,0.942683,0.098554,0.857224,0.0,14.0,70.0,185.0,33.0,1.0
434636,-0.668135,-1.187969,-2.477389,0.8324600000000001,2.931,0.538582,0.0,14.0,70.0,185.0,33.0,1.0
434637,-0.591547,-1.175273,-2.489147,0.600214,1.9178580000000005,0.713388,0.0,14.0,70.0,185.0,33.0,1.0
434638,-0.6322479999999999,-1.153409,-2.502177,-0.674216,-0.148526,0.782975,0.0,14.0,70.0,185.0,33.0,1.0
434639,-0.752304,-1.133134,-2.531702,-0.716453,-1.20175,0.116505,0.0,14.0,70.0,185.0,33.0,1.0
434640,-0.826685,-1.099083,-2.491476,-0.098389,0.074068,-0.08978799999999999,0.0,14.0,70.0,185.0,33.0,1.0
434641,-0.8885129999999999,-1.096004,-2.50119,0.29469,0.608934,-0.048742,0.0,14.0,70.0,185.0,33.0,1.0
434642,-0.968825,-1.159858,-2.655549,0.77546,0.652345,0.205025,0.0,14.0,70.0,185.0,33.0,1.0
434643,-1.072676,-1.237988,-2.852119,0.678991,0.883393,-0.015698,0.0,14.0,70.0,185.0,33.0,1.0
434644,-1.179278,-1.28717,-2.998519,0.563145,0.224905,0.406052,0.0,14.0,70.0,185.0,33.0,1.0
434645,-1.270863,-1.321275,-3.087851,0.255269,-0.341986,0.335606,0.0,14.0,70.0,185.0,33.0,1.0
434646,-1.4066379999999998,-1.341883,3.087283,-0.110067,-0.389624,-0.055875,0.0,14.0,70.0,185.0,33.0,1.0
434647,-1.556674,-1.345571,2.993191,-0.230491,-0.347486,-0.222615,0.0,14.0,70.0,185.0,33.0,1.0
434648,-1.693671,-1.345316,2.93611,-0.135378,-0.17386,-0.30982600000000005,0.0,14.0,70.0,185.0,33.0,1.0
434649,-1.826007,-1.34409,2.860244,-0.045554,-0.16414,-0.30825,0.0,14.0,70.0,185.0,33.0,1.0
434650,-1.944127,-1.339553,2.740521,0.076321,-0.186593,-0.247709,0.0,14.0,70.0,185.0,33.0,1.0
434651,-2.022416,-1.3308799999999998,2.623746,0.168744,-0.220259,-0.110108,0.0,14.0,70.0,185.0,33.0,1.0
434652,-2.080263,-1.316853,2.520046,0.18809,-0.156452,-0.049094,0.0,14.0,70.0,185.0,33.0,1.0
434653,-2.11176,-1.300274,2.440293,0.267475,-0.060479,0.029015,0.0,14.0,70.0,185.0,33.0,1.0
434654,-2.154904,-1.2824950000000002,2.360709,0.28779,0.208356,-0.15433,0.0,14.0,70.0,185.0,33.0,1.0
434655,-2.245099,-1.261168,2.278689,0.357777,0.348029,-0.246268,0.0,14.0,70.0,185.0,33.0,1.0
434656,-2.3110880000000003,-1.247169,2.2592220000000003,0.489683,0.316042,-0.260924,0.0,14.0,70.0,185.0,33.0,1.0
434657,-2.32856,-1.242525,2.2868630000000003,0.251882,0.492196,-0.353633,0.0,14.0,70.0,185.0,33.0,1.0
434658,-2.369662,-1.237115,2.271137,-0.001685,0.57481,-0.788427,0.0,14.0,70.0,185.0,33.0,1.0
434659,-2.397248,-1.233829,2.266542,-0.098046,0.6534369999999999,-0.73816,0.0,14.0,70.0,185.0,33.0,1.0
434660,-2.33255,-1.242799,2.344277,0.618256,0.49786,-0.263934,0.0,14.0,70.0,185.0,33.0,1.0
434661,-2.235629,-1.257837,2.449925,0.8519629999999999,0.267522,0.014597,0.0,14.0,70.0,185.0,33.0,1.0
434662,-2.12014,-1.280663,2.582819,0.851967,0.134827,0.059573,0.0,14.0,70.0,185.0,33.0,1.0
434663,-1.982959,-1.295334,2.780008,0.29036,0.06655499999999999,0.061715,0.0,14.0,70.0,185.0,33.0,1.0
434664,-1.824706,-1.299305,3.021779,0.07641,0.089271,0.104333,0.0,14.0,70.0,185.0,33.0,1.0
434665,-1.637584,-1.298163,-2.9912,0.106398,0.437142,0.15607200000000002,0.0,14.0,70.0,185.0,33.0,1.0
434666,-1.404115,-1.287641,-2.703569,0.291407,0.857051,0.365154,0.0,14.0,70.0,185.0,33.0,1.0
434667,-1.223568,-1.274426,-2.5060130000000003,0.32652600000000004,0.926471,0.20755,0.0,14.0,70.0,185.0,33.0,1.0
434668,-1.183714,-1.276292,-2.418909,0.235688,0.793588,0.371532,0.0,14.0,70.0,185.0,33.0,1.0
434669,-1.220876,-1.286682,-2.347314,0.31217399999999995,0.477056,0.673441,0.0,14.0,70.0,185.0,33.0,1.0
434670,-1.192915,-1.284334,-2.185977,0.443985,0.169916,0.558427,0.0,14.0,70.0,185.0,33.0,1.0
434671,-1.141952,-1.268442,-1.991691,0.4430560000000001,0.05882,0.425543,0.0,14.0,70.0,185.0,33.0,1.0
434672,-1.05691,-1.2443030000000002,-1.787723,0.35237,0.027299,0.35077,0.0,14.0,70.0,185.0,33.0,1.0
434673,-0.95036,-1.211864,-1.588453,0.316412,-0.175271,0.190966,0.0,14.0,70.0,185.0,33.0,1.0
434674,-0.8729979999999999,-1.180599,-1.417428,0.239229,-0.440917,0.209013,0.0,14.0,70.0,185.0,33.0,1.0
434675,-0.8308059999999999,-1.1640549999999998,-1.281432,0.417473,-0.496097,0.318971,0.0,14.0,70.0,185.0,33.0,1.0
434676,-0.822254,-1.16394,-1.180777,0.455495,-0.514225,0.430739,0.0,14.0,70.0,185.0,33.0,1.0
434677,-0.8251569999999999,-1.169516,-1.099772,0.463236,-0.461699,0.539546,0.0,14.0,70.0,185.0,33.0,1.0
434678,-0.8230040000000001,-1.1714639999999998,-1.02491,0.388566,-0.314906,0.540775,0.0,14.0,70.0,185.0,33.0,1.0
434679,-0.809729,-1.174859,-0.95136,0.224836,-0.36009,0.456165,0.0,14.0,70.0,185.0,33.0,1.0
434680,-0.78438,-1.191956,-0.8775940000000001,-0.093013,-0.503847,0.206287,0.0,14.0,70.0,185.0,33.0,1.0
434681,-0.757141,-1.220287,-0.8167770000000001,-0.092632,-0.501973,0.180381,0.0,14.0,70.0,185.0,33.0,1.0
434682,-0.7356739999999999,-1.251944,-0.7803140000000001,-0.119817,-0.264095,-0.041478,0.0,14.0,70.0,185.0,33.0,1.0
434683,-0.711121,-1.2822,-0.76305,-0.109975,-0.090236,-0.254362,0.0,14.0,70.0,185.0,33.0,1.0
434684,-0.6476390000000001,-1.303584,-0.7219869999999999,-0.012884,0.517408,-0.637113,0.0,14.0,70.0,185.0,33.0,1.0
434685,-0.5983390000000001,-1.303204,-0.6776340000000001,0.020529,1.141898,-0.929067,0.0,14.0,70.0,185.0,33.0,1.0
434686,-0.630271,-1.281842,-0.649858,-0.026431,0.546462,-0.688474,0.0,14.0,70.0,185.0,33.0,1.0
434687,-0.612765,-1.216513,-0.532091,0.131299,0.32541,-0.4579180000000001,0.0,14.0,70.0,185.0,33.0,1.0
434688,-0.6049939999999999,-1.132707,-0.420376,0.89099,0.969772,1.311208,0.0,14.0,70.0,185.0,33.0,1.0
434689,-0.571271,-1.119421,-0.38389,0.8204030000000001,-0.195106,1.84962,0.0,14.0,70.0,185.0,33.0,1.0
434690,-0.464273,-1.184547,-0.366918,0.661388,-1.275862,1.996337,0.0,14.0,70.0,185.0,33.0,1.0
434691,-0.429713,-1.250321,-0.435443,-0.374805,-0.678532,0.5751310000000001,0.0,14.0,70.0,185.0,33.0,1.0
434692,-0.593125,-1.20989,-0.530496,-0.423442,1.483505,-0.061397,0.0,14.0,70.0,185.0,33.0,1.0
434693,-0.744262,-1.14011,-0.553309,-0.244981,1.760144,0.754566,0.0,14.0,70.0,185.0,33.0,1.0
434694,-0.756031,-1.1512639999999998,-0.539199,0.4881390000000001,0.364919,-0.117444,0.0,14.0,70.0,185.0,33.0,1.0
434695,-0.6898569999999999,-1.193367,-0.508666,0.465315,0.051006,-0.663784,0.0,14.0,70.0,185.0,33.0,1.0
434696,-0.62925,-1.219001,-0.469316,0.133325,-0.260701,-0.231535,0.0,14.0,70.0,185.0,33.0,1.0
434697,-0.555121,-1.252353,-0.433379,0.028886,-0.5123,0.083636,0.0,14.0,70.0,185.0,33.0,1.0
434698,-0.495657,-1.293118,-0.412263,0.131472,-0.375375,-0.039754000000000005,0.0,14.0,70.0,185.0,33.0,1.0
434699,-0.481002,-1.320049,-0.413919,0.188528,-0.19651,0.086086,0.0,14.0,70.0,185.0,33.0,1.0
434700,-0.474762,-1.326864,-0.413152,0.06902,-0.186491,-0.10168,0.0,14.0,70.0,185.0,33.0,1.0
434701,-0.458831,-1.321934,-0.39056,0.008177,-0.272645,-0.194509,0.0,14.0,70.0,185.0,33.0,1.0
434702,-0.440923,-1.309099,-0.351578,-0.225937,-0.418436,-0.75634,0.0,14.0,70.0,185.0,33.0,1.0
434703,-0.461704,-1.293651,-0.332881,-0.230533,-0.434298,-0.615334,0.0,14.0,70.0,185.0,33.0,1.0
434704,-0.488633,-1.280672,-0.344845,-0.031273,-0.365008,-0.377263,0.0,14.0,70.0,185.0,33.0,1.0
434705,-0.500926,-1.263789,-0.365996,0.271563,0.15929100000000002,-0.30345500000000003,0.0,14.0,70.0,185.0,33.0,1.0
434706,-0.501456,-1.234224,-0.380785,0.271925,0.14087,-0.182442,0.0,14.0,70.0,185.0,33.0,1.0
434707,-0.502728,-1.1879309999999998,-0.394872,0.193728,0.051894,-0.029367,0.0,14.0,70.0,185.0,33.0,1.0
434708,-0.524029,-1.136361,-0.420398,0.12813,-0.297687,0.452518,0.0,14.0,70.0,185.0,33.0,1.0
434709,-0.581403,-1.104589,-0.464854,0.020254,-0.597122,0.6328590000000001,0.0,14.0,70.0,185.0,33.0,1.0
434710,-0.6262939999999999,-1.060018,-0.502364,0.108286,-0.617863,0.896956,0.0,14.0,70.0,185.0,33.0,1.0
434711,-0.633706,-0.985786,-0.52095,0.372436,-0.000393,0.828472,0.0,14.0,70.0,185.0,33.0,1.0
434712,-0.617822,-0.890799,-0.5108779999999999,0.164846,0.920973,0.526713,0.0,14.0,70.0,185.0,33.0,1.0
434713,-0.586457,-0.794094,-0.48167,-0.122884,0.800702,-1.132744,0.0,14.0,70.0,185.0,33.0,1.0
434714,-0.576033,-0.7748010000000001,-0.477918,0.299652,-0.055607,0.027977,0.0,14.0,70.0,185.0,33.0,1.0
434715,-0.5673189999999999,-0.789788,-0.483074,0.288738,-0.066238,0.022436,0.0,14.0,70.0,185.0,33.0,1.0
434716,-0.5517029999999999,-0.826809,-0.481364,-0.125326,-0.581752,-0.21703000000000006,0.0,14.0,70.0,185.0,33.0,1.0
434717,-0.539986,-0.8939389999999999,-0.475494,-0.02367,-0.571858,-0.165671,0.0,14.0,70.0,185.0,33.0,1.0
434718,-0.5298970000000001,-0.983079,-0.471478,0.030966000000000007,-0.384653,-0.13533299999999998,0.0,14.0,70.0,185.0,33.0,1.0
434719,-0.513884,-1.082124,-0.464259,0.08045,-0.094322,-0.215878,0.0,14.0,70.0,185.0,33.0,1.0
434720,-0.487194,-1.183915,-0.4472100000000001,0.217876,0.457012,-0.172537,0.0,14.0,70.0,185.0,33.0,1.0
434721,-0.468454,-1.281238,-0.430342,0.577829,0.799854,0.059907,0.0,14.0,70.0,185.0,33.0,1.0
434722,-0.402066,-1.354447,-0.363337,0.405547,-0.507358,0.461941,0.0,14.0,70.0,185.0,33.0,1.0
434723,-0.201133,-1.407678,-0.14161400000000002,0.118851,-0.8729870000000001,0.584447,0.0,14.0,70.0,185.0,33.0,1.0
434724,0.026463,-1.437353,0.13231500000000002,-0.256999,-0.504522,0.458406,0.0,14.0,70.0,185.0,33.0,1.0
434725,-0.142565,-1.426609,0.015897,-0.470538,0.6188819999999999,0.460101,0.0,14.0,70.0,185.0,33.0,1.0
434726,-0.498097,-1.3437629999999998,-0.26760500000000004,-0.491071,1.396267,0.240423,0.0,14.0,70.0,185.0,33.0,1.0
434727,-0.520015,-1.2258440000000002,-0.198856,-0.295387,0.973978,0.629232,0.0,14.0,70.0,185.0,33.0,1.0
434728,-0.481501,-1.198337,-0.180561,0.377389,0.185142,0.018602,0.0,14.0,70.0,185.0,33.0,1.0
434729,-0.45407,-1.189041,-0.178704,0.495958,-0.140003,0.398896,0.0,14.0,70.0,185.0,33.0,1.0
434730,-0.402948,-1.208205,-0.195788,0.194888,0.304842,-0.241082,0.0,14.0,70.0,185.0,33.0,1.0
434731,-0.408336,-1.186565,-0.22214,0.071939,0.302451,0.146865,0.0,14.0,70.0,185.0,33.0,1.0
434732,-0.455087,-1.153734,-0.246296,-0.014474,-0.017203,0.105316,0.0,14.0,70.0,185.0,33.0,1.0
434733,-0.492579,-1.096514,-0.26471,-0.04477,-0.480731,0.245435,0.0,14.0,70.0,185.0,33.0,1.0
434734,-0.491829,-1.032559,-0.297173,-0.045442,-0.554765,0.440858,0.0,14.0,70.0,185.0,33.0,1.0
434735,-0.480116,-0.982404,-0.328449,-0.083672,-0.720933,0.5812149999999999,0.0,14.0,70.0,185.0,33.0,1.0
434736,-0.5264300000000001,-0.94778,-0.374936,0.024495,-0.741261,0.8304889999999999,0.0,14.0,70.0,185.0,33.0,1.0
434737,-0.591475,-0.901791,-0.407756,0.450492,0.012847999999999998,0.454113,0.0,14.0,70.0,185.0,33.0,1.0
434738,-0.592446,-0.849118,-0.408958,0.251024,0.474156,-0.324961,0.0,14.0,70.0,185.0,33.0,1.0
434739,-0.5898720000000001,-0.8310049999999999,-0.423375,0.383488,0.0868,0.141266,0.0,14.0,70.0,185.0,33.0,1.0
434740,-0.600904,-0.830966,-0.440314,-0.28978200000000004,-0.278454,-0.110424,0.0,14.0,70.0,185.0,33.0,1.0
434741,-0.621396,-0.8539260000000001,-0.4484,-0.12113,0.132654,0.026562,0.0,14.0,70.0,185.0,33.0,1.0
434742,-0.631162,-0.895339,-0.444921,-0.181449,0.148351,-0.264342,0.0,14.0,70.0,185.0,33.0,1.0
434743,-0.618074,-0.947683,-0.434087,0.046515,-0.024742,-0.325484,0.0,14.0,70.0,185.0,33.0,1.0
434744,-0.5830609999999999,-1.007743,-0.4193850000000001,0.084105,-0.091525,-0.450325,0.0,14.0,70.0,185.0,33.0,1.0
434745,-0.5493100000000001,-1.072983,-0.403694,0.097097,0.053241,-0.507204,0.0,14.0,70.0,185.0,33.0,1.0
434746,-0.520883,-1.13847,-0.389946,0.036858,0.200176,-0.438541,0.0,14.0,70.0,185.0,33.0,1.0
434747,-0.492029,-1.205294,-0.379251,-0.0651,0.539429,-0.17968900000000002,0.0,14.0,70.0,185.0,33.0,1.0
434748,-0.46698,-1.2669290000000002,-0.372962,-0.155567,0.3021,0.182134,0.0,14.0,70.0,185.0,33.0,1.0
434749,-0.399048,-1.325612,-0.316427,-0.125844,-0.237533,0.6633399999999999,0.0,14.0,70.0,185.0,33.0,1.0
434750,-0.273213,-1.399576,-0.191821,-0.420886,-0.494823,0.922737,0.0,14.0,70.0,185.0,33.0,1.0
434751,-0.196117,-1.454929,-0.119903,-0.644025,-0.4349,0.696843,0.0,14.0,70.0,185.0,33.0,1.0
434752,-0.30341,-1.470654,-0.236453,-0.430997,-0.170786,0.025184,0.0,14.0,70.0,185.0,33.0,1.0
434753,-0.477911,-1.43569,-0.37539,0.001732,0.31055,-0.8672549999999999,0.0,14.0,70.0,185.0,33.0,1.0
434754,-0.645882,-1.35199,-0.398293,-0.140715,2.313836,-0.948919,0.0,14.0,70.0,185.0,33.0,1.0
434755,-0.6984130000000001,-1.291035,-0.360946,0.8413950000000001,0.802367,-0.801652,0.0,14.0,70.0,185.0,33.0,1.0
434756,-0.548216,-1.286001,-0.279025,0.269197,-0.862353,0.817679,0.0,14.0,70.0,185.0,33.0,1.0
434757,-0.381624,-1.315193,-0.232013,0.071667,-0.736676,0.586182,0.0,14.0,70.0,185.0,33.0,1.0
434758,-0.280599,-1.353117,-0.216094,-0.37504,-0.03057,-0.28953,0.0,14.0,70.0,185.0,33.0,1.0
434759,-0.356078,-1.364932,-0.264959,0.1423,0.370709,0.233162,0.0,14.0,70.0,185.0,33.0,1.0
434760,-0.444801,-1.362604,-0.302293,0.235415,0.349887,-0.103833,0.0,14.0,70.0,185.0,33.0,1.0
434761,-0.501332,-1.335449,-0.281434,-0.006286,0.141321,-0.507847,0.0,14.0,70.0,185.0,33.0,1.0
434762,-0.52244,-1.289718,-0.242107,-0.16931,-0.310778,-0.400363,0.0,14.0,70.0,185.0,33.0,1.0
434763,-0.5198649999999999,-1.241012,-0.240641,-0.184971,-0.321158,-0.183288,0.0,14.0,70.0,185.0,33.0,1.0
434764,-0.495385,-1.172352,-0.26749,-0.250868,-0.459492,0.435579,0.0,14.0,70.0,185.0,33.0,1.0
434765,-0.458711,-1.090441,-0.31358,-0.06727000000000001,-0.385412,0.5435949999999999,0.0,14.0,70.0,185.0,33.0,1.0
434766,-0.457269,-1.015499,-0.36235,0.11331,-0.33228800000000003,0.7817470000000001,0.0,14.0,70.0,185.0,33.0,1.0
434767,-0.540603,-0.944478,-0.387874,0.369924,-0.142726,0.799543,0.0,14.0,70.0,185.0,33.0,1.0
434768,-0.572052,-0.853499,-0.374768,0.266368,0.265793,-0.521937,0.0,14.0,70.0,185.0,33.0,1.0
434769,-0.559663,-0.804012,-0.377363,0.311084,0.285179,0.322709,0.0,14.0,70.0,185.0,33.0,1.0
434770,-0.575098,-0.7804989999999999,-0.397539,-0.126987,-0.230032,0.152946,0.0,14.0,70.0,185.0,33.0,1.0
434771,-0.583203,-0.772188,-0.418468,-0.13074000000000002,-0.232662,0.045142,0.0,14.0,70.0,185.0,33.0,1.0
434772,-0.569465,-0.789083,-0.424834,-0.117464,-0.23934,-0.23007600000000006,0.0,14.0,70.0,185.0,33.0,1.0
434773,-0.555057,-0.836828,-0.420932,-0.081291,-0.360854,-0.352095,0.0,14.0,70.0,185.0,33.0,1.0
434774,-0.5490010000000001,-0.910945,-0.415607,0.034789,-0.343077,-0.3586,0.0,14.0,70.0,185.0,33.0,1.0
434775,-0.55116,-1.001395,-0.410722,0.05224,-0.324035,-0.334989,0.0,14.0,70.0,185.0,33.0,1.0
434776,-0.546813,-1.100276,-0.404373,0.077279,0.00207,-0.173318,0.0,14.0,70.0,185.0,33.0,1.0
434777,-0.5174479999999999,-1.201103,-0.391152,0.150385,0.6984520000000001,0.273145,0.0,14.0,70.0,185.0,33.0,1.0
434778,-0.445378,-1.290911,-0.373241,0.250306,0.293231,0.353297,0.0,14.0,70.0,185.0,33.0,1.0
434779,-0.315795,-1.356146,-0.2954,-0.026957,-0.497147,0.813673,0.0,14.0,70.0,185.0,33.0,1.0
434780,-0.194372,-1.3978,-0.168222,-0.229373,-0.252514,0.8258840000000001,0.0,14.0,70.0,185.0,33.0,1.0
434781,-0.200601,-1.406023,-0.134876,-0.824083,0.583292,-0.235875,0.0,14.0,70.0,185.0,33.0,1.0
434782,-0.401192,-1.345861,-0.22996,-0.26757600000000004,0.621474,-0.47668,0.0,14.0,70.0,185.0,33.0,1.0
434783,-0.571754,-1.2684030000000002,-0.266489,0.103464,1.324747,-1.005728,0.0,14.0,70.0,185.0,33.0,1.0
434784,-0.580874,-1.243463,-0.289492,-0.169652,1.099972,-0.656208,0.0,14.0,70.0,185.0,33.0,1.0
434785,-0.502987,-1.243473,-0.272887,0.34870500000000004,-0.229209,0.46833,0.0,14.0,70.0,185.0,33.0,1.0
434786,-0.452469,-1.258883,-0.252704,0.320502,-0.388119,-0.090919,0.0,14.0,70.0,185.0,33.0,1.0
434787,-0.445022,-1.258174,-0.25150100000000003,0.26725,0.351036,-0.261682,0.0,14.0,70.0,185.0,33.0,1.0
434788,-0.48854,-1.20823,-0.269066,0.106035,0.258186,0.25106100000000003,0.0,14.0,70.0,185.0,33.0,1.0
434789,-0.528787,-1.148301,-0.302155,-0.049583,0.027339,0.302044,0.0,14.0,70.0,185.0,33.0,1.0
434790,-0.532782,-1.073534,-0.348147,-0.031084,-0.736115,0.584348,0.0,14.0,70.0,185.0,33.0,1.0
434791,-0.5154989999999999,-1.010898,-0.398483,-0.176098,-0.880741,0.510892,0.0,14.0,70.0,185.0,33.0,1.0
434792,-0.538862,-0.960959,-0.44812,-0.149289,-0.924493,0.622004,0.0,14.0,70.0,185.0,33.0,1.0
434793,-0.58062,-0.902851,-0.472208,0.558761,-0.29358,0.46767,0.0,14.0,70.0,185.0,33.0,1.0
434794,-0.596885,-0.8431649999999999,-0.472668,0.534904,0.167769,-0.211467,0.0,14.0,70.0,185.0,33.0,1.0
434795,-0.588577,-0.831889,-0.4758020000000001,0.328643,0.23423,0.046985,0.0,14.0,70.0,185.0,33.0,1.0
434796,-0.5816439999999999,-0.8400219999999999,-0.488825,-0.027457,-0.443923,-0.040393,0.0,14.0,70.0,185.0,33.0,1.0
434797,-0.589296,-0.859973,-0.499281,0.05778,-0.421216,-0.08666599999999999,0.0,14.0,70.0,185.0,33.0,1.0
434798,-0.600629,-0.902655,-0.497532,-0.028881,-0.039705,-0.065868,0.0,14.0,70.0,185.0,33.0,1.0
434799,-0.598595,-0.968804,-0.48393,-0.199174,0.165979,-0.297894,0.0,14.0,70.0,185.0,33.0,1.0
434800,-0.570713,-1.0518299999999998,-0.449993,-0.159424,0.211975,-0.474395,0.0,14.0,70.0,185.0,33.0,1.0
434801,-0.500496,-1.136499,-0.38786,-0.003885,0.61322,-0.5050020000000001,0.0,14.0,70.0,185.0,33.0,1.0
434802,-0.396149,-1.212766,-0.310241,0.119257,0.578975,-0.55823,0.0,14.0,70.0,185.0,33.0,1.0
434803,-0.272267,-1.27235,-0.205418,0.140729,0.197297,-0.128806,0.0,14.0,70.0,185.0,33.0,1.0
434804,-0.18566,-1.315219,-0.103433,-0.314465,-0.467075,1.418799,0.0,14.0,70.0,185.0,33.0,1.0
434805,-0.110841,-1.345616,-0.013981,-0.303703,-0.324943,1.244926,0.0,14.0,70.0,185.0,33.0,1.0
434806,-0.120689,-1.353801,-0.030368,-0.616689,0.257567,0.3727,0.0,14.0,70.0,185.0,33.0,1.0
434807,-0.269991,-1.296898,-0.136372,0.03279,1.853347,-1.210116,0.0,14.0,70.0,185.0,33.0,1.0
434808,-0.502164,-1.166676,-0.217087,0.124058,1.603119,-0.940617,0.0,14.0,70.0,185.0,33.0,1.0
434809,-0.507505,-1.1163379999999998,-0.236753,0.5226350000000001,-0.14111300000000002,0.30356500000000003,0.0,14.0,70.0,185.0,33.0,1.0
434810,-0.382958,-1.132315,-0.229459,0.444593,-0.213488,-0.064216,0.0,14.0,70.0,185.0,33.0,1.0
434811,-0.327789,-1.157669,-0.217909,0.27505100000000005,0.105874,0.147703,0.0,14.0,70.0,185.0,33.0,1.0
434812,-0.357074,-1.193227,-0.230665,0.268598,0.255693,0.034855000000000004,0.0,14.0,70.0,185.0,33.0,1.0
434813,-0.416103,-1.214736,-0.233646,-0.056767999999999985,0.140954,-0.32353200000000004,0.0,14.0,70.0,185.0,33.0,1.0
434814,-0.453798,-1.205877,-0.230134,-0.153554,-0.035364,-0.341652,0.0,14.0,70.0,185.0,33.0,1.0
434815,-0.464623,-1.199064,-0.23582600000000006,-0.20579,-0.270124,-0.192509,0.0,14.0,70.0,185.0,33.0,1.0
434816,-0.473137,-1.189506,-0.251017,-0.189429,-0.404763,0.154505,0.0,14.0,70.0,185.0,33.0,1.0
434817,-0.472563,-1.156955,-0.275491,-0.209147,-0.514628,0.340093,0.0,14.0,70.0,185.0,33.0,1.0
434818,-0.469317,-1.106592,-0.31766700000000003,-0.12148699999999997,-0.530226,0.525886,0.0,14.0,70.0,185.0,33.0,1.0
434819,-0.479991,-1.053513,-0.365409,0.026266,-0.23347,0.687446,0.0,14.0,70.0,185.0,33.0,1.0
434820,-0.550349,-1.01604,-0.399987,0.099646,0.115623,0.7300840000000001,0.0,14.0,70.0,185.0,33.0,1.0
434821,-0.62749,-0.945015,-0.40573,0.370043,0.45399,0.004178,0.0,14.0,70.0,185.0,33.0,1.0
434822,-0.627046,-0.867403,-0.404032,-0.181304,0.7866489999999999,-0.389173,0.0,14.0,70.0,185.0,33.0,1.0
434823,-0.624119,-0.843774,-0.419591,0.116755,0.227574,0.400277,0.0,14.0,70.0,185.0,33.0,1.0
434824,-0.626318,-0.829326,-0.435458,0.1238,-0.6880069999999999,0.240417,0.0,14.0,70.0,185.0,33.0,1.0
434825,-0.623816,-0.8260219999999999,-0.442341,0.046031,-0.478191,-0.125058,0.0,14.0,70.0,185.0,33.0,1.0
434826,-0.6107239999999999,-0.851107,-0.441462,0.005224,-0.001721,-0.18707,0.0,14.0,70.0,185.0,33.0,1.0
434827,-0.591214,-0.90762,-0.4405060000000001,0.104191,-0.195939,-0.132747,0.0,14.0,70.0,185.0,33.0,1.0
434828,-0.574983,-0.982518,-0.438761,0.021111,-0.29880100000000004,-0.121783,0.0,14.0,70.0,185.0,33.0,1.0
434829,-0.5537529999999999,-1.064631,-0.428445,-0.056685,-0.139014,-0.165846,0.0,14.0,70.0,185.0,33.0,1.0
434830,-0.520709,-1.151422,-0.408658,-0.018131,0.198976,-0.292639,0.0,14.0,70.0,185.0,33.0,1.0
434831,-0.495405,-1.241718,-0.390636,0.089099,0.536768,-0.260808,0.0,14.0,70.0,185.0,33.0,1.0
434832,-0.513649,-1.32741,-0.410678,0.061448,0.622139,-0.08694400000000001,0.0,14.0,70.0,185.0,33.0,1.0
434833,-0.527375,-1.396278,-0.438034,0.052038,0.25019,0.030188,0.0,14.0,70.0,185.0,33.0,1.0
434834,-0.369094,-1.443026,-0.303535,-0.14669400000000002,-0.312573,0.030461,0.0,14.0,70.0,185.0,33.0,1.0
434835,-0.12548800000000002,-1.46722,-0.051781,-0.367052,-0.918011,0.632328,0.0,14.0,70.0,185.0,33.0,1.0
434836,0.081175,-1.478919,0.17719200000000002,-0.628562,-0.590448,0.616566,0.0,14.0,70.0,185.0,33.0,1.0
434837,-0.014333000000000004,-1.481137,0.101371,-0.4158770000000001,0.218632,0.463055,0.0,14.0,70.0,185.0,33.0,1.0
434838,-0.295197,-1.461534,-0.16386099999999998,-0.031957,0.959882,-0.265549,0.0,14.0,70.0,185.0,33.0,1.0
434839,-0.455978,-1.409823,-0.255822,0.5741569999999999,1.420597,-1.70674,0.0,14.0,70.0,185.0,33.0,1.0
434840,-0.436789,-1.34184,-0.174093,0.502777,0.459019,0.644305,0.0,14.0,70.0,185.0,33.0,1.0
434841,-0.257354,-1.376656,-0.124482,-0.255846,0.35773,-0.367686,0.0,14.0,70.0,185.0,33.0,1.0
434842,-0.155996,-1.409542,-0.060689,-0.061926,0.457691,0.157753,0.0,14.0,70.0,185.0,33.0,1.0
434843,-0.207378,-1.4055030000000002,-0.076829,0.201463,0.400288,0.167366,0.0,14.0,70.0,185.0,33.0,1.0
434844,-0.276545,-1.3747280000000002,-0.117324,0.166713,0.1775,-0.059729,0.0,14.0,70.0,185.0,33.0,1.0
434845,-0.338634,-1.310448,-0.166544,0.094941,-0.183738,0.168023,0.0,14.0,70.0,185.0,33.0,1.0
434846,-0.396788,-1.2296280000000002,-0.242216,-0.018601,-0.402798,0.293864,0.0,14.0,70.0,185.0,33.0,1.0
434847,-0.44707,-1.143609,-0.32882,0.01629,-0.919977,0.5512779999999999,0.0,14.0,70.0,185.0,33.0,1.0
434848,-0.489736,-1.089228,-0.394071,0.063207,-1.101754,0.269365,0.0,14.0,70.0,185.0,33.0,1.0
434849,-0.54269,-1.044096,-0.431438,0.11103,-1.0268700000000002,0.395545,0.0,14.0,70.0,185.0,33.0,1.0
434850,-0.548217,-0.999176,-0.449662,0.581233,-0.716087,0.311216,0.0,14.0,70.0,185.0,33.0,1.0
434851,-0.558682,-0.976187,-0.4677520000000001,0.677398,-0.916075,0.5692020000000001,0.0,14.0,70.0,185.0,33.0,1.0
434852,-0.567137,-0.961563,-0.4844770000000001,0.27331300000000003,-0.8308450000000001,0.255048,0.0,14.0,70.0,185.0,33.0,1.0
434853,-0.5714100000000001,-0.964231,-0.499412,0.080585,-0.526476,-0.25301,0.0,14.0,70.0,185.0,33.0,1.0
434854,-0.5897859999999999,-1.001968,-0.522571,0.125542,0.161999,-0.16325599999999998,0.0,14.0,70.0,185.0,33.0,1.0
434855,-0.604813,-1.055184,-0.550217,0.066097,0.175343,-0.397959,0.0,14.0,70.0,185.0,33.0,1.0
434856,-0.618607,-1.114466,-0.568246,-0.040638,0.16252,-0.585296,0.0,14.0,70.0,185.0,33.0,1.0
434857,-0.608466,-1.170133,-0.57053,-0.34084000000000003,0.746861,-0.657849,0.0,14.0,70.0,185.0,33.0,1.0
434858,-0.5713520000000001,-1.224083,-0.563014,-0.4289310000000001,0.956081,-0.361187,0.0,14.0,70.0,185.0,33.0,1.0
434859,-0.493509,-1.28319,-0.534561,-0.384398,0.856825,-0.262021,0.0,14.0,70.0,185.0,33.0,1.0
434860,-0.402212,-1.343882,-0.463979,0.050038,-0.063294,0.5721069999999999,0.0,14.0,70.0,185.0,33.0,1.0
434861,-0.410606,-1.413935,-0.430567,-0.089504,0.141153,1.046648,0.0,14.0,70.0,185.0,33.0,1.0
434862,-0.5750850000000001,-1.449178,-0.557954,-0.032734,0.132631,1.179912,0.0,14.0,70.0,185.0,33.0,1.0
434863,-0.836752,-1.44632,-0.823599,0.106157,0.4554760000000001,0.447167,0.0,14.0,70.0,185.0,33.0,1.0
434864,-0.902658,-1.395766,-0.8889299999999999,-0.102911,1.105092,-0.313971,0.0,14.0,70.0,185.0,33.0,1.0
434865,-0.8275399999999999,-1.3547559999999998,-0.801028,0.046508,0.983238,-0.36789,0.0,14.0,70.0,185.0,33.0,1.0
434866,-0.8770370000000001,-1.381666,-0.875243,0.38677,0.297144,0.035354000000000003,0.0,14.0,70.0,185.0,33.0,1.0
434867,-0.980135,-1.4201979999999998,-1.029677,0.240028,0.039074,0.129274,0.0,14.0,70.0,185.0,33.0,1.0
434868,-1.122808,-1.448775,-1.2359950000000002,0.127891,-0.030239,0.226404,0.0,14.0,70.0,185.0,33.0,1.0
434869,-1.339281,-1.462788,-1.504923,-0.038916,-0.16877899999999998,0.051355,0.0,14.0,70.0,185.0,33.0,1.0
434870,-1.52288,-1.460801,-1.709185,-0.044218,-0.339324,-0.114006,0.0,14.0,70.0,185.0,33.0,1.0
434871,-1.6786330000000005,-1.452174,-1.85514,0.036259,-0.4091260000000001,-0.273065,0.0,14.0,70.0,185.0,33.0,1.0
434872,-1.868913,-1.438091,-2.035666,0.167492,-0.499478,-0.25799,0.0,14.0,70.0,185.0,33.0,1.0
434873,-1.989285,-1.418825,-2.1907,0.2439,-0.490153,-0.065055,0.0,14.0,70.0,185.0,33.0,1.0
434874,-1.989628,-1.39622,-2.253247,0.278875,-0.4465770000000001,-0.089067,0.0,14.0,70.0,185.0,33.0,1.0
434875,-1.958059,-1.374096,-2.2621830000000003,0.178829,-0.274555,-0.196071,0.0,14.0,70.0,185.0,33.0,1.0
434876,-1.940407,-1.3537370000000002,-2.244522,0.214172,-0.151645,-0.278723,0.0,14.0,70.0,185.0,33.0,1.0
434877,-1.913577,-1.333831,-2.197173,0.244494,-0.271036,-0.401775,0.0,14.0,70.0,185.0,33.0,1.0
434878,-1.843159,-1.311555,-2.105481,0.227297,-0.292802,-0.393511,0.0,14.0,70.0,185.0,33.0,1.0
434879,-1.730336,-1.281611,-1.977528,0.138232,-0.446208,-0.30693000000000004,0.0,14.0,70.0,185.0,33.0,1.0
434880,-1.58245,-1.240368,-1.813698,0.31061,-0.401073,-0.002209,0.0,14.0,70.0,185.0,33.0,1.0
434881,-1.430456,-1.189426,-1.651861,0.3441,-0.002481,0.370253,0.0,14.0,70.0,185.0,33.0,1.0
434882,-1.278811,-1.14474,-1.505149,0.259785,1.747784,0.58892,0.0,14.0,70.0,185.0,33.0,1.0
434883,-1.162541,-1.131222,-1.3816540000000002,-0.218158,2.135228,0.338946,0.0,14.0,70.0,185.0,33.0,1.0
434884,-1.068043,-1.137276,-1.262942,-0.938662,1.488931,0.294506,0.0,14.0,70.0,185.0,33.0,1.0
434885,-0.952309,-1.152075,-1.101966,0.311206,1.097514,-0.09307,0.0,14.0,70.0,185.0,33.0,1.0
434886,-0.8956270000000001,-1.162773,-0.960421,0.517486,0.7085279999999999,-0.14164100000000002,0.0,14.0,70.0,185.0,33.0,1.0
434887,-0.8516520000000001,-1.179271,-0.8348469999999999,0.434791,0.913486,0.160415,0.0,14.0,70.0,185.0,33.0,1.0
434888,-0.7719050000000001,-1.204805,-0.7083119999999999,0.333921,0.767204,0.455328,0.0,14.0,70.0,185.0,33.0,1.0
434889,-0.636972,-1.246507,-0.540822,0.056026,0.317595,0.45622,0.0,14.0,70.0,185.0,33.0,1.0
434890,-0.503612,-1.270457,-0.36126,-0.004569,-0.106649,0.503815,0.0,14.0,70.0,185.0,33.0,1.0
434891,-0.420891,-1.276401,-0.214165,0.005635,-0.244499,0.495134,0.0,14.0,70.0,185.0,33.0,1.0
434892,-0.398686,-1.278949,-0.109925,-0.119767,-0.4421810000000001,0.672821,0.0,14.0,70.0,185.0,33.0,1.0
434893,-0.426987,-1.280112,-0.049774,-0.170356,-0.606577,0.585471,0.0,14.0,70.0,185.0,33.0,1.0
434894,-0.492241,-1.273094,-0.032533,-0.076038,-0.563435,0.370357,0.0,14.0,70.0,185.0,33.0,1.0
434895,-0.572497,-1.264366,-0.030042000000000006,0.048287,-0.445985,0.249175,0.0,14.0,70.0,185.0,33.0,1.0
434896,-0.646725,-1.2556,-0.018662,0.14505,-0.364584,0.12767699999999998,0.0,14.0,70.0,185.0,33.0,1.0
434897,-0.6900029999999999,-1.241765,0.007951999999999999,0.050925,-0.371054,-0.203477,0.0,14.0,70.0,185.0,33.0,1.0
434898,-0.726351,-1.229483,0.042921,0.069623,-0.441385,-0.26122199999999995,0.0,14.0,70.0,185.0,33.0,1.0
434899,-0.7724770000000001,-1.2231299999999998,0.087376,0.23816,-0.155823,-0.428619,0.0,14.0,70.0,185.0,33.0,1.0
434900,-0.799732,-1.212825,0.150368,0.473077,0.399633,-0.658842,0.0,14.0,70.0,185.0,33.0,1.0
434901,-0.7869189999999999,-1.195798,0.23532,0.364852,0.701969,-0.487651,0.0,14.0,70.0,185.0,33.0,1.0
434902,-0.75276,-1.176542,0.33561,0.322829,0.274348,-0.270879,0.0,14.0,70.0,185.0,33.0,1.0
434903,-0.718183,-1.163041,0.44572,0.354608,-0.244811,-0.334273,0.0,14.0,70.0,185.0,33.0,1.0
434904,-0.705263,-1.158959,0.551438,0.291647,-0.5410510000000001,-0.284482,0.0,14.0,70.0,185.0,33.0,1.0
434905,-0.690396,-1.169087,0.647131,0.35570300000000005,-0.641967,0.008404,0.0,14.0,70.0,185.0,33.0,1.0
434906,-0.655845,-1.192692,0.7320220000000001,0.349817,-0.009642,0.496136,0.0,14.0,70.0,185.0,33.0,1.0
434907,-0.6123689999999999,-1.220321,0.8014789999999999,0.247571,0.6741020000000001,0.7088840000000001,0.0,14.0,70.0,185.0,33.0,1.0
434908,-0.61037,-1.233872,0.793966,-0.006825,2.345287,1.215059,0.0,14.0,70.0,185.0,33.0,1.0
434909,-0.654676,-1.222708,0.7550979999999999,-0.16198,1.052069,0.252339,0.0,14.0,70.0,185.0,33.0,1.0
434910,-0.728549,-1.1854360000000002,0.772319,-0.059125,-0.66145,0.610575,0.0,14.0,70.0,185.0,33.0,1.0
434911,-0.818284,-1.170431,0.745579,-0.090736,-1.151281,0.416074,0.0,14.0,70.0,185.0,33.0,1.0
434912,-0.8836299999999999,-1.175732,0.70357,0.368379,0.321718,-0.143619,0.0,14.0,70.0,185.0,33.0,1.0
434913,-0.928998,-1.194405,0.643458,1.040579,0.696651,0.280796,0.0,14.0,70.0,185.0,33.0,1.0
434914,-0.966713,-1.237911,0.53571,0.93138,0.505,0.484372,0.0,14.0,70.0,185.0,33.0,1.0
434915,-1.04444,-1.268633,0.405226,0.328955,0.208437,0.28451,0.0,14.0,70.0,185.0,33.0,1.0
434916,-1.11362,-1.282308,0.33060700000000004,0.193755,0.040516,0.129731,0.0,14.0,70.0,185.0,33.0,1.0
434917,-1.201541,-1.294476,0.28796900000000003,0.000697,-0.065627,-0.016284,0.0,14.0,70.0,185.0,33.0,1.0
434918,-1.344964,-1.304598,0.222485,-0.009004999999999999,-0.104701,-0.17490799999999998,0.0,14.0,70.0,185.0,33.0,1.0
434919,-1.52515,-1.3144280000000002,0.125473,0.051313,-0.093233,-0.168774,0.0,14.0,70.0,185.0,33.0,1.0
434920,-1.6915169999999995,-1.321739,0.008865999999999999,0.107829,-0.174757,-0.163945,0.0,14.0,70.0,185.0,33.0,1.0
434921,-1.812573,-1.325295,-0.099088,0.244553,-0.276061,-0.029792000000000006,0.0,14.0,70.0,185.0,33.0,1.0
434922,-1.903739,-1.3252540000000002,-0.198918,0.248122,-0.26505,0.010113,0.0,14.0,70.0,185.0,33.0,1.0
434923,-1.981526,-1.319756,-0.300816,0.22423,-0.193371,0.042253,0.0,14.0,70.0,185.0,33.0,1.0
434924,-2.065211,-1.309104,-0.408747,0.206208,-0.091243,0.098371,0.0,14.0,70.0,185.0,33.0,1.0
434925,-2.14237,-1.294982,-0.49859,0.13981500000000002,-0.041931,0.079739,0.0,14.0,70.0,185.0,33.0,1.0
434926,-2.195462,-1.280207,-0.549251,0.064326,-0.001975,-0.049666,0.0,14.0,70.0,185.0,33.0,1.0
434927,-2.253973,-1.265739,-0.5796939999999999,-0.017952000000000003,0.133145,-0.284851,0.0,14.0,70.0,185.0,33.0,1.0
434928,-2.326453,-1.250818,-0.6179859999999999,-0.06093,0.174705,-0.320083,0.0,14.0,70.0,185.0,33.0,1.0
434929,-2.3664,-1.238918,-0.650501,-0.051492,0.26629899999999995,-0.34675,0.0,14.0,70.0,185.0,33.0,1.0
434930,-2.3505830000000003,-1.230389,-0.655311,0.494308,0.17160799999999998,0.220698,0.0,14.0,70.0,185.0,33.0,1.0
434931,-2.320557,-1.223603,-0.645066,0.347555,0.592689,-0.181331,0.0,14.0,70.0,185.0,33.0,1.0
434932,-2.352099,-1.21815,-0.649517,0.165411,0.5464319999999999,-0.769474,0.0,14.0,70.0,185.0,33.0,1.0
434933,-2.46771,-1.206562,-0.6824479999999999,0.37189,0.541388,-0.754354,0.0,14.0,70.0,185.0,33.0,1.0
434934,-2.490171,-1.210685,-0.648921,0.434564,0.45402,-0.688048,0.0,14.0,70.0,185.0,33.0,1.0
434935,-2.405518,-1.224019,-0.576857,0.597224,0.20892600000000006,-0.320018,0.0,14.0,70.0,185.0,33.0,1.0
434936,-2.2999650000000003,-1.241714,-0.484604,0.405391,0.227107,-0.045035000000000006,0.0,14.0,70.0,185.0,33.0,1.0
434937,-2.173948,-1.266318,-0.332962,0.328202,0.193671,0.106821,0.0,14.0,70.0,185.0,33.0,1.0
434938,-2.027759,-1.291283,-0.124971,0.243283,0.087699,-0.010594,0.0,14.0,70.0,185.0,33.0,1.0
434939,-1.854836,-1.311597,0.132272,0.395317,0.431964,0.079468,0.0,14.0,70.0,185.0,33.0,1.0
434940,-1.684553,-1.320909,0.368925,0.400179,0.5572739999999999,0.227226,0.0,14.0,70.0,185.0,33.0,1.0
434941,-1.577142,-1.326518,0.505921,0.388734,0.666223,0.116095,0.0,14.0,70.0,185.0,33.0,1.0
434942,-1.511889,-1.3336290000000002,0.619262,0.378085,0.625023,0.217658,0.0,14.0,70.0,185.0,33.0,1.0
434943,-1.481506,-1.3453389999999998,0.749782,0.403846,0.4319850000000001,0.387197,0.0,14.0,70.0,185.0,33.0,1.0
434944,-1.402268,-1.35196,0.958832,0.384676,0.21933,0.478993,0.0,14.0,70.0,185.0,33.0,1.0
434945,-1.221518,-1.339449,1.243866,0.329173,-0.000778,0.444537,0.0,14.0,70.0,185.0,33.0,1.0
434946,-1.063047,-1.307784,1.484294,0.234704,-0.054936,0.149553,0.0,14.0,70.0,185.0,33.0,1.0
434947,-0.964994,-1.274148,1.667556,0.32194,-0.033333,0.259144,0.0,14.0,70.0,185.0,33.0,1.0
434948,-0.896417,-1.248394,1.812332,0.340331,0.000284,0.310128,0.0,14.0,70.0,185.0,33.0,1.0
434949,-0.848249,-1.228561,1.932737,0.209754,-0.347433,0.304366,0.0,14.0,70.0,185.0,33.0,1.0
434950,-0.833225,-1.214025,2.019206,0.186348,-0.375979,0.34906,0.0,14.0,70.0,185.0,33.0,1.0
434951,-0.825709,-1.205589,2.093634,0.210167,-0.409956,0.382684,0.0,14.0,70.0,185.0,33.0,1.0
434952,-0.8206200000000001,-1.2035280000000002,2.155948,0.11871099999999997,-0.438637,0.410811,0.0,14.0,70.0,185.0,33.0,1.0
434953,-0.8082020000000001,-1.209265,2.212257,0.009433,-0.427422,0.350109,0.0,14.0,70.0,185.0,33.0,1.0
434954,-0.79619,-1.223178,2.2571790000000003,-0.047034,-0.474733,0.310041,0.0,14.0,70.0,185.0,33.0,1.0
434955,-0.787574,-1.244579,2.285477,-0.081262,-0.666759,0.126858,0.0,14.0,70.0,185.0,33.0,1.0
434956,-0.79306,-1.274318,2.291106,-0.009544,-0.5942649999999999,-0.056578,0.0,14.0,70.0,185.0,33.0,1.0
434957,-0.8217899999999999,-1.311532,2.2713490000000003,0.001651,-0.38351,-0.305043,0.0,14.0,70.0,185.0,33.0,1.0
434958,-0.8649389999999999,-1.344801,2.23442,0.034064,0.213814,-0.569238,0.0,14.0,70.0,185.0,33.0,1.0
434959,-0.866402,-1.352469,2.230859,-0.277607,1.473141,-0.78112,0.0,14.0,70.0,185.0,33.0,1.0
434960,-0.870239,-1.325591,2.257565,-0.405019,0.462469,-0.792752,0.0,14.0,70.0,185.0,33.0,1.0
434961,-0.8207120000000001,-1.261882,2.394155,-0.420792,0.297595,-0.8804299999999999,0.0,14.0,70.0,185.0,33.0,1.0
434962,-0.797759,-1.168021,2.526998,0.465244,1.626761,0.789096,0.0,14.0,70.0,185.0,33.0,1.0
434963,-0.764311,-1.139143,2.556335,0.891074,-0.87611,1.436783,0.0,14.0,70.0,185.0,33.0,1.0
434964,-0.716073,-1.169499,2.581767,0.682049,-1.630302,1.4574200000000002,0.0,14.0,70.0,185.0,33.0,1.0
434965,-0.711287,-1.203723,2.583087,0.032985,-1.065492,0.419426,0.0,14.0,70.0,185.0,33.0,1.0
434966,-0.794925,-1.184231,2.557884,-0.33314,1.580565,-0.224923,0.0,14.0,70.0,185.0,33.0,1.0
434967,-0.846289,-1.162943,2.540142,-0.065952,1.399408,0.400738,0.0,14.0,70.0,185.0,33.0,1.0
434968,-0.808782,-1.211918,2.473667,0.457318,0.295047,0.23698,0.0,14.0,70.0,185.0,33.0,1.0
434969,-0.7934829999999999,-1.268183,2.405215,0.013597,0.10860999999999997,-0.352588,0.0,14.0,70.0,185.0,33.0,1.0
434970,-0.7963399999999999,-1.288833,2.418063,0.061367999999999985,-0.036957,0.084361,0.0,14.0,70.0,185.0,33.0,1.0
434971,-0.812504,-1.307651,2.433722,0.150953,-0.221711,0.107292,0.0,14.0,70.0,185.0,33.0,1.0
434972,-0.8417899999999999,-1.3375709999999998,2.420862,0.139833,-0.407802,0.02072,0.0,14.0,70.0,185.0,33.0,1.0
434973,-0.875813,-1.371063,2.390047,0.106938,-0.369448,-0.06777899999999999,0.0,14.0,70.0,185.0,33.0,1.0
434974,-0.904526,-1.39088,2.366527,0.058586,-0.295764,-0.118948,0.0,14.0,70.0,185.0,33.0,1.0
434975,-0.904915,-1.39649,2.384784,0.052684,-0.12258800000000003,-0.130502,0.0,14.0,70.0,185.0,33.0,1.0
434976,-0.871806,-1.393081,2.438231,0.091381,-0.147367,-0.13658299999999998,0.0,14.0,70.0,185.0,33.0,1.0
434977,-0.8486020000000001,-1.3918549999999998,2.474262,0.047452,-0.298318,-0.310593,0.0,14.0,70.0,185.0,33.0,1.0
434978,-0.812029,-1.390356,2.513184,0.002018,-0.7324069999999999,-0.01681,0.0,14.0,70.0,185.0,33.0,1.0
434979,-0.785816,-1.389616,2.506767,-0.029755,-0.798848,-0.174576,0.0,14.0,70.0,185.0,33.0,1.0
434980,-0.795397,-1.379524,2.458343,-0.11606199999999997,-0.375425,-0.411764,0.0,14.0,70.0,185.0,33.0,1.0
434981,-0.816871,-1.353784,2.421437,0.035954,0.007311,-0.321039,0.0,14.0,70.0,185.0,33.0,1.0
434982,-0.8116,-1.32424,2.419703,0.197513,0.203825,-0.128912,0.0,14.0,70.0,185.0,33.0,1.0
434983,-0.76681,-1.290089,2.456598,0.205488,-0.038481,0.06640800000000001,0.0,14.0,70.0,185.0,33.0,1.0
434984,-0.698342,-1.236805,2.526721,0.16978,-0.122705,0.309422,0.0,14.0,70.0,185.0,33.0,1.0
434985,-0.660968,-1.1647040000000002,2.580409,-0.001631,-0.036027,0.5397770000000001,0.0,14.0,70.0,185.0,33.0,1.0
434986,-0.650338,-1.0588879999999998,2.609473,-0.190866,0.187958,0.207372,0.0,14.0,70.0,185.0,33.0,1.0
434987,-0.644568,-0.942869,2.627333,-0.25615,0.835376,-0.921135,0.0,14.0,70.0,185.0,33.0,1.0
434988,-0.602688,-0.887804,2.614519,0.155147,1.377038,-0.242835,0.0,14.0,70.0,185.0,33.0,1.0
434989,-0.5923149999999999,-0.850973,2.628163,0.224097,1.064804,0.07645700000000001,0.0,14.0,70.0,185.0,33.0,1.0
434990,-0.587168,-0.84088,2.644334,-0.091585,-0.056875,-0.067602,0.0,14.0,70.0,185.0,33.0,1.0
434991,-0.579496,-0.8578479999999999,2.653221,-0.054766,-0.209028,-0.103598,0.0,14.0,70.0,185.0,33.0,1.0
434992,-0.58057,-0.892567,2.653791,-0.071879,-0.456999,-0.042054,0.0,14.0,70.0,185.0,33.0,1.0
434993,-0.5839949999999999,-0.939412,2.645777,0.06389500000000001,-0.625449,0.003451,0.0,14.0,70.0,185.0,33.0,1.0
434994,-0.587674,-0.998591,2.637559,0.204342,-0.776714,0.111819,0.0,14.0,70.0,185.0,33.0,1.0
434995,-0.580337,-1.070299,2.637858,0.137605,-0.801584,0.248996,0.0,14.0,70.0,185.0,33.0,1.0
434996,-0.5584439999999999,-1.152632,2.642082,0.169727,-0.525393,0.350613,0.0,14.0,70.0,185.0,33.0,1.0
434997,-0.53627,-1.243719,2.640561,0.148965,-0.152918,0.257493,0.0,14.0,70.0,185.0,33.0,1.0
434998,-0.573282,-1.3395709999999998,2.588924,0.139828,0.161211,0.224459,0.0,14.0,70.0,185.0,33.0,1.0
434999,-0.721074,-1.423865,2.448146,0.109704,0.136996,0.061045,0.0,14.0,70.0,185.0,33.0,1.0
435000,-0.867187,-1.48357,2.338561,0.28674,-0.372907,-0.296167,0.0,14.0,70.0,185.0,33.0,1.0
435001,-0.650628,-1.503698,2.617968,0.002422,-0.722039,-0.737897,0.0,14.0,70.0,185.0,33.0,1.0
435002,-0.347717,-1.470966,3.053433,-0.123199,-0.626033,0.439011,0.0,14.0,70.0,185.0,33.0,1.0
435003,-0.521541,-1.47481,2.907971,0.13309200000000002,0.6740520000000001,1.291065,0.0,14.0,70.0,185.0,33.0,1.0
435004,-0.636538,-1.415194,2.767207,-0.399681,3.664944,-3.1442490000000003,0.0,14.0,70.0,185.0,33.0,1.0
435005,-0.601729,-1.346417,2.864406,-0.393663,0.785611,2.144777,0.0,14.0,70.0,185.0,33.0,1.0
435006,-0.5723060000000001,-1.333967,2.8633580000000003,-0.266252,-0.223735,-1.683129,0.0,14.0,70.0,185.0,33.0,1.0
435007,-0.538562,-1.295901,2.889355,0.361908,-0.534918,-0.102633,0.0,14.0,70.0,185.0,33.0,1.0
435008,-0.557094,-1.301016,2.8450290000000003,0.409511,0.351951,-0.728789,0.0,14.0,70.0,185.0,33.0,1.0
435009,-0.5919949999999999,-1.2973629999999998,2.819366,0.37526,0.7371479999999999,-0.165478,0.0,14.0,70.0,185.0,33.0,1.0
435010,-0.600721,-1.2658120000000002,2.82079,0.200105,0.364538,0.369772,0.0,14.0,70.0,185.0,33.0,1.0
435011,-0.597633,-1.1992200000000002,2.801455,-0.075989,-0.588494,0.586828,0.0,14.0,70.0,185.0,33.0,1.0
435012,-0.575577,-1.132282,2.782623,-0.105161,-0.764469,0.763071,0.0,14.0,70.0,185.0,33.0,1.0
435013,-0.565856,-1.0840459999999998,2.753531,-0.34620500000000004,-1.033546,0.378807,0.0,14.0,70.0,185.0,33.0,1.0
435014,-0.5995699999999999,-1.019507,2.727027,0.313783,-0.858152,0.35904400000000003,0.0,14.0,70.0,185.0,33.0,1.0
435015,-0.621879,-0.954453,2.724837,0.629584,-0.436649,0.168014,0.0,14.0,70.0,185.0,33.0,1.0
435016,-0.611533,-0.92336,2.709212,0.6434270000000001,-0.03599,-0.152697,0.0,14.0,70.0,185.0,33.0,1.0
435017,-0.608912,-0.930235,2.686284,0.092295,-0.331805,-0.085561,0.0,14.0,70.0,185.0,33.0,1.0
435018,-0.631763,-0.95527,2.66343,0.16381600000000002,-0.536455,-0.17134000000000002,0.0,14.0,70.0,185.0,33.0,1.0
435019,-0.660251,-1.006157,2.64759,0.007816,-0.366404,-0.016362,0.0,14.0,70.0,185.0,33.0,1.0
435020,-0.676076,-1.07658,2.640662,-0.192325,0.006836,-0.395854,0.0,14.0,70.0,185.0,33.0,1.0
435021,-0.646859,-1.162891,2.656054,-0.186647,0.115036,-0.858366,0.0,14.0,70.0,185.0,33.0,1.0
435022,-0.578902,-1.252625,2.697331,-0.05662100000000001,0.606679,-1.048359,0.0,14.0,70.0,185.0,33.0,1.0
435023,-0.524853,-1.330538,2.7239880000000003,0.05813400000000001,0.743384,-0.48607,0.0,14.0,70.0,185.0,33.0,1.0
435024,-0.465665,-1.381442,2.769101,0.070716,0.344702,-0.093578,0.0,14.0,70.0,185.0,33.0,1.0
435025,-0.317814,-1.4198110000000002,2.915463,-0.171769,-0.620291,1.327997,0.0,14.0,70.0,185.0,33.0,1.0
435026,-0.187718,-1.455344,3.042454,-0.50283,0.218724,0.500598,0.0,14.0,70.0,185.0,33.0,1.0
435027,-0.35377600000000003,-1.438021,2.894348,-0.567334,0.697751,-0.159099,0.0,14.0,70.0,185.0,33.0,1.0
435028,-0.556884,-1.335825,2.825279,0.354187,2.056349,-1.015706,0.0,14.0,70.0,185.0,33.0,1.0
435029,-0.6203810000000001,-1.254701,2.850404,-0.059325,0.65161,-0.9018,0.0,14.0,70.0,185.0,33.0,1.0
435030,-0.515288,-1.24729,2.905118,0.170748,-0.112586,-0.211399,0.0,14.0,70.0,185.0,33.0,1.0
435031,-0.39339,-1.246867,2.946567,-0.013676,-0.297891,-0.468585,0.0,14.0,70.0,185.0,33.0,1.0
435032,-0.382991,-1.213541,2.924861,-0.051372,-0.02147,0.327154,0.0,14.0,70.0,185.0,33.0,1.0
435033,-0.451041,-1.143638,2.864918,0.0071540000000000015,-0.044424,0.459703,0.0,14.0,70.0,185.0,33.0,1.0
435034,-0.527462,-1.079955,2.79685,0.171476,-0.724909,0.441692,0.0,14.0,70.0,185.0,33.0,1.0
435035,-0.585617,-1.031376,2.746043,0.240512,-1.015813,0.528939,0.0,14.0,70.0,185.0,33.0,1.0
435036,-0.5978100000000001,-0.985226,2.704077,0.309277,-0.973823,0.461979,0.0,14.0,70.0,185.0,33.0,1.0
435037,-0.5908100000000001,-0.947699,2.679085,0.397948,-0.94887,0.465101,0.0,14.0,70.0,185.0,33.0,1.0
435038,-0.5917789999999999,-0.914739,2.6613290000000003,0.40023,-0.464263,0.25116700000000003,0.0,14.0,70.0,185.0,33.0,1.0
435039,-0.584444,-0.896955,2.651594,0.31495,-0.215131,0.116701,0.0,14.0,70.0,185.0,33.0,1.0
435040,-0.579149,-0.911269,2.644456,0.051653,-0.357482,-0.277449,0.0,14.0,70.0,185.0,33.0,1.0
435041,-0.585613,-0.94457,2.6394,0.034081,-0.298511,-0.293476,0.0,14.0,70.0,185.0,33.0,1.0
435042,-0.599503,-0.999261,2.639332,-0.136934,0.101693,-0.329195,0.0,14.0,70.0,185.0,33.0,1.0
435043,-0.60953,-1.071382,2.641859,-0.36498,0.206869,-0.455908,0.0,14.0,70.0,185.0,33.0,1.0
435044,-0.57722,-1.155077,2.674557,-0.172768,0.8255610000000001,-0.830838,0.0,14.0,70.0,185.0,33.0,1.0
435045,-0.498964,-1.236772,2.73808,-0.00209,0.6900350000000001,-0.752767,0.0,14.0,70.0,185.0,33.0,1.0
435046,-0.367725,-1.2873290000000002,2.843095,0.163194,0.31974,-0.222039,0.0,14.0,70.0,185.0,33.0,1.0
435047,-0.24686,-1.302216,2.965481,-0.26116300000000003,-0.030952,1.317487,0.0,14.0,70.0,185.0,33.0,1.0
435048,-0.197637,-1.308501,3.017171,-0.701789,0.29467,1.057781,0.0,14.0,70.0,185.0,33.0,1.0
435049,-0.228117,-1.295816,2.973145,-0.616058,0.152667,0.6530630000000001,0.0,14.0,70.0,185.0,33.0,1.0
435050,-0.391616,-1.223825,2.893696,0.339368,1.4873120000000002,0.492369,0.0,14.0,70.0,185.0,33.0,1.0
435051,-0.483603,-1.154276,2.8594060000000003,0.239431,0.99602,-1.024389,0.0,14.0,70.0,185.0,33.0,1.0
435052,-0.451278,-1.175071,2.877856,0.214252,0.003827,0.006763,0.0,14.0,70.0,185.0,33.0,1.0
435053,-0.402114,-1.20477,2.8982490000000003,0.052057000000000006,0.168462,-0.101739,0.0,14.0,70.0,185.0,33.0,1.0
435054,-0.365543,-1.221152,2.918399,0.104626,0.4195140000000001,-0.16455999999999998,0.0,14.0,70.0,185.0,33.0,1.0
435055,-0.37693,-1.209473,2.9271540000000003,0.114748,0.391291,-0.084872,0.0,14.0,70.0,185.0,33.0,1.0
435056,-0.417366,-1.175678,2.918561,-0.054104,-0.382485,0.347199,0.0,14.0,70.0,185.0,33.0,1.0
435057,-0.455272,-1.128057,2.87779,-0.019038,-0.949846,0.373939,0.0,14.0,70.0,185.0,33.0,1.0
435058,-0.475588,-1.077691,2.821142,-0.073414,-1.126442,0.419041,0.0,14.0,70.0,185.0,33.0,1.0
435059,-0.489175,-1.035093,2.765269,-0.082487,-0.986374,0.469163,0.0,14.0,70.0,185.0,33.0,1.0
435060,-0.5253939999999999,-1.002485,2.720047,0.15825999999999998,-0.707008,0.473641,0.0,14.0,70.0,185.0,33.0,1.0
435061,-0.583753,-0.963068,2.6930080000000003,0.586258,-0.125589,0.395083,0.0,14.0,70.0,185.0,33.0,1.0
435062,-0.596128,-0.923614,2.681435,0.628402,-0.015437,0.189797,0.0,14.0,70.0,185.0,33.0,1.0
435063,-0.592183,-0.917142,2.676236,-0.169371,-0.116239,-0.093187,0.0,14.0,70.0,185.0,33.0,1.0
435064,-0.592499,-0.934286,2.659918,-0.08804,-0.151847,-0.010939,0.0,14.0,70.0,185.0,33.0,1.0
435065,-0.608622,-0.962638,2.6463490000000003,-0.034664,0.12867,-0.21192,0.0,14.0,70.0,185.0,33.0,1.0
435066,-0.625173,-1.013273,2.6425110000000003,-0.190163,0.298664,-0.262622,0.0,14.0,70.0,185.0,33.0,1.0
435067,-0.621946,-1.086559,2.646488,-0.407333,0.327952,-0.450791,0.0,14.0,70.0,185.0,33.0,1.0
435068,-0.564511,-1.171214,2.679621,-0.118789,0.423808,-0.692876,0.0,14.0,70.0,185.0,33.0,1.0
435069,-0.46285,-1.248392,2.745272,-0.127437,0.567332,-0.650976,0.0,14.0,70.0,185.0,33.0,1.0
435070,-0.361686,-1.3117370000000002,2.830687,0.224951,0.277753,-0.333212,0.0,14.0,70.0,185.0,33.0,1.0
435071,-0.25057,-1.355166,2.97509,0.330928,-0.461217,1.032935,0.0,14.0,70.0,185.0,33.0,1.0
435072,-0.09346,-1.391714,-3.108644,0.227849,-0.466979,1.172357,0.0,14.0,70.0,185.0,33.0,1.0
435073,0.042163,-1.4148969999999998,-2.958327,-0.453992,0.234586,0.756213,0.0,14.0,70.0,185.0,33.0,1.0
435074,0.000931,-1.411323,-3.006737,-1.122325,0.961053,-0.865547,0.0,14.0,70.0,185.0,33.0,1.0
435075,-0.23085100000000006,-1.323646,3.083847,-0.589398,0.7021390000000001,-0.770726,0.0,14.0,70.0,185.0,33.0,1.0
435076,-0.4317180000000001,-1.199715,3.052713,0.666104,-0.256887,0.376892,0.0,14.0,70.0,185.0,33.0,1.0
435077,-0.381026,-1.196603,3.02832,0.289367,0.48532,-1.479303,0.0,14.0,70.0,185.0,33.0,1.0
435078,-0.309542,-1.213498,2.993261,0.131089,0.416579,-0.457535,0.0,14.0,70.0,185.0,33.0,1.0
435079,-0.343965,-1.220681,2.951794,0.14055399999999998,0.396406,0.5581520000000001,0.0,14.0,70.0,185.0,33.0,1.0
435080,-0.376355,-1.18848,2.934355,0.022001,0.09568,-0.069017,0.0,14.0,70.0,185.0,33.0,1.0
435081,-0.409236,-1.112128,2.911899,0.054088,-0.225744,0.004883,0.0,14.0,70.0,185.0,33.0,1.0
435082,-0.41492,-1.04339,2.871621,0.080631,-0.760996,0.115232,0.0,14.0,70.0,185.0,33.0,1.0
435083,-0.431466,-0.994195,2.811366,0.119244,-0.861483,0.6097279999999999,0.0,14.0,70.0,185.0,33.0,1.0
435084,-0.459804,-0.956795,2.749642,0.183439,-0.756146,0.721837,0.0,14.0,70.0,185.0,33.0,1.0
435085,-0.5065890000000001,-0.919994,2.701523,0.108198,-0.279027,0.6266729999999999,0.0,14.0,70.0,185.0,33.0,1.0
435086,-0.541957,-0.8610190000000001,2.679696,0.269974,0.348823,-0.093881,0.0,14.0,70.0,185.0,33.0,1.0
435087,-0.558719,-0.8292440000000001,2.665589,0.198363,0.23540300000000006,0.056455,0.0,14.0,70.0,185.0,33.0,1.0
435088,-0.5796520000000001,-0.826426,2.639951,-0.003404,-0.427195,-0.184032,0.0,14.0,70.0,185.0,33.0,1.0
435089,-0.612556,-0.8395360000000001,2.611116,-0.276866,-0.195566,-0.076432,0.0,14.0,70.0,185.0,33.0,1.0
435090,-0.629938,-0.878358,2.587008,-0.391158,0.121574,-0.264807,0.0,14.0,70.0,185.0,33.0,1.0
435091,-0.624695,-0.937532,2.579541,-0.304611,0.222938,-0.550473,0.0,14.0,70.0,185.0,33.0,1.0
435092,-0.5995199999999999,-1.014064,2.591874,-0.309757,0.139295,-0.664022,0.0,14.0,70.0,185.0,33.0,1.0
435093,-0.567557,-1.098262,2.609388,0.008265999999999999,-0.224097,-0.685999,0.0,14.0,70.0,185.0,33.0,1.0
435094,-0.534502,-1.184544,2.634846,0.096656,-0.14318499999999998,-0.518986,0.0,14.0,70.0,185.0,33.0,1.0
435095,-0.491218,-1.259041,2.667865,0.300792,6.2e-05,0.253819,0.0,14.0,70.0,185.0,33.0,1.0
435096,-0.419107,-1.320271,2.730298,0.281911,-0.453462,0.934573,0.0,14.0,70.0,185.0,33.0,1.0
435097,-0.3563,-1.379685,2.786379,0.075817,-0.455549,1.288292,0.0,14.0,70.0,185.0,33.0,1.0
435098,-0.354403,-1.408687,2.758555,-0.50395,0.077473,0.699106,0.0,14.0,70.0,185.0,33.0,1.0
435099,-0.4296,-1.38215,2.670624,-1.273845,0.775309,-0.702561,0.0,14.0,70.0,185.0,33.0,1.0
435100,-0.534142,-1.288386,2.704873,-0.5861310000000001,0.833208,-0.750834,0.0,14.0,70.0,185.0,33.0,1.0
435101,-0.626158,-1.209908,2.759168,0.68114,1.473871,-0.68963,0.0,14.0,70.0,185.0,33.0,1.0
435102,-0.490208,-1.21022,2.7979380000000003,0.26318,0.144949,-0.08428200000000001,0.0,14.0,70.0,185.0,33.0,1.0
435103,-0.366717,-1.240502,2.843306,0.026973,-0.70672,0.47151,0.0,14.0,70.0,185.0,33.0,1.0
435104,-0.324853,-1.266439,2.848605,-0.185376,-0.535949,-0.42737,0.0,14.0,70.0,185.0,33.0,1.0
435105,-0.411132,-1.238427,2.801102,0.027886,0.40803,-0.142535,0.0,14.0,70.0,185.0,33.0,1.0
435106,-0.511652,-1.194228,2.747783,0.115331,0.63179,-0.842424,0.0,14.0,70.0,185.0,33.0,1.0
435107,-0.534302,-1.156796,2.729276,0.203126,0.366753,-0.5475220000000001,0.0,14.0,70.0,185.0,33.0,1.0
435108,-0.52779,-1.133386,2.689585,0.069897,-0.422911,0.22405500000000006,0.0,14.0,70.0,185.0,33.0,1.0
435109,-0.543825,-1.101135,2.640099,-0.13103399999999998,-0.47444,0.8553799999999999,0.0,14.0,70.0,185.0,33.0,1.0
435110,-0.579676,-1.052858,2.605691,-0.055385,-0.348868,0.864693,0.0,14.0,70.0,185.0,33.0,1.0
435111,-0.614516,-0.986024,2.601607,0.111921,-0.213888,0.704725,0.0,14.0,70.0,185.0,33.0,1.0
435112,-0.6414270000000001,-0.903606,2.6180220000000003,0.245376,0.118749,-0.598158,0.0,14.0,70.0,185.0,33.0,1.0
435113,-0.6487649999999999,-0.863455,2.617794,0.33518400000000004,0.393061,0.067915,0.0,14.0,70.0,185.0,33.0,1.0
435114,-0.6505989999999999,-0.852815,2.6089130000000003,0.012167,-0.362388,0.078239,0.0,14.0,70.0,185.0,33.0,1.0
435115,-0.662987,-0.851791,2.604534,-0.230569,-0.367513,0.14088599999999998,0.0,14.0,70.0,185.0,33.0,1.0
435116,-0.669714,-0.871293,2.601844,-0.130118,-0.125162,0.053303,0.0,14.0,70.0,185.0,33.0,1.0
435117,-0.66888,-0.913261,2.601823,-0.032665,-0.243008,-0.01011,0.0,14.0,70.0,185.0,33.0,1.0
435118,-0.662536,-0.971218,2.604782,0.039762,-0.5307430000000001,-0.025493,0.0,14.0,70.0,185.0,33.0,1.0
435119,-0.6460229999999999,-1.037749,2.609084,0.08178099999999999,-0.516826,-0.08191699999999999,0.0,14.0,70.0,185.0,33.0,1.0
435120,-0.619065,-1.109574,2.614036,0.153857,-0.253618,-0.203639,0.0,14.0,70.0,185.0,33.0,1.0
435121,-0.590852,-1.18863,2.610875,0.186991,-0.043612,-0.290658,0.0,14.0,70.0,185.0,33.0,1.0
435122,-0.604402,-1.277693,2.57253,0.143733,0.322845,-0.215489,0.0,14.0,70.0,185.0,33.0,1.0
435123,-0.691807,-1.36278,2.467923,0.054461,0.464871,0.024715,0.0,14.0,70.0,185.0,33.0,1.0
435124,-0.805348,-1.427905,2.341292,-0.022368,0.241835,0.277464,0.0,14.0,70.0,185.0,33.0,1.0
435125,-0.8489389999999999,-1.464102,2.298969,-0.334987,-0.148824,0.32668800000000003,0.0,14.0,70.0,185.0,33.0,1.0
435126,-0.823276,-1.464178,2.351723,-0.532829,-0.021772,0.248935,0.0,14.0,70.0,185.0,33.0,1.0
435127,-0.794324,-1.428041,2.437298,-0.5640390000000001,0.565852,-0.310387,0.0,14.0,70.0,185.0,33.0,1.0
435128,-0.822105,-1.373724,2.498933,0.551397,0.257805,-0.367317,0.0,14.0,70.0,185.0,33.0,1.0
435129,-0.838799,-1.335773,2.515287,0.541381,0.887339,-0.16029300000000002,0.0,14.0,70.0,185.0,33.0,1.0
435130,-0.793359,-1.328861,2.465255,0.280498,0.932948,-0.708176,0.0,14.0,70.0,185.0,33.0,1.0
435131,-0.745212,-1.325042,2.476628,0.30914899999999995,-0.365569,0.700229,0.0,14.0,70.0,185.0,33.0,1.0
435132,-0.770729,-1.344355,2.414662,0.17749700000000002,-0.286941,0.17126,0.0,14.0,70.0,185.0,33.0,1.0
435133,-0.8471549999999999,-1.362494,2.298905,0.018683,0.079203,-0.023412,0.0,14.0,70.0,185.0,33.0,1.0
435134,-0.930563,-1.364034,2.221362,0.209693,0.14607,0.117331,0.0,14.0,70.0,185.0,33.0,1.0
435135,-1.028941,-1.3675700000000002,2.1400900000000003,0.11693,-0.072911,-0.161898,0.0,14.0,70.0,185.0,33.0,1.0
435136,-1.101073,-1.364866,2.080453,-0.075026,-0.30785100000000004,-0.244307,0.0,14.0,70.0,185.0,33.0,1.0
435137,-1.151888,-1.353342,2.032005,-0.032466,-0.399439,-0.217824,0.0,14.0,70.0,185.0,33.0,1.0
435138,-1.190468,-1.337108,1.983587,0.157996,-0.401133,-0.203396,0.0,14.0,70.0,185.0,33.0,1.0
435139,-1.23151,-1.320194,1.924041,0.305291,-0.32729899999999995,-0.244681,0.0,14.0,70.0,185.0,33.0,1.0
435140,-1.280718,-1.30471,1.858173,0.36626,-0.225199,-0.277972,0.0,14.0,70.0,185.0,33.0,1.0
435141,-1.354343,-1.292732,1.7778459999999998,0.473687,-0.102748,-0.169704,0.0,14.0,70.0,185.0,33.0,1.0
435142,-1.44356,-1.285156,1.682434,0.432357,-0.077264,-0.261397,0.0,14.0,70.0,185.0,33.0,1.0
435143,-1.534497,-1.276405,1.593674,0.235738,-0.133706,-0.399657,0.0,14.0,70.0,185.0,33.0,1.0
435144,-1.626506,-1.261632,1.5198459999999998,0.161427,-0.173627,-0.532215,0.0,14.0,70.0,185.0,33.0,1.0
435145,-1.713705,-1.241053,1.456644,0.34519,-0.147038,-0.449633,0.0,14.0,70.0,185.0,33.0,1.0
435146,-1.747237,-1.215909,1.428703,0.546606,-0.195697,-0.326585,0.0,14.0,70.0,185.0,33.0,1.0
435147,-1.719868,-1.191316,1.445489,0.403609,-0.480371,-0.236244,0.0,14.0,70.0,185.0,33.0,1.0
435148,-1.666709,-1.171418,1.491503,0.331138,-0.321831,0.099116,0.0,14.0,70.0,185.0,33.0,1.0
435149,-1.611769,-1.152041,1.55104,0.197378,0.123209,0.430366,0.0,14.0,70.0,185.0,33.0,1.0
435150,-1.532234,-1.144721,1.640346,0.102236,1.309452,0.414066,0.0,14.0,70.0,185.0,33.0,1.0
435151,-1.476839,-1.157292,1.72712,-0.61774,1.81974,0.393853,0.0,14.0,70.0,185.0,33.0,1.0
435152,-1.4036030000000002,-1.189427,1.83236,-1.111816,1.42095,0.025666,0.0,14.0,70.0,185.0,33.0,1.0
435153,-1.312013,-1.232973,1.964195,-0.327167,1.041934,-0.217312,0.0,14.0,70.0,185.0,33.0,1.0
435154,-1.186763,-1.256674,2.148853,0.052256,1.26341,-0.326975,0.0,14.0,70.0,185.0,33.0,1.0
435155,-1.036194,-1.26412,2.360621,0.38253,1.201565,-0.15294100000000002,0.0,14.0,70.0,185.0,33.0,1.0
435156,-0.876396,-1.277365,2.556923,0.359504,1.068668,-0.104789,0.0,14.0,70.0,185.0,33.0,1.0
435157,-0.68238,-1.29609,2.762642,0.070095,0.4522140000000001,0.046753,0.0,14.0,70.0,185.0,33.0,1.0
435158,-0.506603,-1.311842,2.954329,-0.296841,-0.243514,0.482103,0.0,14.0,70.0,185.0,33.0,1.0
435159,-0.428813,-1.3150540000000002,3.10095,-0.309026,-0.418724,0.725255,0.0,14.0,70.0,185.0,33.0,1.0
435160,-0.432839,-1.295918,-3.072263,0.017165,-0.520579,0.817018,0.0,14.0,70.0,185.0,33.0,1.0
435161,-0.467457,-1.260916,-2.997102,0.225833,-0.760704,0.429979,0.0,14.0,70.0,185.0,33.0,1.0
435162,-0.511841,-1.231934,-2.963897,0.23462800000000006,-0.818134,0.328591,0.0,14.0,70.0,185.0,33.0,1.0
435163,-0.5617,-1.223118,-2.950448,0.138514,-0.955715,0.358577,0.0,14.0,70.0,185.0,33.0,1.0
435164,-0.612429,-1.237536,-2.938141,0.267908,-1.077427,0.37896,0.0,14.0,70.0,185.0,33.0,1.0
435165,-0.667709,-1.259957,-2.934091,0.254515,-0.717046,0.1628,0.0,14.0,70.0,185.0,33.0,1.0
435166,-0.689667,-1.284849,-2.921382,0.075032,-0.04875,-0.402222,0.0,14.0,70.0,185.0,33.0,1.0
435167,-0.6564260000000001,-1.303209,-2.881305,-0.139443,0.762487,-0.967803,0.0,14.0,70.0,185.0,33.0,1.0
435168,-0.56212,-1.29043,-2.781763,-0.214696,1.172041,-1.115965,0.0,14.0,70.0,185.0,33.0,1.0
435169,-0.51369,-1.248921,-2.68347,0.102054,0.30363,-0.692068,0.0,14.0,70.0,185.0,33.0,1.0
435170,-0.533591,-1.199778,-2.590802,0.234515,-0.930647,-0.329356,0.0,14.0,70.0,185.0,33.0,1.0
435171,-0.560105,-1.158881,-2.4880560000000003,0.446769,-1.178975,0.065942,0.0,14.0,70.0,185.0,33.0,1.0
435172,-0.549179,-1.157235,-2.408519,0.520055,-0.539231,0.6569189999999999,0.0,14.0,70.0,185.0,33.0,1.0
435173,-0.49144,-1.149377,-2.335403,0.003849,2.625683,0.5786859999999999,0.0,14.0,70.0,185.0,33.0,1.0
435174,-0.455079,-1.130264,-2.313111,0.010879,1.510667,-0.317943,0.0,14.0,70.0,185.0,33.0,1.0
435175,-0.458353,-1.10664,-2.2868310000000003,-0.575192,-0.994221,1.52737,0.0,14.0,70.0,185.0,33.0,1.0
435176,-0.556902,-1.124957,-2.359743,-0.5905630000000001,0.002826,-0.280068,0.0,14.0,70.0,185.0,33.0,1.0
435177,-0.683087,-1.10771,-2.41683,0.224353,1.074286,-0.001318,0.0,14.0,70.0,185.0,33.0,1.0
435178,-0.733617,-1.101017,-2.4496450000000003,0.927884,0.535547,0.265798,0.0,14.0,70.0,185.0,33.0,1.0
435179,-0.730066,-1.163858,-2.542998,0.8032199999999999,0.34747100000000003,0.061089,0.0,14.0,70.0,185.0,33.0,1.0
435180,-0.770251,-1.208535,-2.653471,0.51748,0.542212,0.141297,0.0,14.0,70.0,185.0,33.0,1.0
435181,-0.8431879999999999,-1.234746,-2.723455,0.394651,0.37518,0.41566,0.0,14.0,70.0,185.0,33.0,1.0
435182,-0.913672,-1.268828,-2.778982,0.234219,0.078817,0.130706,0.0,14.0,70.0,185.0,33.0,1.0
435183,-1.0016770000000002,-1.307184,-2.852321,0.054992,-0.177796,-0.187442,0.0,14.0,70.0,185.0,33.0,1.0
435184,-1.160523,-1.34411,-2.970463,-0.08622,-0.35843400000000003,-0.150096,0.0,14.0,70.0,185.0,33.0,1.0
435185,-1.370091,-1.37473,-3.141115,-0.105863,-0.5149739999999999,-0.088792,0.0,14.0,70.0,185.0,33.0,1.0
435186,-1.582122,-1.39203,2.943427,-0.105371,-0.573908,-0.08161900000000001,0.0,14.0,70.0,185.0,33.0,1.0
435187,-1.773815,-1.3943219999999998,2.751105,0.007306999999999998,-0.505358,-0.027425,0.0,14.0,70.0,185.0,33.0,1.0
435188,-1.919997,-1.384576,2.597901,0.154757,-0.308502,0.022893,0.0,14.0,70.0,185.0,33.0,1.0
435189,-2.012941,-1.3686969999999998,2.485052,0.300779,-0.151522,0.120701,0.0,14.0,70.0,185.0,33.0,1.0
435190,-2.106814,-1.352218,2.356346,0.374313,-0.038341,0.274129,0.0,14.0,70.0,185.0,33.0,1.0
435191,-2.203418,-1.334363,2.21726,0.23510100000000006,-0.079037,0.08204299999999999,0.0,14.0,70.0,185.0,33.0,1.0
435192,-2.305326,-1.313405,2.102685,-0.05774500000000001,0.170897,-0.177217,0.0,14.0,70.0,185.0,33.0,1.0
435193,-2.399022,-1.294527,2.038824,-0.103694,0.404299,-0.584268,0.0,14.0,70.0,185.0,33.0,1.0
435194,-2.4821880000000003,-1.275938,2.001058,0.12551500000000002,0.5355270000000001,-0.6381680000000001,0.0,14.0,70.0,185.0,33.0,1.0
435195,-2.501258,-1.264365,2.0004060000000004,0.357399,0.459761,-0.532007,0.0,14.0,70.0,185.0,33.0,1.0
435196,-2.453843,-1.26416,2.040637,0.268443,0.396286,-0.438109,0.0,14.0,70.0,185.0,33.0,1.0
435197,-2.403273,-1.26414,2.096079,0.407074,0.697103,-0.472863,0.0,14.0,70.0,185.0,33.0,1.0
435198,-2.344066,-1.268153,2.193706,0.482268,0.5687939999999999,-0.33792,0.0,14.0,70.0,185.0,33.0,1.0
435199,-2.246994,-1.280567,2.336143,0.566763,0.212949,0.06433,0.0,14.0,70.0,185.0,33.0,1.0
435200,-2.079308,-1.297324,2.533774,0.234064,0.289603,0.097157,0.0,14.0,70.0,185.0,33.0,1.0
435201,-1.840226,-1.304818,2.805984,0.08783200000000001,0.222496,0.160677,0.0,14.0,70.0,185.0,33.0,1.0
435202,-1.610606,-1.301724,3.085269,0.28228000000000003,0.495806,-0.056493,0.0,14.0,70.0,185.0,33.0,1.0
435203,-1.421411,-1.292187,-2.920114,0.556952,0.641314,0.148228,0.0,14.0,70.0,185.0,33.0,1.0
435204,-1.286481,-1.280609,-2.691638,0.631649,0.630311,0.266426,0.0,14.0,70.0,185.0,33.0,1.0
435205,-1.219105,-1.282606,-2.559904,0.611528,0.454479,0.35045,0.0,14.0,70.0,185.0,33.0,1.0
435206,-1.167992,-1.295819,-2.460613,0.5116609999999999,0.422044,0.390899,0.0,14.0,70.0,185.0,33.0,1.0
435207,-1.1143040000000002,-1.313412,-2.335242,0.5169189999999999,0.317777,0.354385,0.0,14.0,70.0,185.0,33.0,1.0
435208,-1.049724,-1.321058,-2.154586,0.27062,0.018038,0.35625300000000004,0.0,14.0,70.0,185.0,33.0,1.0
435209,-0.975583,-1.308779,-1.953267,0.23187800000000006,-0.199939,0.155782,0.0,14.0,70.0,185.0,33.0,1.0
435210,-0.908467,-1.28324,-1.762952,0.344967,-0.209443,0.195179,0.0,14.0,70.0,185.0,33.0,1.0
435211,-0.8471790000000001,-1.260982,-1.584659,0.593568,-0.079389,0.295891,0.0,14.0,70.0,185.0,33.0,1.0
435212,-0.813581,-1.248027,-1.439519,0.576671,-0.183377,0.43485,0.0,14.0,70.0,185.0,33.0,1.0
435213,-0.806553,-1.23826,-1.323446,0.5447930000000001,-0.219387,0.49302,0.0,14.0,70.0,185.0,33.0,1.0
435214,-0.801872,-1.225992,-1.222029,0.327287,-0.239146,0.556611,0.0,14.0,70.0,185.0,33.0,1.0
435215,-0.803837,-1.21148,-1.140551,0.11664,-0.207439,0.5550729999999999,0.0,14.0,70.0,185.0,33.0,1.0
435216,-0.797948,-1.19688,-1.066128,0.033587,-0.198375,0.517889,0.0,14.0,70.0,185.0,33.0,1.0
435217,-0.787037,-1.186702,-0.99742,-0.147999,-0.307082,0.32089,0.0,14.0,70.0,185.0,33.0,1.0
435218,-0.773566,-1.186068,-0.933603,-0.122352,-0.276891,0.312989,0.0,14.0,70.0,185.0,33.0,1.0
435219,-0.762514,-1.193625,-0.8797729999999999,-0.111672,-0.230964,0.34301,0.0,14.0,70.0,185.0,33.0,1.0
435220,-0.7432340000000001,-1.204933,-0.8324790000000001,-0.110876,-0.290322,0.221164,0.0,14.0,70.0,185.0,33.0,1.0
435221,-0.724979,-1.221266,-0.798151,-0.135667,-0.361516,-0.012018,0.0,14.0,70.0,185.0,33.0,1.0
435222,-0.714283,-1.2406780000000002,-0.7826310000000001,-0.211369,-0.154897,-0.329432,0.0,14.0,70.0,185.0,33.0,1.0
435223,-0.705095,-1.257924,-0.777275,-0.163381,0.531472,-0.85016,0.0,14.0,70.0,185.0,33.0,1.0
435224,-0.695576,-1.254481,-0.758985,-0.112589,1.225073,-0.80723,0.0,14.0,70.0,185.0,33.0,1.0
435225,-0.710888,-1.224391,-0.7345649999999999,-0.161145,-0.241487,-0.729545,0.0,14.0,70.0,185.0,33.0,1.0
435226,-0.718026,-1.182646,-0.696902,-0.063493,-0.7429939999999999,-0.782801,0.0,14.0,70.0,185.0,33.0,1.0
435227,-0.7116899999999999,-1.143408,-0.636613,-0.135345,-0.592272,-0.5630649999999999,0.0,14.0,70.0,185.0,33.0,1.0
435228,-0.7209810000000001,-1.112802,-0.567074,1.295285,3.321549,0.903575,0.0,14.0,70.0,185.0,33.0,1.0
435229,-0.722025,-1.080445,-0.533183,1.591878,2.661518,1.27877,0.0,14.0,70.0,185.0,33.0,1.0
435230,-0.661794,-1.077307,-0.459104,1.180398,-0.555185,2.046407,0.0,14.0,70.0,185.0,33.0,1.0
435231,-0.550996,-1.085245,-0.381841,-0.420482,-2.087268,1.10134,0.0,14.0,70.0,185.0,33.0,1.0
435232,-0.5492520000000001,-1.122189,-0.405388,-0.8277399999999999,-0.333715,-0.993691,0.0,14.0,70.0,185.0,33.0,1.0
435233,-0.701972,-1.087387,-0.413575,-0.013272,0.99935,0.448499,0.0,14.0,70.0,185.0,33.0,1.0
435234,-0.773127,-1.068945,-0.449943,0.522716,0.514069,0.440976,0.0,14.0,70.0,185.0,33.0,1.0
435235,-0.71402,-1.136611,-0.530643,0.5009,0.430189,-0.037132,0.0,14.0,70.0,185.0,33.0,1.0
435236,-0.702314,-1.189325,-0.600078,0.329931,0.445844,-0.167759,0.0,14.0,70.0,185.0,33.0,1.0
435237,-0.716497,-1.204075,-0.599889,0.299606,0.04307,0.257275,0.0,14.0,70.0,185.0,33.0,1.0
435238,-0.7187859999999999,-1.231382,-0.5816939999999999,0.315579,-0.2345,0.144403,0.0,14.0,70.0,185.0,33.0,1.0
435239,-0.7247239999999999,-1.274973,-0.571458,0.173537,-0.311879,-0.14021,0.0,14.0,70.0,185.0,33.0,1.0
435240,-0.740898,-1.3166719999999998,-0.573763,0.057348,-0.171528,-0.101764,0.0,14.0,70.0,185.0,33.0,1.0
435241,-0.745925,-1.3487559999999998,-0.577179,-0.015572,-0.057832000000000015,-0.076098,0.0,14.0,70.0,185.0,33.0,1.0
435242,-0.734592,-1.368724,-0.5755319999999999,-0.31091,-0.0803,-0.059391999999999986,0.0,14.0,70.0,185.0,33.0,1.0
435243,-0.706805,-1.37156,-0.551924,-0.288616,-0.185418,-0.054531,0.0,14.0,70.0,185.0,33.0,1.0
435244,-0.6824439999999999,-1.362586,-0.5205609999999999,-0.091098,-0.480707,-0.013833000000000002,0.0,14.0,70.0,185.0,33.0,1.0
435245,-0.681945,-1.349718,-0.5093949999999999,0.26165700000000003,-0.552612,-0.128151,0.0,14.0,70.0,185.0,33.0,1.0
435246,-0.687484,-1.338028,-0.510378,0.30303,-0.341852,-0.289365,0.0,14.0,70.0,185.0,33.0,1.0
435247,-0.684184,-1.32438,-0.510383,0.141663,-0.025533,-0.469633,0.0,14.0,70.0,185.0,33.0,1.0
435248,-0.667621,-1.310929,-0.498699,-0.01526,-0.21174,-0.08219800000000001,0.0,14.0,70.0,185.0,33.0,1.0
435249,-0.660481,-1.307116,-0.501989,-0.007120000000000001,-0.223372,-0.030459,0.0,14.0,70.0,185.0,33.0,1.0
435250,-0.643594,-1.299647,-0.505156,0.049552,-0.138329,-0.112236,0.0,14.0,70.0,185.0,33.0,1.0
435251,-0.616595,-1.273485,-0.498312,0.10823499999999997,-0.051403,-0.009437,0.0,14.0,70.0,185.0,33.0,1.0
435252,-0.596267,-1.231695,-0.48467,0.07129500000000001,-0.004257,0.167272,0.0,14.0,70.0,185.0,33.0,1.0
435253,-0.58785,-1.1745450000000002,-0.475103,0.176074,-0.180602,0.56593,0.0,14.0,70.0,185.0,33.0,1.0
435254,-0.5918260000000001,-1.112694,-0.473581,0.205638,-0.159802,0.789555,0.0,14.0,70.0,185.0,33.0,1.0
435255,-0.6144,-1.046116,-0.4753729999999999,0.247952,-0.063391,0.80652,0.0,14.0,70.0,185.0,33.0,1.0
435256,-0.6017279999999999,-0.951457,-0.453544,0.251145,0.941033,-0.108075,0.0,14.0,70.0,185.0,33.0,1.0
435257,-0.590708,-0.8577100000000001,-0.419646,0.217243,0.797288,-0.7625,0.0,14.0,70.0,185.0,33.0,1.0
435258,-0.606585,-0.82176,-0.419028,0.158102,0.50174,-0.18504,0.0,14.0,70.0,185.0,33.0,1.0
435259,-0.5973890000000001,-0.807719,-0.41552,-0.366566,-0.217631,0.245775,0.0,14.0,70.0,185.0,33.0,1.0
435260,-0.579469,-0.8125640000000001,-0.410729,0.039118,-0.6654140000000001,0.121036,0.0,14.0,70.0,185.0,33.0,1.0
435261,-0.581609,-0.831837,-0.414895,0.172651,-0.7714270000000001,-0.131072,0.0,14.0,70.0,185.0,33.0,1.0
435262,-0.587799,-0.8685649999999999,-0.429775,0.247769,-0.590032,0.013919,0.0,14.0,70.0,185.0,33.0,1.0
435263,-0.583623,-0.922246,-0.44722,0.130823,-0.473413,0.11589,0.0,14.0,70.0,185.0,33.0,1.0
435264,-0.579214,-0.988291,-0.466312,0.138683,-0.356617,0.120632,0.0,14.0,70.0,185.0,33.0,1.0
435265,-0.580866,-1.063148,-0.489341,0.13199,-0.14658,-0.055297000000000006,0.0,14.0,70.0,185.0,33.0,1.0
435266,-0.5982850000000001,-1.147995,-0.5227890000000001,0.042863,0.295592,-0.212049,0.0,14.0,70.0,185.0,33.0,1.0
435267,-0.658143,-1.240897,-0.588803,0.231824,0.789719,-0.381056,0.0,14.0,70.0,185.0,33.0,1.0
435268,-0.76339,-1.323522,-0.6823520000000001,0.295016,0.524542,-0.269511,0.0,14.0,70.0,185.0,33.0,1.0
435269,-0.802886,-1.374383,-0.699264,0.098145,-0.139983,0.037396,0.0,14.0,70.0,185.0,33.0,1.0
435270,-0.672427,-1.393681,-0.5484600000000001,-0.325224,-0.24876,1.003261,0.0,14.0,70.0,185.0,33.0,1.0
435271,-0.508286,-1.408018,-0.385553,-0.454653,0.319677,0.8597290000000001,0.0,14.0,70.0,185.0,33.0,1.0
435272,-0.517871,-1.420636,-0.41984,-0.632368,0.992744,0.600698,0.0,14.0,70.0,185.0,33.0,1.0
435273,-0.6304529999999999,-1.360638,-0.491835,0.207835,1.21469,-0.5655640000000001,0.0,14.0,70.0,185.0,33.0,1.0
435274,-0.613733,-1.230999,-0.347956,0.365545,0.49596,-0.933076,0.0,14.0,70.0,185.0,33.0,1.0
435275,-0.637011,-1.189179,-0.35704,0.492825,-0.859735,-0.04215,0.0,14.0,70.0,185.0,33.0,1.0
435276,-0.629762,-1.216394,-0.386569,1.048448,0.352673,-0.062645,0.0,14.0,70.0,185.0,33.0,1.0
435277,-0.6013569999999999,-1.2485700000000002,-0.389459,0.85236,1.077682,-0.178783,0.0,14.0,70.0,185.0,33.0,1.0
435278,-0.587531,-1.279533,-0.393048,0.123416,0.704487,-0.079028,0.0,14.0,70.0,185.0,33.0,1.0
435279,-0.62916,-1.29089,-0.39391,-0.192631,-0.229254,0.092448,0.0,14.0,70.0,185.0,33.0,1.0
435280,-0.635965,-1.267623,-0.348283,-0.196219,-0.466311,-0.026660000000000003,0.0,14.0,70.0,185.0,33.0,1.0
435281,-0.652523,-1.209037,-0.330798,-0.276825,-0.787388,0.184153,0.0,14.0,70.0,185.0,33.0,1.0
435282,-0.6532680000000001,-1.148485,-0.357125,-0.309487,-0.841374,0.08457999999999999,0.0,14.0,70.0,185.0,33.0,1.0
435283,-0.636896,-1.091012,-0.395187,-0.14111600000000002,-0.775858,0.361411,0.0,14.0,70.0,185.0,33.0,1.0
435284,-0.628934,-1.044051,-0.446644,-0.025855,-0.55474,0.651381,0.0,14.0,70.0,185.0,33.0,1.0
435285,-0.6702130000000001,-1.01274,-0.493254,0.227847,-0.238072,0.660137,0.0,14.0,70.0,185.0,33.0,1.0
435286,-0.709739,-0.957458,-0.486116,0.633104,0.222507,0.621544,0.0,14.0,70.0,185.0,33.0,1.0
435287,-0.696163,-0.8890809999999999,-0.457158,0.211166,0.470531,-0.560403,0.0,14.0,70.0,185.0,33.0,1.0
435288,-0.675231,-0.873308,-0.466641,0.089699,0.28380500000000003,0.034444,0.0,14.0,70.0,185.0,33.0,1.0
435289,-0.661813,-0.8801899999999999,-0.487428,-0.053983,-0.438325,-0.172014,0.0,14.0,70.0,185.0,33.0,1.0
435290,-0.652629,-0.909372,-0.489338,-0.159886,-0.14918,-0.27055500000000005,0.0,14.0,70.0,185.0,33.0,1.0
435291,-0.636803,-0.962903,-0.487489,-0.183871,-0.140585,-0.381536,0.0,14.0,70.0,185.0,33.0,1.0
435292,-0.613631,-1.038679,-0.480785,-0.120658,-0.078989,-0.5020020000000001,0.0,14.0,70.0,185.0,33.0,1.0
435293,-0.578431,-1.125706,-0.459632,-0.038627,0.440049,-0.528562,0.0,14.0,70.0,185.0,33.0,1.0
435294,-0.536296,-1.203059,-0.422957,0.06311,0.5479510000000001,-0.366546,0.0,14.0,70.0,185.0,33.0,1.0
435295,-0.478664,-1.257628,-0.361712,0.416487,-0.089714,0.112381,0.0,14.0,70.0,185.0,33.0,1.0
435296,-0.379971,-1.287681,-0.236254,0.591136,-1.148499,1.039482,0.0,14.0,70.0,185.0,33.0,1.0
435297,-0.265352,-1.330181,-0.078011,0.385379,-0.8492129999999999,1.1366,0.0,14.0,70.0,185.0,33.0,1.0
435298,-0.208994,-1.360455,-0.038542,-0.709325,0.748038,0.18416,0.0,14.0,70.0,185.0,33.0,1.0
435299,-0.356919,-1.320488,-0.205373,-0.948421,1.829015,-1.11061,0.0,14.0,70.0,185.0,33.0,1.0
435300,-0.487975,-1.196514,-0.217715,-0.7614890000000001,1.7319950000000002,0.394591,0.0,14.0,70.0,185.0,33.0,1.0
435301,-0.5253,-1.150356,-0.210602,-0.012013,0.702584,-1.753019,0.0,14.0,70.0,185.0,33.0,1.0
435302,-0.465224,-1.137135,-0.202207,0.554762,-0.7699060000000001,0.26905300000000004,0.0,14.0,70.0,185.0,33.0,1.0
435303,-0.382449,-1.164959,-0.206033,0.340108,-0.221583,-0.514512,0.0,14.0,70.0,185.0,33.0,1.0
435304,-0.405954,-1.16384,-0.21884,0.224081,0.607854,0.029164,0.0,14.0,70.0,185.0,33.0,1.0
435305,-0.504763,-1.13289,-0.280874,-0.046143,0.471205,0.07121,0.0,14.0,70.0,185.0,33.0,1.0
435306,-0.548093,-1.071292,-0.317206,-0.064203,0.25161999999999995,0.235358,0.0,14.0,70.0,185.0,33.0,1.0
435307,-0.545377,-1.01257,-0.348721,-0.065187,-0.571753,0.5423140000000001,0.0,14.0,70.0,185.0,33.0,1.0
435308,-0.5485869999999999,-0.965617,-0.387897,-0.15665,-0.7183039999999999,0.6516069999999999,0.0,14.0,70.0,185.0,33.0,1.0
435309,-0.584486,-0.914812,-0.425482,0.178325,-0.105665,0.336823,0.0,14.0,70.0,185.0,33.0,1.0
435310,-0.599897,-0.8459959999999999,-0.441257,0.213845,0.237803,-0.429648,0.0,14.0,70.0,185.0,33.0,1.0
435311,-0.608974,-0.7999539999999999,-0.450969,0.699805,0.621711,-0.067124,0.0,14.0,70.0,185.0,33.0,1.0
435312,-0.603733,-0.798423,-0.463909,0.039392,-0.133478,0.186776,0.0,14.0,70.0,185.0,33.0,1.0
435313,-0.599008,-0.8102239999999999,-0.475201,-0.277186,-0.508575,0.066569,0.0,14.0,70.0,185.0,33.0,1.0
435314,-0.59475,-0.841606,-0.477218,-0.214599,-0.451952,-0.030114,0.0,14.0,70.0,185.0,33.0,1.0
435315,-0.5917319999999999,-0.8957459999999999,-0.469351,-0.136949,-0.353658,-0.169677,0.0,14.0,70.0,185.0,33.0,1.0
435316,-0.581399,-0.97243,-0.457617,0.012799,-0.233453,-0.32302600000000004,0.0,14.0,70.0,185.0,33.0,1.0
435317,-0.549825,-1.062935,-0.433196,0.099143,-0.087623,-0.5108020000000001,0.0,14.0,70.0,185.0,33.0,1.0
435318,-0.487503,-1.153126,-0.386719,0.133132,0.7782399999999999,-0.311157,0.0,14.0,70.0,185.0,33.0,1.0
435319,-0.400102,-1.237696,-0.32663000000000003,0.12972,0.856252,-0.229763,0.0,14.0,70.0,185.0,33.0,1.0
435320,-0.28993,-1.306244,-0.249114,0.137658,0.678421,-0.152167,0.0,14.0,70.0,185.0,33.0,1.0
435321,-0.161726,-1.355822,-0.11003,-0.001315,-0.500252,1.154999,0.0,14.0,70.0,185.0,33.0,1.0
435322,0.029517,-1.3872520000000002,0.101004,-0.198562,-0.529163,1.197125,0.0,14.0,70.0,185.0,33.0,1.0
435323,0.07082000000000001,-1.399101,0.145733,-0.495943,-0.316046,0.7795340000000001,0.0,14.0,70.0,185.0,33.0,1.0
435324,-0.149429,-1.356445,-0.02673,-0.692443,0.653058,-0.693998,0.0,14.0,70.0,185.0,33.0,1.0
435325,-0.394621,-1.248565,-0.13009400000000002,0.10342,0.980012,-0.452758,0.0,14.0,70.0,185.0,33.0,1.0
435326,-0.441337,-1.20202,-0.161297,0.283456,1.283448,-0.689445,0.0,14.0,70.0,185.0,33.0,1.0
435327,-0.356456,-1.212216,-0.158323,0.349372,-0.128458,0.350736,0.0,14.0,70.0,185.0,33.0,1.0
435328,-0.282988,-1.243461,-0.139927,0.177342,-0.171451,0.212906,0.0,14.0,70.0,185.0,33.0,1.0
435329,-0.289375,-1.257767,-0.150329,0.094123,0.033885000000000005,-0.232665,0.0,14.0,70.0,185.0,33.0,1.0
435330,-0.354051,-1.232164,-0.180943,0.098459,0.426663,-0.171653,0.0,14.0,70.0,185.0,33.0,1.0
435331,-0.395729,-1.191301,-0.204666,0.005788000000000001,0.067807,-0.187442,0.0,14.0,70.0,185.0,33.0,1.0
435332,-0.417891,-1.140766,-0.242198,-0.16183699999999998,-0.5035729999999999,0.345093,0.0,14.0,70.0,185.0,33.0,1.0
435333,-0.437258,-1.091777,-0.303831,-0.205174,-0.533871,0.470255,0.0,14.0,70.0,185.0,33.0,1.0
435334,-0.470211,-1.04641,-0.368753,-0.227915,-0.795197,0.766237,0.0,14.0,70.0,185.0,33.0,1.0
435335,-0.529904,-1.001333,-0.421886,0.267063,-0.561581,0.7456079999999999,0.0,14.0,70.0,185.0,33.0,1.0
435336,-0.5854090000000001,-0.93664,-0.451039,0.50894,-0.32994,0.482801,0.0,14.0,70.0,185.0,33.0,1.0
435337,-0.595248,-0.875776,-0.461394,0.594751,0.276423,-0.732152,0.0,14.0,70.0,185.0,33.0,1.0
435338,-0.60482,-0.8715299999999999,-0.485458,0.157218,-0.253412,0.046057,0.0,14.0,70.0,185.0,33.0,1.0
435339,-0.628075,-0.877798,-0.525512,-0.023504,-0.490113,0.034701,0.0,14.0,70.0,185.0,33.0,1.0
435340,-0.663029,-0.899267,-0.560609,-0.18516,-0.227772,0.017457,0.0,14.0,70.0,185.0,33.0,1.0
435341,-0.6884560000000001,-0.945134,-0.5830960000000001,-0.60583,0.170015,-0.079455,0.0,14.0,70.0,185.0,33.0,1.0
435342,-0.672668,-1.016206,-0.5782609999999999,-0.334022,0.113995,-0.365437,0.0,14.0,70.0,185.0,33.0,1.0
435343,-0.623147,-1.102149,-0.548449,-0.237721,0.014024000000000002,-0.464446,0.0,14.0,70.0,185.0,33.0,1.0
435344,-0.55485,-1.182594,-0.502749,0.112813,0.117744,-0.8938790000000001,0.0,14.0,70.0,185.0,33.0,1.0
435345,-0.499244,-1.2507549999999998,-0.463834,0.229303,0.156628,-0.401664,0.0,14.0,70.0,185.0,33.0,1.0
435346,-0.461931,-1.308105,-0.433162,0.229738,0.041813,-0.059577,0.0,14.0,70.0,185.0,33.0,1.0
435347,-0.4125970000000001,-1.361731,-0.386742,-0.019632,-0.39804,1.233453,0.0,14.0,70.0,185.0,33.0,1.0
435348,-0.364131,-1.421528,-0.368083,-0.364854,-0.243565,1.14846,0.0,14.0,70.0,185.0,33.0,1.0
435349,-0.419941,-1.450425,-0.46288,-0.540467,0.27338,0.487113,0.0,14.0,70.0,185.0,33.0,1.0
435350,-0.549408,-1.44524,-0.603973,-0.507757,1.077711,-1.125304,0.0,14.0,70.0,185.0,33.0,1.0
435351,-0.660796,-1.374969,-0.595657,-0.343658,1.440759,-0.912996,0.0,14.0,70.0,185.0,33.0,1.0
435352,-0.722371,-1.295958,-0.5283359999999999,0.433677,0.17646199999999998,-0.368567,0.0,14.0,70.0,185.0,33.0,1.0
435353,-0.6829149999999999,-1.287963,-0.5757329999999999,0.507811,-0.160144,-0.147098,0.0,14.0,70.0,185.0,33.0,1.0
435354,-0.608867,-1.2940120000000002,-0.6092350000000001,0.096723,-0.209254,0.300449,0.0,14.0,70.0,185.0,33.0,1.0
435355,-0.5975590000000001,-1.30805,-0.6772199999999999,-0.02992,-0.192945,0.26121500000000003,0.0,14.0,70.0,185.0,33.0,1.0
435356,-0.675379,-1.327619,-0.7844869999999999,0.342525,-0.23956,0.469784,0.0,14.0,70.0,185.0,33.0,1.0
435357,-0.768604,-1.343826,-0.88961,0.334138,-0.153064,0.17563299999999998,0.0,14.0,70.0,185.0,33.0,1.0
435358,-0.841369,-1.350774,-0.961244,0.093819,-0.161027,-0.115584,0.0,14.0,70.0,185.0,33.0,1.0
435359,-0.902034,-1.351689,-1.005714,-0.009952,-0.31067100000000003,-0.381076,0.0,14.0,70.0,185.0,33.0,1.0
435360,-0.981863,-1.35543,-1.067591,0.067967,-0.405868,-0.298912,0.0,14.0,70.0,185.0,33.0,1.0
435361,-1.089174,-1.361628,-1.177676,0.162681,-0.395242,-0.213934,0.0,14.0,70.0,185.0,33.0,1.0
435362,-1.179631,-1.364472,-1.297673,0.369795,-0.145844,-0.288604,0.0,14.0,70.0,185.0,33.0,1.0
435363,-1.241613,-1.361667,-1.389558,0.321675,-0.157884,-0.348439,0.0,14.0,70.0,185.0,33.0,1.0
435364,-1.320066,-1.357392,-1.483222,0.274623,-0.179266,-0.313245,0.0,14.0,70.0,185.0,33.0,1.0
435365,-1.4202629999999998,-1.352886,-1.5881040000000002,0.301161,-0.180361,-0.267969,0.0,14.0,70.0,185.0,33.0,1.0
435366,-1.502961,-1.344149,-1.670594,0.275188,-0.217589,-0.290389,0.0,14.0,70.0,185.0,33.0,1.0
435367,-1.563749,-1.330877,-1.723554,0.245051,-0.219724,-0.279408,0.0,14.0,70.0,185.0,33.0,1.0
435368,-1.589371,-1.313204,-1.7378919999999998,0.221783,-0.234584,-0.260331,0.0,14.0,70.0,185.0,33.0,1.0
435369,-1.56955,-1.290841,-1.70471,0.174404,-0.432488,-0.269523,0.0,14.0,70.0,185.0,33.0,1.0
435370,-1.515732,-1.26704,-1.638868,0.246445,-0.517101,-0.048756,0.0,14.0,70.0,185.0,33.0,1.0
435371,-1.444334,-1.244358,-1.572122,0.313162,-0.323365,0.184165,0.0,14.0,70.0,185.0,33.0,1.0
435372,-1.351876,-1.223711,-1.487375,0.5521590000000001,1.224823,0.45563,0.0,14.0,70.0,185.0,33.0,1.0
435373,-1.26794,-1.213917,-1.383517,0.149902,2.639775,0.183686,0.0,14.0,70.0,185.0,33.0,1.0
435374,-1.15757,-1.217658,-1.229116,-0.76281,2.21393,0.416353,0.0,14.0,70.0,185.0,33.0,1.0
435375,-1.020224,-1.24196,-1.063284,-0.888217,1.084007,-0.046874,0.0,14.0,70.0,185.0,33.0,1.0
435376,-0.89607,-1.252984,-0.8750829999999999,0.082137,1.076125,-0.348475,0.0,14.0,70.0,185.0,33.0,1.0
435377,-0.812196,-1.2437,-0.684768,0.295302,1.187008,-0.301009,0.0,14.0,70.0,185.0,33.0,1.0
435378,-0.729208,-1.229349,-0.510057,0.6095689999999999,1.091008,-0.12632000000000002,0.0,14.0,70.0,185.0,33.0,1.0
435379,-0.598989,-1.227582,-0.338581,0.426797,0.6894710000000001,-0.102331,0.0,14.0,70.0,185.0,33.0,1.0
435380,-0.485073,-1.240619,-0.181849,0.043787,-0.091066,0.575019,0.0,14.0,70.0,185.0,33.0,1.0
435381,-0.43088,-1.2483540000000002,-0.053695000000000014,-0.031472,-0.29299200000000003,0.768146,0.0,14.0,70.0,185.0,33.0,1.0
435382,-0.438109,-1.236891,0.035643,0.06867000000000001,-0.424308,0.867081,0.0,14.0,70.0,185.0,33.0,1.0
435383,-0.481784,-1.212982,0.097569,0.22534,-0.798221,0.535172,0.0,14.0,70.0,185.0,33.0,1.0
435384,-0.5270520000000001,-1.193461,0.131467,0.103239,-0.973748,0.39317,0.0,14.0,70.0,185.0,33.0,1.0
435385,-0.573224,-1.18986,0.142209,-0.039122,-0.961367,0.448184,0.0,14.0,70.0,185.0,33.0,1.0
435386,-0.632202,-1.201478,0.138026,0.045945,-0.942354,0.382617,0.0,14.0,70.0,185.0,33.0,1.0
435387,-0.694797,-1.22283,0.130701,0.181251,-0.746861,0.212261,0.0,14.0,70.0,185.0,33.0,1.0
435388,-0.750955,-1.248936,0.121291,0.025968,-0.337382,-0.146463,0.0,14.0,70.0,185.0,33.0,1.0
435389,-0.7724310000000001,-1.270839,0.121066,-0.279476,0.113025,-0.6766310000000001,0.0,14.0,70.0,185.0,33.0,1.0
435390,-0.739686,-1.276637,0.156402,-0.318404,0.421769,-0.8291940000000001,0.0,14.0,70.0,185.0,33.0,1.0
435391,-0.706298,-1.257331,0.211273,-0.15504400000000002,0.729119,-0.8849309999999999,0.0,14.0,70.0,185.0,33.0,1.0
435392,-0.743424,-1.22022,0.259596,-0.020649,-0.092053,-0.311182,0.0,14.0,70.0,185.0,33.0,1.0
435393,-0.7911020000000001,-1.170048,0.329852,0.19504,0.0167,-0.026277,0.0,14.0,70.0,185.0,33.0,1.0
435394,-0.804424,-1.108809,0.414665,0.651354,2.215122,-0.194332,0.0,14.0,70.0,185.0,33.0,1.0
435395,-0.768247,-1.057395,0.485917,1.058348,-0.224061,0.97239,0.0,14.0,70.0,185.0,33.0,1.0
435396,-0.704208,-1.065813,0.534025,0.438628,-0.981811,1.827291,0.0,14.0,70.0,185.0,33.0,1.0
435397,-0.704322,-1.08892,0.494013,-0.739683,-0.108478,-0.122747,0.0,14.0,70.0,185.0,33.0,1.0
435398,-0.804412,-1.072816,0.432097,-0.016431,1.260443,0.371224,0.0,14.0,70.0,185.0,33.0,1.0
435399,-0.8837790000000001,-1.049426,0.403253,0.6285390000000001,0.721012,0.313795,0.0,14.0,70.0,185.0,33.0,1.0
435400,-0.8703629999999999,-1.092812,0.33332,0.617003,0.547638,-0.376372,0.0,14.0,70.0,185.0,33.0,1.0
435401,-0.892532,-1.136327,0.268379,0.678109,0.329479,0.24106,0.0,14.0,70.0,185.0,33.0,1.0
435402,-0.939867,-1.163023,0.22257,0.592074,0.106011,0.224449,0.0,14.0,70.0,185.0,33.0,1.0
435403,-0.999286,-1.192675,0.16419,0.338067,-0.112084,0.186481,0.0,14.0,70.0,185.0,33.0,1.0
435404,-1.07196,-1.230798,0.092642,0.099486,-0.075812,-0.075148,0.0,14.0,70.0,185.0,33.0,1.0
435405,-1.181375,-1.26563,0.002039,0.073926,-0.107987,-0.075119,0.0,14.0,70.0,185.0,33.0,1.0
435406,-1.318692,-1.298414,-0.110292,0.093657,-0.273908,-0.081627,0.0,14.0,70.0,185.0,33.0,1.0
435407,-1.467218,-1.323912,-0.24184,-0.020995,-0.396421,-0.06551,0.0,14.0,70.0,185.0,33.0,1.0
435408,-1.609239,-1.339011,-0.37309,-0.048915,-0.416419,-0.084374,0.0,14.0,70.0,185.0,33.0,1.0
435409,-1.73592,-1.3413469999999998,-0.490036,0.020548,-0.344702,-0.14596099999999998,0.0,14.0,70.0,185.0,33.0,1.0
435410,-1.844234,-1.333876,-0.586183,0.178623,-0.180912,-0.223773,0.0,14.0,70.0,185.0,33.0,1.0
435411,-1.929496,-1.32066,-0.656705,0.3134,-0.063407,-0.301518,0.0,14.0,70.0,185.0,33.0,1.0
435412,-2.004505,-1.3052469999999998,-0.722619,0.4117270000000001,-0.039533,-0.26205300000000004,0.0,14.0,70.0,185.0,33.0,1.0
435413,-2.0712490000000003,-1.2905209999999998,-0.809683,0.40742,0.116871,-0.113015,0.0,14.0,70.0,185.0,33.0,1.0
435414,-2.11317,-1.272237,-0.902583,0.137264,0.51044,-0.354785,0.0,14.0,70.0,185.0,33.0,1.0
435415,-2.182425,-1.256901,-0.998713,0.105657,0.513462,-0.527466,0.0,14.0,70.0,185.0,33.0,1.0
435416,-2.243834,-1.24988,-1.027182,0.14771900000000002,0.39903,-0.411045,0.0,14.0,70.0,185.0,33.0,1.0
435417,-2.236234,-1.247686,-0.970535,0.255702,0.59226,-0.375248,0.0,14.0,70.0,185.0,33.0,1.0
435418,-2.1940150000000003,-1.245172,-0.8938280000000001,0.340059,0.65994,-0.440142,0.0,14.0,70.0,185.0,33.0,1.0
435419,-2.105799,-1.248144,-0.7832979999999999,0.487442,0.5240600000000001,-0.302257,0.0,14.0,70.0,185.0,33.0,1.0
435420,-1.927908,-1.2547700000000002,-0.591444,0.482,0.566383,0.06905499999999999,0.0,14.0,70.0,185.0,33.0,1.0
435421,-1.716371,-1.254804,-0.355798,0.035902,0.015408000000000003,-0.009996,0.0,14.0,70.0,185.0,33.0,1.0
435422,-1.549609,-1.242104,-0.120491,0.44719,0.443839,0.049517,0.0,14.0,70.0,185.0,33.0,1.0
435423,-1.422527,-1.221011,0.111797,0.690936,0.570838,0.121911,0.0,14.0,70.0,185.0,33.0,1.0
435424,-1.336471,-1.203822,0.306014,0.891465,0.647195,0.188969,0.0,14.0,70.0,185.0,33.0,1.0
435425,-1.2889700000000002,-1.199727,0.439641,0.635016,0.5670069999999999,0.115657,0.0,14.0,70.0,185.0,33.0,1.0
435426,-1.261651,-1.207768,0.535886,0.551297,0.527744,0.13437000000000002,0.0,14.0,70.0,185.0,33.0,1.0
435427,-1.244399,-1.219771,0.637624,0.473499,0.375493,0.120974,0.0,14.0,70.0,185.0,33.0,1.0
435428,-1.237834,-1.231566,0.7599060000000001,0.517728,0.188718,0.224569,0.0,14.0,70.0,185.0,33.0,1.0
435429,-1.23846,-1.239169,0.897214,0.604333,-0.0073269999999999984,0.277449,0.0,14.0,70.0,185.0,33.0,1.0
435430,-1.226256,-1.240931,1.048812,0.70052,-0.084132,0.198175,0.0,14.0,70.0,185.0,33.0,1.0
435431,-1.198312,-1.241254,1.207763,0.792458,-0.088128,0.089779,0.0,14.0,70.0,185.0,33.0,1.0
