index,attitude.roll,attitude.pitch,attitude.yaw,userAcceleration.x,userAcceleration.y,userAcceleration.z,act,id,weight,height,age,gender
532815,-0.252531,-1.399097,-0.498399,-0.041406,-0.33612600000000004,0.048022,0.0,17.0,54.0,164.0,26.0,0.0
532816,-0.262335,-1.393297,-0.519827,-0.023229,-0.467488,0.030818,0.0,17.0,54.0,164.0,26.0,0.0
532817,-0.28065,-1.384364,-0.547095,0.085927,-0.488348,-0.014753,0.0,17.0,54.0,164.0,26.0,0.0
532818,-0.304861,-1.37391,-0.575785,0.193081,-0.468672,0.013244,0.0,17.0,54.0,164.0,26.0,0.0
532819,-0.322147,-1.364975,-0.597435,0.167163,-0.357525,0.11631500000000003,0.0,17.0,54.0,164.0,26.0,0.0
532820,-0.34030900000000003,-1.358226,-0.617032,0.086344,-0.244673,0.050821,0.0,17.0,54.0,164.0,26.0,0.0
532821,-0.36865,-1.351672,-0.640732,0.14417,-0.09442,0.014862,0.0,17.0,54.0,164.0,26.0,0.0
532822,-0.388809,-1.342343,-0.660381,0.155947,0.149365,0.219704,0.0,17.0,54.0,164.0,26.0,0.0
532823,-0.381183,-1.328902,-0.663007,-0.097688,0.437546,0.33112,0.0,17.0,54.0,164.0,26.0,0.0
532824,-0.348512,-1.311648,-0.637033,-0.225022,0.486288,0.323911,0.0,17.0,54.0,164.0,26.0,0.0
532825,-0.314014,-1.292691,-0.5974689999999999,-0.05963,0.355989,0.068138,0.0,17.0,54.0,164.0,26.0,0.0
532826,-0.283343,-1.273377,-0.558821,-0.040709,0.538609,-0.09483,0.0,17.0,54.0,164.0,26.0,0.0
532827,-0.240353,-1.251741,-0.517432,-0.16717,0.785163,-0.143367,0.0,17.0,54.0,164.0,26.0,0.0
532828,-0.191528,-1.234247,-0.473224,-0.20934,1.192224,-0.195893,0.0,17.0,54.0,164.0,26.0,0.0
532829,-0.168141,-1.224843,-0.450022,-0.016496,0.405317,-0.212158,0.0,17.0,54.0,164.0,26.0,0.0
532830,-0.181296,-1.212906,-0.459195,0.038852,0.063438,-0.120155,0.0,17.0,54.0,164.0,26.0,0.0
532831,-0.204446,-1.199759,-0.481867,-0.003811,-0.042746,0.025451,0.0,17.0,54.0,164.0,26.0,0.0
532832,-0.230669,-1.193135,-0.510483,-0.04599,-0.159632,0.06792999999999999,0.0,17.0,54.0,164.0,26.0,0.0
532833,-0.261699,-1.192226,-0.541608,-0.029471,-0.2288,0.081888,0.0,17.0,54.0,164.0,26.0,0.0
532834,-0.2922,-1.196105,-0.570731,-0.028243,-0.289675,0.106403,0.0,17.0,54.0,164.0,26.0,0.0
532835,-0.32636,-1.206826,-0.600017,0.004187,-0.40318,0.120623,0.0,17.0,54.0,164.0,26.0,0.0
532836,-0.363122,-1.221729,-0.63071,0.060829,-0.456049,0.137402,0.0,17.0,54.0,164.0,26.0,0.0
532837,-0.392824,-1.238048,-0.6553439999999999,0.102193,-0.500492,0.164518,0.0,17.0,54.0,164.0,26.0,0.0
532838,-0.408242,-1.256137,-0.6661189999999999,-0.003585,-0.638936,0.205012,0.0,17.0,54.0,164.0,26.0,0.0
532839,-0.410544,-1.275943,-0.663284,-0.076146,-0.6484489999999999,0.157208,0.0,17.0,54.0,164.0,26.0,0.0
532840,-0.405249,-1.295505,-0.651662,-0.13481,-0.620442,0.111025,0.0,17.0,54.0,164.0,26.0,0.0
532841,-0.400211,-1.313172,-0.644997,-0.172724,-0.388842,0.107125,0.0,17.0,54.0,164.0,26.0,0.0
532842,-0.410569,-1.330612,-0.656652,-0.083875,-0.204723,0.090648,0.0,17.0,54.0,164.0,26.0,0.0
532843,-0.420497,-1.345613,-0.670638,-0.02174,-0.302268,0.057280999999999985,0.0,17.0,54.0,164.0,26.0,0.0
532844,-0.422418,-1.357749,-0.680605,-0.015524,-0.292958,-0.009898,0.0,17.0,54.0,164.0,26.0,0.0
532845,-0.41898,-1.369204,-0.683305,-0.024852000000000003,0.01903,0.07368,0.0,17.0,54.0,164.0,26.0,0.0
532846,-0.39236,-1.37175,-0.670659,-0.041126,0.674636,0.252585,0.0,17.0,54.0,164.0,26.0,0.0
532847,-0.370191,-1.368561,-0.671407,-0.056667,1.174677,0.184955,0.0,17.0,54.0,164.0,26.0,0.0
532848,-0.392919,-1.367762,-0.701466,0.36828,0.7475149999999999,0.581105,0.0,17.0,54.0,164.0,26.0,0.0
532849,-0.384978,-1.373841,-0.692351,0.070904,0.789734,-0.221144,0.0,17.0,54.0,164.0,26.0,0.0
532850,-0.338638,-1.364032,-0.6420859999999999,0.016347,1.235747,-0.243187,0.0,17.0,54.0,164.0,26.0,0.0
532851,-0.314868,-1.343391,-0.621067,0.04281,1.51305,-0.087703,0.0,17.0,54.0,164.0,26.0,0.0
532852,-0.297462,-1.331484,-0.602669,0.042494,0.06599,-0.107,0.0,17.0,54.0,164.0,26.0,0.0
532853,-0.273459,-1.321624,-0.576689,0.098045,-0.034684,0.004202,0.0,17.0,54.0,164.0,26.0,0.0
532854,-0.248502,-1.321622,-0.545311,0.103971,-0.173325,0.103052,0.0,17.0,54.0,164.0,26.0,0.0
532855,-0.226163,-1.333683,-0.514201,0.029906,0.034938,0.236402,0.0,17.0,54.0,164.0,26.0,0.0
532856,-0.210835,-1.351184,-0.493854,-0.028797000000000007,0.091447,0.184929,0.0,17.0,54.0,164.0,26.0,0.0
532857,-0.209663,-1.369069,-0.488799,-0.033282,0.076308,0.150586,0.0,17.0,54.0,164.0,26.0,0.0
532858,-0.217007,-1.38183,-0.495736,0.036948,-0.083441,0.171344,0.0,17.0,54.0,164.0,26.0,0.0
532859,-0.222898,-1.390792,-0.50668,0.108041,-0.213198,0.186955,0.0,17.0,54.0,164.0,26.0,0.0
532860,-0.232633,-1.3984299999999998,-0.520625,0.123782,-0.320356,0.129712,0.0,17.0,54.0,164.0,26.0,0.0
532861,-0.254909,-1.40516,-0.541918,0.135094,-0.338136,0.081827,0.0,17.0,54.0,164.0,26.0,0.0
532862,-0.28657,-1.408527,-0.571001,-0.067939,-0.316682,0.004963,0.0,17.0,54.0,164.0,26.0,0.0
532863,-0.309696,-1.408875,-0.596999,-0.083165,-0.332241,0.011152,0.0,17.0,54.0,164.0,26.0,0.0
532864,-0.32963400000000004,-1.405189,-0.6250439999999999,-0.055026,-0.353399,-0.041456,0.0,17.0,54.0,164.0,26.0,0.0
532865,-0.353929,-1.397109,-0.659566,0.039367,-0.389953,-0.059345,0.0,17.0,54.0,164.0,26.0,0.0
532866,-0.378014,-1.384204,-0.694525,0.141491,-0.353705,-0.077583,0.0,17.0,54.0,164.0,26.0,0.0
532867,-0.406688,-1.371694,-0.730888,0.159885,-0.299489,-0.106165,0.0,17.0,54.0,164.0,26.0,0.0
532868,-0.439333,-1.359337,-0.768249,0.178745,-0.243686,-0.04559,0.0,17.0,54.0,164.0,26.0,0.0
532869,-0.467098,-1.3448,-0.801659,0.205877,-0.21747600000000006,0.051169,0.0,17.0,54.0,164.0,26.0,0.0
532870,-0.482592,-1.329598,-0.82473,0.145333,-0.131865,0.4159850000000001,0.0,17.0,54.0,164.0,26.0,0.0
532871,-0.4803520000000001,-1.313152,-0.825011,-0.213362,0.5587489999999999,0.322716,0.0,17.0,54.0,164.0,26.0,0.0
532872,-0.463496,-1.2939969999999998,-0.797346,-0.360127,0.92248,-0.019446,0.0,17.0,54.0,164.0,26.0,0.0
532873,-0.422687,-1.273986,-0.747132,-0.26976700000000003,0.737985,0.007188,0.0,17.0,54.0,164.0,26.0,0.0
532874,-0.36887,-1.254199,-0.693991,-0.163641,0.7177140000000001,0.029843,0.0,17.0,54.0,164.0,26.0,0.0
532875,-0.316316,-1.238196,-0.642883,-0.08894400000000001,0.909219,-0.236485,0.0,17.0,54.0,164.0,26.0,0.0
532876,-0.277767,-1.226803,-0.603925,-0.022408,0.620718,-0.164529,0.0,17.0,54.0,164.0,26.0,0.0
532877,-0.261931,-1.214415,-0.5876819999999999,-0.035681,0.240264,-0.07837899999999999,0.0,17.0,54.0,164.0,26.0,0.0
532878,-0.264292,-1.200891,-0.588883,-0.034956,0.033337,0.056489,0.0,17.0,54.0,164.0,26.0,0.0
532879,-0.27839899999999995,-1.193563,-0.602604,-0.08557100000000001,-0.052658,0.03887,0.0,17.0,54.0,164.0,26.0,0.0
532880,-0.299749,-1.192797,-0.62511,-0.096881,-0.094795,0.133241,0.0,17.0,54.0,164.0,26.0,0.0
532881,-0.31988,-1.194965,-0.64877,-0.095093,-0.113842,0.166522,0.0,17.0,54.0,164.0,26.0,0.0
532882,-0.338424,-1.2015049999999998,-0.669443,-0.089179,-0.178067,0.156532,0.0,17.0,54.0,164.0,26.0,0.0
532883,-0.356872,-1.21229,-0.686068,0.084535,-0.410284,0.1472,0.0,17.0,54.0,164.0,26.0,0.0
532884,-0.370537,-1.2262959999999998,-0.696631,0.120723,-0.4617979999999999,0.16116,0.0,17.0,54.0,164.0,26.0,0.0
532885,-0.377346,-1.241938,-0.698951,0.127555,-0.493302,0.172122,0.0,17.0,54.0,164.0,26.0,0.0
532886,-0.379002,-1.258401,-0.693188,0.0618,-0.454988,0.18100000000000002,0.0,17.0,54.0,164.0,26.0,0.0
532887,-0.376287,-1.275281,-0.679651,0.02999,-0.359973,0.169424,0.0,17.0,54.0,164.0,26.0,0.0
532888,-0.370359,-1.29372,-0.6630010000000001,-0.0077290000000000015,-0.279746,0.15918,0.0,17.0,54.0,164.0,26.0,0.0
532889,-0.357975,-1.31473,-0.6435609999999999,-0.07875599999999999,-0.183229,0.1138,0.0,17.0,54.0,164.0,26.0,0.0
532890,-0.346404,-1.335815,-0.628088,-0.094966,-0.182739,0.103339,0.0,17.0,54.0,164.0,26.0,0.0
532891,-0.33695,-1.353309,-0.618598,-0.07898,-0.232836,0.016423,0.0,17.0,54.0,164.0,26.0,0.0
532892,-0.32971,-1.368401,-0.6116560000000001,0.011826,-0.26598,-0.048439,0.0,17.0,54.0,164.0,26.0,0.0
532893,-0.320675,-1.379774,-0.600513,0.06477100000000001,-0.285262,-0.129779,0.0,17.0,54.0,164.0,26.0,0.0
532894,-0.298979,-1.384945,-0.5741350000000001,-0.066014,-0.180197,-0.077988,0.0,17.0,54.0,164.0,26.0,0.0
532895,-0.270641,-1.38846,-0.545424,-0.196215,0.255622,0.0712,0.0,17.0,54.0,164.0,26.0,0.0
532896,-0.266438,-1.390036,-0.55116,-0.158357,1.039532,0.313437,0.0,17.0,54.0,164.0,26.0,0.0
532897,-0.298372,-1.383719,-0.597394,0.13394,0.802909,0.593866,0.0,17.0,54.0,164.0,26.0,0.0
532898,-0.32610500000000003,-1.384394,-0.630007,0.135629,0.16791199999999998,0.188257,0.0,17.0,54.0,164.0,26.0,0.0
532899,-0.325094,-1.383261,-0.621925,0.0416,0.026399,-0.15537,0.0,17.0,54.0,164.0,26.0,0.0
532900,-0.294171,-1.379398,-0.583681,0.020257,1.021862,-0.329471,0.0,17.0,54.0,164.0,26.0,0.0
532901,-0.268019,-1.368197,-0.5570970000000001,0.087646,1.498526,-0.1923,0.0,17.0,54.0,164.0,26.0,0.0
532902,-0.257481,-1.358832,-0.550423,0.094494,1.040508,-0.094569,0.0,17.0,54.0,164.0,26.0,0.0
532903,-0.263386,-1.351935,-0.551899,0.08643200000000001,-0.174082,0.226024,0.0,17.0,54.0,164.0,26.0,0.0
532904,-0.253385,-1.356416,-0.537351,0.042372,-0.327038,0.211143,0.0,17.0,54.0,164.0,26.0,0.0
532905,-0.227272,-1.373512,-0.502842,-0.070188,-0.36253,0.20098,0.0,17.0,54.0,164.0,26.0,0.0
532906,-0.203275,-1.397972,-0.467292,-0.125275,-0.108974,0.121658,0.0,17.0,54.0,164.0,26.0,0.0
532907,-0.19136,-1.421987,-0.448344,-0.114002,-0.022289,0.117874,0.0,17.0,54.0,164.0,26.0,0.0
532908,-0.176117,-1.44113,-0.441939,-0.077248,-0.096174,0.210932,0.0,17.0,54.0,164.0,26.0,0.0
532909,-0.163077,-1.456353,-0.449008,-0.002353,-0.084615,0.208893,0.0,17.0,54.0,164.0,26.0,0.0
532910,-0.172396,-1.466349,-0.477586,0.082761,-0.051878,0.010036,0.0,17.0,54.0,164.0,26.0,0.0
532911,-0.200818,-1.467418,-0.52403,0.058375,-0.077806,-0.033013,0.0,17.0,54.0,164.0,26.0,0.0
532912,-0.233985,-1.458537,-0.576368,0.0473,-0.11393,-0.07762100000000001,0.0,17.0,54.0,164.0,26.0,0.0
532913,-0.261943,-1.443078,-0.621405,0.197758,-0.330417,-0.049845,0.0,17.0,54.0,164.0,26.0,0.0
532914,-0.273177,-1.423154,-0.647991,0.244807,-0.404267,0.07432799999999999,0.0,17.0,54.0,164.0,26.0,0.0
532915,-0.275082,-1.400152,-0.658305,0.20364,-0.468691,-0.009203,0.0,17.0,54.0,164.0,26.0,0.0
532916,-0.290625,-1.3798,-0.6686840000000001,0.14713800000000002,-0.503895,-0.1209,0.0,17.0,54.0,164.0,26.0,0.0
532917,-0.314626,-1.364776,-0.6833779999999999,0.15548,-0.416734,-0.087164,0.0,17.0,54.0,164.0,26.0,0.0
532918,-0.337939,-1.357607,-0.703553,0.119384,-0.136312,-0.000655,0.0,17.0,54.0,164.0,26.0,0.0
532919,-0.36845,-1.352765,-0.735741,0.054192,-0.008246,0.060942,0.0,17.0,54.0,164.0,26.0,0.0
532920,-0.408704,-1.345681,-0.7780229999999999,0.117043,-0.005667,0.142156,0.0,17.0,54.0,164.0,26.0,0.0
532921,-0.435807,-1.333332,-0.80704,0.126002,0.109804,0.319274,0.0,17.0,54.0,164.0,26.0,0.0
532922,-0.42019,-1.316729,-0.792613,-0.123181,0.395444,0.267204,0.0,17.0,54.0,164.0,26.0,0.0
532923,-0.382328,-1.297693,-0.745437,-0.015404,0.4153270000000001,0.271233,0.0,17.0,54.0,164.0,26.0,0.0
532924,-0.328745,-1.278833,-0.677333,0.014907,0.33023800000000003,0.07307000000000001,0.0,17.0,54.0,164.0,26.0,0.0
532925,-0.286787,-1.2602719999999998,-0.622862,-0.057932,0.582205,-0.188802,0.0,17.0,54.0,164.0,26.0,0.0
532926,-0.25273,-1.242306,-0.585884,-0.29975,1.096164,-0.316334,0.0,17.0,54.0,164.0,26.0,0.0
532927,-0.208276,-1.2288940000000002,-0.542931,-0.272334,1.1106,-0.220954,0.0,17.0,54.0,164.0,26.0,0.0
532928,-0.178321,-1.218877,-0.508523,-0.055345000000000005,0.449913,-0.095435,0.0,17.0,54.0,164.0,26.0,0.0
532929,-0.181378,-1.208855,-0.500771,0.065901,0.047318,-0.04885,0.0,17.0,54.0,164.0,26.0,0.0
532930,-0.196927,-1.196517,-0.508259,0.048231,-0.067643,0.11303,0.0,17.0,54.0,164.0,26.0,0.0
532931,-0.223156,-1.187555,-0.526794,0.045094,-0.28883200000000003,0.218837,0.0,17.0,54.0,164.0,26.0,0.0
532932,-0.259398,-1.184932,-0.55016,0.071113,-0.43247,0.205117,0.0,17.0,54.0,164.0,26.0,0.0
532933,-0.294267,-1.188079,-0.570038,0.05762100000000001,-0.499034,0.151069,0.0,17.0,54.0,164.0,26.0,0.0
532934,-0.324656,-1.197746,-0.586198,-0.02428,-0.331687,0.100142,0.0,17.0,54.0,164.0,26.0,0.0
532935,-0.347789,-1.212073,-0.5978680000000001,-0.090736,-0.251013,0.006322,0.0,17.0,54.0,164.0,26.0,0.0
532936,-0.360964,-1.229006,-0.601458,-0.064885,-0.222231,-0.009964,0.0,17.0,54.0,164.0,26.0,0.0
532937,-0.363834,-1.246668,-0.5962569999999999,0.020025,-0.234855,-0.011256,0.0,17.0,54.0,164.0,26.0,0.0
532938,-0.355173,-1.263217,-0.579781,0.029215,-0.356725,-0.025859,0.0,17.0,54.0,164.0,26.0,0.0
532939,-0.344181,-1.281008,-0.558975,0.06612799999999999,-0.424262,0.062592,0.0,17.0,54.0,164.0,26.0,0.0
532940,-0.33148,-1.304139,-0.539729,-0.095216,-0.174801,0.163232,0.0,17.0,54.0,164.0,26.0,0.0
532941,-0.320764,-1.325899,-0.52868,-0.122412,-0.018655,0.250572,0.0,17.0,54.0,164.0,26.0,0.0
532942,-0.323783,-1.343897,-0.5320020000000001,-0.159512,-0.090686,0.14887999999999998,0.0,17.0,54.0,164.0,26.0,0.0
532943,-0.334862,-1.356322,-0.5435479999999999,-0.11965,-0.185096,-0.014363999999999997,0.0,17.0,54.0,164.0,26.0,0.0
532944,-0.350171,-1.365432,-0.559129,-0.007303,-0.280134,-0.13839200000000002,0.0,17.0,54.0,164.0,26.0,0.0
532945,-0.350139,-1.370015,-0.5626180000000001,0.090516,-0.403342,-0.160109,0.0,17.0,54.0,164.0,26.0,0.0
532946,-0.332773,-1.370765,-0.546451,0.067359,-0.368137,-0.060051,0.0,17.0,54.0,164.0,26.0,0.0
532947,-0.311785,-1.373468,-0.520679,-0.121323,-0.041644,0.089902,0.0,17.0,54.0,164.0,26.0,0.0
532948,-0.316463,-1.377942,-0.51473,-0.056128,0.5542600000000001,0.412824,0.0,17.0,54.0,164.0,26.0,0.0
532949,-0.361806,-1.376194,-0.553316,0.216987,0.7792060000000001,0.53396,0.0,17.0,54.0,164.0,26.0,0.0
532950,-0.408925,-1.376448,-0.6009800000000001,0.280536,0.194516,0.41344,0.0,17.0,54.0,164.0,26.0,0.0
532951,-0.394939,-1.379199,-0.589409,0.035434,0.396869,-0.086043,0.0,17.0,54.0,164.0,26.0,0.0
532952,-0.34536100000000003,-1.374582,-0.535018,0.129929,1.697442,-0.434627,0.0,17.0,54.0,164.0,26.0,0.0
532953,-0.293095,-1.349361,-0.482808,0.14696199999999998,0.6726409999999999,0.050826,0.0,17.0,54.0,164.0,26.0,0.0
532954,-0.262906,-1.333551,-0.451315,-0.049625,0.128627,-0.037161,0.0,17.0,54.0,164.0,26.0,0.0
532955,-0.2622,-1.325726,-0.440449,-0.014476,-0.212918,-0.040109,0.0,17.0,54.0,164.0,26.0,0.0
532956,-0.265496,-1.326296,-0.433729,0.083457,-0.093931,0.05807200000000001,0.0,17.0,54.0,164.0,26.0,0.0
532957,-0.276429,-1.34195,-0.43316,0.128636,0.084741,0.143688,0.0,17.0,54.0,164.0,26.0,0.0
532958,-0.303688,-1.367725,-0.450187,0.040759,0.076426,-0.038187,0.0,17.0,54.0,164.0,26.0,0.0
532959,-0.330387,-1.388795,-0.469027,0.039165,0.072394,-0.05943,0.0,17.0,54.0,164.0,26.0,0.0
532960,-0.351387,-1.404051,-0.491011,0.043007,-0.217118,0.171195,0.0,17.0,54.0,164.0,26.0,0.0
532961,-0.38748,-1.41949,-0.527251,0.070984,-0.283405,0.14361,0.0,17.0,54.0,164.0,26.0,0.0
532962,-0.447249,-1.435752,-0.583329,0.053594,-0.258809,0.108081,0.0,17.0,54.0,164.0,26.0,0.0
532963,-0.524025,-1.449697,-0.659311,0.052026,-0.21135,0.070101,0.0,17.0,54.0,164.0,26.0,0.0
532964,-0.601857,-1.4576639999999998,-0.738287,0.026639,-0.15561,-0.121293,0.0,17.0,54.0,164.0,26.0,0.0
532965,-0.666536,-1.46043,-0.80543,0.032115,-0.202122,-0.143816,0.0,17.0,54.0,164.0,26.0,0.0
532966,-0.7108300000000001,-1.4591610000000002,-0.8557540000000001,0.078513,-0.340028,-0.080957,0.0,17.0,54.0,164.0,26.0,0.0
532967,-0.748951,-1.454465,-0.900683,0.199691,-0.351106,-0.063448,0.0,17.0,54.0,164.0,26.0,0.0
532968,-0.793512,-1.44745,-0.949234,0.274448,-0.271455,-0.113209,0.0,17.0,54.0,164.0,26.0,0.0
532969,-0.843781,-1.439103,-0.994674,0.331507,-0.227028,-0.100714,0.0,17.0,54.0,164.0,26.0,0.0
532970,-0.8733219999999999,-1.429973,-1.01176,0.309313,-0.223331,-0.072982,0.0,17.0,54.0,164.0,26.0,0.0
532971,-0.8940319999999999,-1.423869,-1.014247,0.199412,-0.29402,-0.034793,0.0,17.0,54.0,164.0,26.0,0.0
532972,-0.913437,-1.4192,-1.014427,0.082479,-0.208884,-0.056816999999999986,0.0,17.0,54.0,164.0,26.0,0.0
532973,-0.938921,-1.413282,-1.021521,0.163501,-0.020213,-0.015056,0.0,17.0,54.0,164.0,26.0,0.0
532974,-0.938843,-1.403531,-1.010073,0.20518000000000006,0.076792,0.221657,0.0,17.0,54.0,164.0,26.0,0.0
532975,-0.8983760000000001,-1.39191,-0.968372,-0.232778,0.458249,0.471507,0.0,17.0,54.0,164.0,26.0,0.0
532976,-0.821615,-1.38152,-0.893357,-0.324049,0.556891,0.393719,0.0,17.0,54.0,164.0,26.0,0.0
532977,-0.7316239999999999,-1.368369,-0.800601,-0.314899,0.710391,0.06026,0.0,17.0,54.0,164.0,26.0,0.0
532978,-0.645668,-1.348934,-0.7143550000000001,-0.103257,1.04302,-0.101834,0.0,17.0,54.0,164.0,26.0,0.0
532979,-0.5475300000000001,-1.3226639999999998,-0.628688,-0.099038,1.137515,-0.07865,0.0,17.0,54.0,164.0,26.0,0.0
532980,-0.458511,-1.295233,-0.551138,0.006229,0.895333,-0.038464,0.0,17.0,54.0,164.0,26.0,0.0
532981,-0.400254,-1.271019,-0.493619,0.189526,0.22030300000000005,-0.075073,0.0,17.0,54.0,164.0,26.0,0.0
532982,-0.376932,-1.247803,-0.458923,0.223971,0.14335499999999998,-0.03684,0.0,17.0,54.0,164.0,26.0,0.0
532983,-0.376291,-1.226032,-0.440801,0.187213,-0.066277,0.078404,0.0,17.0,54.0,164.0,26.0,0.0
532984,-0.393596,-1.210523,-0.43615,0.118076,-0.206217,0.153295,0.0,17.0,54.0,164.0,26.0,0.0
532985,-0.424287,-1.203596,-0.440344,0.076652,-0.267809,0.157686,0.0,17.0,54.0,164.0,26.0,0.0
532986,-0.467131,-1.204775,-0.452494,0.086509,-0.310285,0.147249,0.0,17.0,54.0,164.0,26.0,0.0
532987,-0.518297,-1.213631,-0.471832,0.062831,-0.4785180000000001,0.086913,0.0,17.0,54.0,164.0,26.0,0.0
532988,-0.572221,-1.225675,-0.495183,0.08147599999999999,-0.487314,0.043505,0.0,17.0,54.0,164.0,26.0,0.0
532989,-0.625132,-1.240057,-0.5188560000000001,0.14515999999999998,-0.47806,0.018968,0.0,17.0,54.0,164.0,26.0,0.0
532990,-0.672917,-1.257205,-0.538972,0.1817,-0.4658350000000001,-0.028322000000000007,0.0,17.0,54.0,164.0,26.0,0.0
532991,-0.710479,-1.276025,-0.551878,0.176791,-0.356039,-0.003014,0.0,17.0,54.0,164.0,26.0,0.0
532992,-0.72951,-1.294486,-0.5527350000000001,0.003949,-0.054659000000000006,0.154924,0.0,17.0,54.0,164.0,26.0,0.0
532993,-0.717372,-1.3045719999999998,-0.534502,-0.330987,0.433559,0.318326,0.0,17.0,54.0,164.0,26.0,0.0
532994,-0.7086979999999999,-1.310661,-0.5293220000000001,-0.601417,0.711684,0.026155,0.0,17.0,54.0,164.0,26.0,0.0
532995,-0.7623,-1.32129,-0.577943,-0.120302,0.433767,-0.7333609999999999,0.0,17.0,54.0,164.0,26.0,0.0
532996,-0.768374,-1.3197530000000002,-0.579148,0.30553600000000003,0.587865,-0.462669,0.0,17.0,54.0,164.0,26.0,0.0
532997,-0.686715,-1.297144,-0.5036470000000001,0.272803,1.077554,0.143128,0.0,17.0,54.0,164.0,26.0,0.0
532998,-0.627546,-1.269914,-0.44472,0.189113,0.204409,0.416358,0.0,17.0,54.0,164.0,26.0,0.0
532999,-0.639043,-1.263116,-0.45109,0.180805,-0.203649,0.025138,0.0,17.0,54.0,164.0,26.0,0.0
533000,-0.69319,-1.268359,-0.475616,0.429117,-0.414193,0.080313,0.0,17.0,54.0,164.0,26.0,0.0
533001,-0.756463,-1.280043,-0.491568,0.745185,-0.477529,0.247713,0.0,17.0,54.0,164.0,26.0,0.0
533002,-0.8217760000000001,-1.29524,-0.502169,0.776601,-0.17940699999999998,0.33356,0.0,17.0,54.0,164.0,26.0,0.0
533003,-0.8797719999999999,-1.3108959999999998,-0.505346,0.486779,0.123016,0.4260140000000001,0.0,17.0,54.0,164.0,26.0,0.0
533004,-0.946866,-1.327688,-0.518692,0.014906,0.411104,0.41724,0.0,17.0,54.0,164.0,26.0,0.0
533005,-1.040136,-1.345807,-0.5671729999999999,-0.331462,0.301891,0.186893,0.0,17.0,54.0,164.0,26.0,0.0
533006,-1.113849,-1.362889,-0.610736,-0.446247,0.106679,0.023499000000000003,0.0,17.0,54.0,164.0,26.0,0.0
533007,-1.139578,-1.377033,-0.617409,-0.1698,-0.101663,0.13281400000000002,0.0,17.0,54.0,164.0,26.0,0.0
533008,-1.1425459999999998,-1.38996,-0.609061,-0.014796,-0.216711,0.164388,0.0,17.0,54.0,164.0,26.0,0.0
533009,-1.15657,-1.401918,-0.614857,0.142631,-0.21877600000000005,0.191206,0.0,17.0,54.0,164.0,26.0,0.0
533010,-1.1980959999999998,-1.412227,-0.649928,0.16178800000000002,-0.176206,0.166149,0.0,17.0,54.0,164.0,26.0,0.0
533011,-1.278162,-1.419953,-0.724072,0.162557,-0.115338,0.150186,0.0,17.0,54.0,164.0,26.0,0.0
533012,-1.388817,-1.4249379999999998,-0.83121,0.172296,0.057265,0.065912,0.0,17.0,54.0,164.0,26.0,0.0
533013,-1.502049,-1.427823,-0.944465,0.199946,0.05779500000000001,-0.050577,0.0,17.0,54.0,164.0,26.0,0.0
533014,-1.598079,-1.42771,-1.042775,0.238837,0.036876,-0.08721799999999999,0.0,17.0,54.0,164.0,26.0,0.0
533015,-1.6702119999999998,-1.424335,-1.115898,0.351082,-0.032995,-0.114946,0.0,17.0,54.0,164.0,26.0,0.0
533016,-1.723738,-1.418878,-1.166976,0.332803,-0.051074,-0.098629,0.0,17.0,54.0,164.0,26.0,0.0
533017,-1.7663209999999998,-1.41835,-1.204093,0.154449,-0.031692000000000005,-0.095371,0.0,17.0,54.0,164.0,26.0,0.0
533018,-1.820876,-1.4154639999999998,-1.249778,-0.090621,0.028687,-0.140714,0.0,17.0,54.0,164.0,26.0,0.0
533019,-1.865875,-1.405846,-1.28756,-0.083319,0.068871,-0.147172,0.0,17.0,54.0,164.0,26.0,0.0
533020,-1.873064,-1.397137,-1.29269,0.193664,0.212902,-0.080375,0.0,17.0,54.0,164.0,26.0,0.0
533021,-1.855636,-1.392068,-1.274983,0.4152520000000001,0.204803,-0.000878,0.0,17.0,54.0,164.0,26.0,0.0
533022,-1.842496,-1.391755,-1.258648,0.3884510000000001,0.35872800000000005,0.051212,0.0,17.0,54.0,164.0,26.0,0.0
533023,-1.830388,-1.396339,-1.236658,0.19653,0.474499,0.014503,0.0,17.0,54.0,164.0,26.0,0.0
533024,-1.776936,-1.405704,-1.1732479999999998,0.123993,0.019838,0.320522,0.0,17.0,54.0,164.0,26.0,0.0
533025,-1.676613,-1.414318,-1.061689,0.040506,-0.096852,0.440116,0.0,17.0,54.0,164.0,26.0,0.0
533026,-1.5353709999999998,-1.415245,-0.903609,-0.012767,-0.14823499999999998,0.410928,0.0,17.0,54.0,164.0,26.0,0.0
533027,-1.380999,-1.40755,-0.7310270000000001,-0.071939,0.060872,0.119158,0.0,17.0,54.0,164.0,26.0,0.0
533028,-1.234995,-1.395018,-0.566928,0.04363,0.334516,-0.027219,0.0,17.0,54.0,164.0,26.0,0.0
533029,-1.110419,-1.381981,-0.42933,0.175906,0.37579,-0.069952,0.0,17.0,54.0,164.0,26.0,0.0
533030,-0.98146,-1.3650639999999998,-0.296365,0.297375,0.112382,0.042475,0.0,17.0,54.0,164.0,26.0,0.0
533031,-0.875835,-1.346182,-0.183397,0.404844,-0.053509,0.106471,0.0,17.0,54.0,164.0,26.0,0.0
533032,-0.793373,-1.327794,-0.083131,0.428061,-0.094537,0.169657,0.0,17.0,54.0,164.0,26.0,0.0
533033,-0.731431,-1.314131,0.000478,0.237118,-0.053561,0.10777,0.0,17.0,54.0,164.0,26.0,0.0
533034,-0.694113,-1.298653,0.072386,0.065147,-0.232988,0.06789099999999999,0.0,17.0,54.0,164.0,26.0,0.0
533035,-0.701458,-1.279782,0.114423,0.174458,-0.101416,0.145901,0.0,17.0,54.0,164.0,26.0,0.0
533036,-0.73224,-1.265639,0.138199,0.18843,0.011288,0.033575,0.0,17.0,54.0,164.0,26.0,0.0
533037,-0.756402,-1.2574040000000002,0.162868,0.176264,-0.050231,-0.010651,0.0,17.0,54.0,164.0,26.0,0.0
533038,-0.767538,-1.252093,0.196368,0.162798,-0.16154100000000002,0.114544,0.0,17.0,54.0,164.0,26.0,0.0
533039,-0.775303,-1.252124,0.228481,0.084582,-0.220816,0.104969,0.0,17.0,54.0,164.0,26.0,0.0
533040,-0.787875,-1.257628,0.252661,0.075749,-0.254722,0.018136000000000003,0.0,17.0,54.0,164.0,26.0,0.0
533041,-0.80556,-1.268852,0.26758000000000004,0.126743,-0.228167,-0.046378,0.0,17.0,54.0,164.0,26.0,0.0
533042,-0.8278200000000001,-1.282885,0.274937,0.183565,-0.127067,0.022753,0.0,17.0,54.0,164.0,26.0,0.0
533043,-0.8529030000000001,-1.297087,0.275719,0.052581,0.026712,0.123172,0.0,17.0,54.0,164.0,26.0,0.0
533044,-0.862353,-1.306165,0.28975,-0.222581,0.302435,-0.098626,0.0,17.0,54.0,164.0,26.0,0.0
533045,-0.8639620000000001,-1.309057,0.312424,-0.1899,0.32837,-0.127524,0.0,17.0,54.0,164.0,26.0,0.0
533046,-0.870851,-1.309886,0.327754,0.125277,0.036805,-0.254491,0.0,17.0,54.0,164.0,26.0,0.0
533047,-0.8739629999999999,-1.309794,0.354866,0.360938,-0.176535,-0.209684,0.0,17.0,54.0,164.0,26.0,0.0
533048,-0.86674,-1.309397,0.393555,0.463347,0.073644,-0.111926,0.0,17.0,54.0,164.0,26.0,0.0
533049,-0.8423229999999999,-1.306455,0.447155,0.164907,0.6744899999999999,0.01768,0.0,17.0,54.0,164.0,26.0,0.0
533050,-0.813689,-1.299884,0.499979,-0.068594,1.130726,0.32397600000000004,0.0,17.0,54.0,164.0,26.0,0.0
533051,-0.8388450000000001,-1.296272,0.498293,0.115588,-0.034042,0.19101,0.0,17.0,54.0,164.0,26.0,0.0
533052,-0.922022,-1.296082,0.459712,0.288443,-0.28347100000000003,0.227054,0.0,17.0,54.0,164.0,26.0,0.0
533053,-1.0186879999999998,-1.29581,0.421946,0.610008,-0.555569,0.438352,0.0,17.0,54.0,164.0,26.0,0.0
533054,-1.112547,-1.299583,0.380111,0.427336,-0.254554,0.486305,0.0,17.0,54.0,164.0,26.0,0.0
533055,-1.20618,-1.311324,0.330138,0.22762,-0.094348,0.438882,0.0,17.0,54.0,164.0,26.0,0.0
533056,-1.325665,-1.32543,0.254632,0.024452,0.086104,0.284136,0.0,17.0,54.0,164.0,26.0,0.0
533057,-1.445831,-1.338214,0.171163,-0.126579,-0.004599,-0.076407,0.0,17.0,54.0,164.0,26.0,0.0
533058,-1.533564,-1.351015,0.105304,-0.088749,-0.14846099999999998,-0.041919,0.0,17.0,54.0,164.0,26.0,0.0
533059,-1.593898,-1.364275,0.05858500000000001,0.034906,-0.305044,0.157861,0.0,17.0,54.0,164.0,26.0,0.0
533060,-1.661861,-1.377311,-0.004587,0.018395,-0.197466,0.25423,0.0,17.0,54.0,164.0,26.0,0.0
533061,-1.7575439999999998,-1.384495,-0.097277,0.012485,0.168076,0.011346,0.0,17.0,54.0,164.0,26.0,0.0
533062,-1.848987,-1.3847459999999998,-0.184142,0.110246,0.301895,-0.183832,0.0,17.0,54.0,164.0,26.0,0.0
533063,-1.912595,-1.380976,-0.245,0.346489,0.197268,-0.305452,0.0,17.0,54.0,164.0,26.0,0.0
533064,-1.925864,-1.380126,-0.250648,0.5440189999999999,-0.0045060000000000005,-0.239369,0.0,17.0,54.0,164.0,26.0,0.0
533065,-1.914961,-1.384166,-0.233001,0.478993,-0.088226,-0.032139999999999995,0.0,17.0,54.0,164.0,26.0,0.0
533066,-1.947022,-1.387062,-0.250544,0.258962,-0.06439099999999999,-0.118874,0.0,17.0,54.0,164.0,26.0,0.0
533067,-1.999454,-1.386119,-0.281294,0.203687,-0.031641,-0.14990699999999998,0.0,17.0,54.0,164.0,26.0,0.0
533068,-2.032294,-1.382168,-0.292568,0.150582,-0.016915,-0.141986,0.0,17.0,54.0,164.0,26.0,0.0
533069,-2.050738,-1.375858,-0.291727,0.05316,-0.001873,-0.140742,0.0,17.0,54.0,164.0,26.0,0.0
533070,-2.059483,-1.369619,-0.285182,0.019428,0.023067,-0.157198,0.0,17.0,54.0,164.0,26.0,0.0
533071,-2.0571650000000004,-1.365164,-0.270731,-0.06337999999999999,0.061122,-0.209168,0.0,17.0,54.0,164.0,26.0,0.0
533072,-2.049217,-1.362205,-0.251778,0.023699,0.068597,-0.261127,0.0,17.0,54.0,164.0,26.0,0.0
533073,-2.025851,-1.359675,-0.22197600000000006,0.249795,0.100588,-0.128591,0.0,17.0,54.0,164.0,26.0,0.0
533074,-1.995277,-1.357651,-0.188112,0.408576,0.133714,-0.037474,0.0,17.0,54.0,164.0,26.0,0.0
533075,-1.976989,-1.357281,-0.167575,0.35749000000000003,0.343219,0.028957,0.0,17.0,54.0,164.0,26.0,0.0
533076,-1.978128,-1.360986,-0.162243,0.344547,0.492419,0.034778,0.0,17.0,54.0,164.0,26.0,0.0
533077,-1.975616,-1.369828,-0.147643,0.192218,0.228165,0.099323,0.0,17.0,54.0,164.0,26.0,0.0
533078,-1.936941,-1.38041,-0.095229,0.091279,0.084643,0.109475,0.0,17.0,54.0,164.0,26.0,0.0
533079,-1.843965,-1.386649,0.015106,0.07001399999999999,-0.055938,0.17772000000000002,0.0,17.0,54.0,164.0,26.0,0.0
533080,-1.717026,-1.387325,0.159433,0.051791,-0.084855,0.11844,0.0,17.0,54.0,164.0,26.0,0.0
533081,-1.603492,-1.384415,0.29621,0.189373,0.147171,0.01259,0.0,17.0,54.0,164.0,26.0,0.0
533082,-1.51321,-1.381215,0.412505,0.242994,0.29701500000000003,-0.057256,0.0,17.0,54.0,164.0,26.0,0.0
533083,-1.409615,-1.378633,0.536465,0.308491,0.315114,-0.056238,0.0,17.0,54.0,164.0,26.0,0.0
533084,-1.302425,-1.376342,0.666424,0.275171,0.092425,0.035316,0.0,17.0,54.0,164.0,26.0,0.0
533085,-1.21736,-1.372941,0.7821140000000001,0.238166,0.01925,0.074589,0.0,17.0,54.0,164.0,26.0,0.0
533086,-1.151426,-1.367696,0.8858,0.194766,-0.088821,0.102524,0.0,17.0,54.0,164.0,26.0,0.0
533087,-1.101219,-1.362023,0.980281,0.176475,-0.125152,0.107449,0.0,17.0,54.0,164.0,26.0,0.0
533088,-1.073065,-1.356854,1.057808,0.146449,-0.114714,0.057791,0.0,17.0,54.0,164.0,26.0,0.0
533089,-1.068342,-1.351108,1.117811,0.194116,-0.088774,0.054309,0.0,17.0,54.0,164.0,26.0,0.0
533090,-1.072476,-1.345818,1.171259,0.16629000000000002,-0.068534,0.091157,0.0,17.0,54.0,164.0,26.0,0.0
533091,-1.075674,-1.342355,1.223169,0.086805,-0.11901,0.100205,0.0,17.0,54.0,164.0,26.0,0.0
533092,-1.075373,-1.3408719999999998,1.273585,-0.00763,-0.15428699999999998,0.08680700000000001,0.0,17.0,54.0,164.0,26.0,0.0
533093,-1.0739,-1.34188,1.318003,-0.091202,-0.164465,0.071773,0.0,17.0,54.0,164.0,26.0,0.0
533094,-1.072085,-1.345493,1.35289,-0.112603,-0.13581300000000002,0.030930000000000006,0.0,17.0,54.0,164.0,26.0,0.0
533095,-1.067059,-1.350984,1.382846,-0.101231,-0.118425,0.014071,0.0,17.0,54.0,164.0,26.0,0.0
533096,-1.053469,-1.35725,1.414783,-0.092267,-0.051291,-0.056943,0.0,17.0,54.0,164.0,26.0,0.0
533097,-1.03571,-1.361899,1.446413,-0.116225,-0.048679,-0.027229000000000003,0.0,17.0,54.0,164.0,26.0,0.0
533098,-1.021496,-1.3634389999999998,1.473484,-0.032012,-0.049837,-0.003824,0.0,17.0,54.0,164.0,26.0,0.0
533099,-1.014441,-1.363013,1.491006,0.037786,-0.015432,-0.025027,0.0,17.0,54.0,164.0,26.0,0.0
533100,-1.01202,-1.362139,1.500777,0.036752,-0.014901,-0.093516,0.0,17.0,54.0,164.0,26.0,0.0
533101,-0.997162,-1.358047,1.519109,-0.042577,0.032937,-0.254092,0.0,17.0,54.0,164.0,26.0,0.0
533102,-0.958432,-1.351692,1.557179,0.018007,0.017773,-0.231857,0.0,17.0,54.0,164.0,26.0,0.0
533103,-0.908727,-1.348842,1.604352,0.119518,0.04835,-0.238585,0.0,17.0,54.0,164.0,26.0,0.0
533104,-0.8618309999999999,-1.348519,1.6518240000000002,0.118533,0.171346,-0.32594,0.0,17.0,54.0,164.0,26.0,0.0
533105,-0.817558,-1.344869,1.697857,0.08583500000000001,0.742729,-0.199604,0.0,17.0,54.0,164.0,26.0,0.0
533106,-0.778944,-1.335905,1.73178,0.053581,0.934153,0.012309,0.0,17.0,54.0,164.0,26.0,0.0
533107,-0.780222,-1.3355,1.7283110000000002,-0.103157,-0.187686,0.055807,0.0,17.0,54.0,164.0,26.0,0.0
533108,-0.7928689999999999,-1.340251,1.722018,-0.042143,-0.401963,0.160643,0.0,17.0,54.0,164.0,26.0,0.0
533109,-0.823941,-1.350163,1.7060509999999998,0.108181,-0.463476,0.247914,0.0,17.0,54.0,164.0,26.0,0.0
533110,-0.8960959999999999,-1.363106,1.6611189999999998,0.350881,-0.356348,0.24150700000000005,0.0,17.0,54.0,164.0,26.0,0.0
533111,-0.986316,-1.37364,1.601545,0.483502,0.06679700000000001,0.206256,0.0,17.0,54.0,164.0,26.0,0.0
533112,-1.064256,-1.3834110000000002,1.546335,0.311386,0.424503,0.018497,0.0,17.0,54.0,164.0,26.0,0.0
533113,-1.117085,-1.393111,1.510777,0.080807,0.399106,-0.113644,0.0,17.0,54.0,164.0,26.0,0.0
533114,-1.131371,-1.402074,1.509639,-0.012824,0.134271,-0.166094,0.0,17.0,54.0,164.0,26.0,0.0
533115,-1.116531,-1.412201,1.533853,-0.022879,0.13262100000000002,-0.168232,0.0,17.0,54.0,164.0,26.0,0.0
533116,-1.091778,-1.423317,1.565431,0.069127,-0.115243,0.014856,0.0,17.0,54.0,164.0,26.0,0.0
533117,-1.0827639999999998,-1.4347379999999998,1.5814979999999998,0.073674,-0.102605,0.076338,0.0,17.0,54.0,164.0,26.0,0.0
533118,-1.096861,-1.445263,1.575416,0.06893300000000001,-0.072041,0.05604,0.0,17.0,54.0,164.0,26.0,0.0
533119,-1.128419,-1.454541,1.553056,0.068026,-0.053782,0.030485,0.0,17.0,54.0,164.0,26.0,0.0
533120,-1.16268,-1.463156,1.526976,0.086141,-0.07728099999999999,-0.027146,0.0,17.0,54.0,164.0,26.0,0.0
533121,-1.183983,-1.470746,1.512072,0.06782300000000001,-0.060764,-0.045914,0.0,17.0,54.0,164.0,26.0,0.0
533122,-1.189995,-1.4761540000000002,1.511831,0.050901,-0.041118,-0.074382,0.0,17.0,54.0,164.0,26.0,0.0
533123,-1.178368,-1.478349,1.528017,0.024511,-0.09273,-0.153547,0.0,17.0,54.0,164.0,26.0,0.0
533124,-1.149671,-1.47759,1.558717,0.035172,-0.118966,-0.150256,0.0,17.0,54.0,164.0,26.0,0.0
533125,-1.112109,-1.474944,1.5958709999999998,0.04618,-0.209719,-0.087502,0.0,17.0,54.0,164.0,26.0,0.0
533126,-1.06651,-1.469865,1.6398700000000002,0.056018,-0.233314,-0.038362,0.0,17.0,54.0,164.0,26.0,0.0
533127,-1.026582,-1.463255,1.6805849999999998,0.06240900000000001,-0.153723,-0.075315,0.0,17.0,54.0,164.0,26.0,0.0
533128,-1.010783,-1.456233,1.702764,0.104179,-0.06720599999999999,-0.112903,0.0,17.0,54.0,164.0,26.0,0.0
533129,-0.994546,-1.447706,1.724913,0.158182,-0.075427,-0.029376,0.0,17.0,54.0,164.0,26.0,0.0
533130,-0.968944,-1.438084,1.752752,0.165253,-0.202297,0.094746,0.0,17.0,54.0,164.0,26.0,0.0
533131,-0.948308,-1.428518,1.777277,0.146085,-0.319424,0.146681,0.0,17.0,54.0,164.0,26.0,0.0
533132,-0.931851,-1.419416,1.803388,0.113105,-0.422127,0.114324,0.0,17.0,54.0,164.0,26.0,0.0
533133,-0.911447,-1.410628,1.838833,0.060491,-0.439929,0.0028,0.0,17.0,54.0,164.0,26.0,0.0
533134,-0.902947,-1.40268,1.868013,0.08144,-0.331788,-0.07712100000000001,0.0,17.0,54.0,164.0,26.0,0.0
533135,-0.908318,-1.39576,1.883131,0.114837,-0.159906,-0.197184,0.0,17.0,54.0,164.0,26.0,0.0
533136,-0.892123,-1.388556,1.909301,0.23541,-0.14364200000000002,-0.048708,0.0,17.0,54.0,164.0,26.0,0.0
533137,-0.849598,-1.382478,1.950389,0.299081,-0.067281,0.207346,0.0,17.0,54.0,164.0,26.0,0.0
533138,-0.78281,-1.377445,2.013582,0.183334,0.06502100000000001,0.240952,0.0,17.0,54.0,164.0,26.0,0.0
533139,-0.679716,-1.369427,2.1094630000000003,-0.062665,0.453464,0.082402,0.0,17.0,54.0,164.0,26.0,0.0
533140,-0.557394,-1.359444,2.222588,-0.311788,0.533315,-0.036256,0.0,17.0,54.0,164.0,26.0,0.0
533141,-0.455024,-1.34519,2.3222080000000003,-0.192928,0.358319,-0.053281,0.0,17.0,54.0,164.0,26.0,0.0
533142,-0.386446,-1.32911,2.393012,-0.117015,0.396832,-0.083992,0.0,17.0,54.0,164.0,26.0,0.0
533143,-0.319935,-1.317513,2.457273,-0.07523300000000001,0.958144,-0.427706,0.0,17.0,54.0,164.0,26.0,0.0
533144,-0.268012,-1.309472,2.508616,0.009117,0.566712,-0.343592,0.0,17.0,54.0,164.0,26.0,0.0
533145,-0.253995,-1.301941,2.527318,0.010146,0.291723,-0.38059,0.0,17.0,54.0,164.0,26.0,0.0
533146,-0.26358200000000004,-1.292232,2.521832,-0.064242,0.01505,-0.12754200000000002,0.0,17.0,54.0,164.0,26.0,0.0
533147,-0.291212,-1.287616,2.496786,-0.075162,-0.043851,-0.127922,0.0,17.0,54.0,164.0,26.0,0.0
533148,-0.33326500000000003,-1.290515,2.45897,-0.025098,-0.071711,-0.038368,0.0,17.0,54.0,164.0,26.0,0.0
533149,-0.38164,-1.299502,2.417303,0.012779,-0.218048,0.072963,0.0,17.0,54.0,164.0,26.0,0.0
533150,-0.441784,-1.315485,2.366947,-0.01018,-0.345835,0.039547000000000006,0.0,17.0,54.0,164.0,26.0,0.0
533151,-0.512088,-1.334456,2.308035,-0.039423,-0.327304,-0.067041,0.0,17.0,54.0,164.0,26.0,0.0
533152,-0.580875,-1.352709,2.250584,0.037099,-0.345789,-0.08489,0.0,17.0,54.0,164.0,26.0,0.0
533153,-0.637266,-1.3702,2.204723,0.094173,-0.440321,-0.01738,0.0,17.0,54.0,164.0,26.0,0.0
533154,-0.6829890000000001,-1.3888969999999998,2.169167,0.085539,-0.500653,-0.038931,0.0,17.0,54.0,164.0,26.0,0.0
533155,-0.724416,-1.409512,2.1395150000000003,0.022918,-0.362938,-0.055362,0.0,17.0,54.0,164.0,26.0,0.0
533156,-0.773622,-1.432284,2.101118,-0.03629,-0.303106,-0.03718,0.0,17.0,54.0,164.0,26.0,0.0
533157,-0.8489540000000001,-1.4556,2.030383,-0.112782,-0.058649,0.086737,0.0,17.0,54.0,164.0,26.0,0.0
533158,-0.94071,-1.471757,1.938052,-0.09476,-0.160581,-0.024505,0.0,17.0,54.0,164.0,26.0,0.0
533159,-1.040859,-1.481366,1.840096,-0.161717,-0.15701500000000002,-0.20858,0.0,17.0,54.0,164.0,26.0,0.0
533160,-1.107777,-1.485183,1.767809,-0.135481,-0.151626,-0.22030500000000006,0.0,17.0,54.0,164.0,26.0,0.0
533161,-1.094162,-1.483689,1.772257,0.034337,-0.32729400000000003,-0.151705,0.0,17.0,54.0,164.0,26.0,0.0
533162,-1.068062,-1.483108,1.7917599999999998,0.122005,-0.454379,-0.208902,0.0,17.0,54.0,164.0,26.0,0.0
533163,-1.103804,-1.486217,1.758095,-0.017672,-0.273754,-0.174414,0.0,17.0,54.0,164.0,26.0,0.0
533164,-1.188452,-1.489586,1.674302,-0.124293,0.239273,-0.037462,0.0,17.0,54.0,164.0,26.0,0.0
533165,-1.282727,-1.486479,1.578124,-0.017141,0.839627,0.368298,0.0,17.0,54.0,164.0,26.0,0.0
533166,-1.321135,-1.475163,1.527243,0.034488,0.918708,0.501987,0.0,17.0,54.0,164.0,26.0,0.0
533167,-1.360197,-1.469812,1.473088,0.035514,0.155851,-0.037149,0.0,17.0,54.0,164.0,26.0,0.0
533168,-1.311425,-1.470893,1.520126,-0.019466,0.469342,-0.224343,0.0,17.0,54.0,164.0,26.0,0.0
533169,-1.149261,-1.471386,1.670412,0.232493,1.6887599999999998,-0.386599,0.0,17.0,54.0,164.0,26.0,0.0
533170,-0.957423,-1.460514,1.850158,0.218467,0.668825,-0.08357,0.0,17.0,54.0,164.0,26.0,0.0
533171,-0.82301,-1.450064,1.979713,0.090792,-0.095809,0.004891,0.0,17.0,54.0,164.0,26.0,0.0
533172,-0.7470859999999999,-1.442189,2.058873,-0.065635,-0.500683,0.056835,0.0,17.0,54.0,164.0,26.0,0.0
533173,-0.7268899999999999,-1.450065,2.081993,-0.083506,-0.515228,-0.05646,0.0,17.0,54.0,164.0,26.0,0.0
533174,-0.754654,-1.471078,2.056793,-0.04982,0.031258999999999995,-0.027153,0.0,17.0,54.0,164.0,26.0,0.0
533175,-0.84759,-1.495814,1.959779,-0.025804,0.263338,-0.065631,0.0,17.0,54.0,164.0,26.0,0.0
533176,-1.028456,-1.513865,1.767541,0.013601,0.336779,-0.107355,0.0,17.0,54.0,164.0,26.0,0.0
533177,-1.276544,-1.523009,1.498968,0.214668,-0.041217,-0.015996,0.0,17.0,54.0,164.0,26.0,0.0
533178,-1.523066,-1.52498,1.229703,0.236448,-0.100605,-0.0025510000000000003,0.0,17.0,54.0,164.0,26.0,0.0
533179,-1.675477,-1.521933,1.0633860000000002,0.19007,-0.201031,-0.06615599999999999,0.0,17.0,54.0,164.0,26.0,0.0
533180,-1.7042990000000002,-1.516343,1.028006,0.094742,-0.292951,-0.207517,0.0,17.0,54.0,164.0,26.0,0.0
533181,-1.682437,-1.508959,1.049866,0.039163,-0.381328,-0.266335,0.0,17.0,54.0,164.0,26.0,0.0
533182,-1.589689,-1.500474,1.142076,0.082223,-0.456192,-0.212538,0.0,17.0,54.0,164.0,26.0,0.0
533183,-1.449776,-1.491938,1.276572,0.179965,-0.450765,-0.090062,0.0,17.0,54.0,164.0,26.0,0.0
533184,-1.306915,-1.483573,1.415505,0.237069,-0.402418,-0.162475,0.0,17.0,54.0,164.0,26.0,0.0
533185,-1.197892,-1.474979,1.530898,0.281746,-0.343497,-0.169969,0.0,17.0,54.0,164.0,26.0,0.0
533186,-1.112474,-1.467257,1.626781,0.185462,-0.3237,-0.088266,0.0,17.0,54.0,164.0,26.0,0.0
533187,-1.073892,-1.462045,1.675701,0.138017,-0.290403,-0.04098,0.0,17.0,54.0,164.0,26.0,0.0
533188,-1.054159,-1.454683,1.703309,0.145279,-0.083446,0.164428,0.0,17.0,54.0,164.0,26.0,0.0
533189,-1.006146,-1.443781,1.752938,0.139113,0.053924,0.25311300000000003,0.0,17.0,54.0,164.0,26.0,0.0
533190,-0.909478,-1.432434,1.847159,-0.278345,0.572713,0.28111,0.0,17.0,54.0,164.0,26.0,0.0
533191,-0.768826,-1.42087,1.991398,-0.42069,0.664828,-0.060562,0.0,17.0,54.0,164.0,26.0,0.0
533192,-0.625214,-1.405022,2.144735,-0.351649,0.470283,-0.110148,0.0,17.0,54.0,164.0,26.0,0.0
533193,-0.50674,-1.37975,2.260616,-0.12580999999999998,0.288656,-0.118801,0.0,17.0,54.0,164.0,26.0,0.0
533194,-0.430739,-1.35344,2.328849,0.074883,0.524353,-0.32851,0.0,17.0,54.0,164.0,26.0,0.0
533195,-0.366479,-1.336087,2.383999,-0.005876,0.7385079999999999,-0.4433760000000001,0.0,17.0,54.0,164.0,26.0,0.0
533196,-0.305587,-1.327434,2.435946,-0.171757,0.589205,-0.326823,0.0,17.0,54.0,164.0,26.0,0.0
533197,-0.28255,-1.320064,2.456323,-0.1134,0.220219,-0.253485,0.0,17.0,54.0,164.0,26.0,0.0
533198,-0.294809,-1.310121,2.446358,0.038658,0.0032049999999999995,-0.114117,0.0,17.0,54.0,164.0,26.0,0.0
533199,-0.330108,-1.303137,2.414297,0.058472,-0.146689,-0.030717,0.0,17.0,54.0,164.0,26.0,0.0
533200,-0.379176,-1.301107,2.3692990000000003,0.07881,-0.266558,0.037518,0.0,17.0,54.0,164.0,26.0,0.0
533201,-0.435752,-1.304553,2.317996,0.023312,-0.367491,0.047560000000000005,0.0,17.0,54.0,164.0,26.0,0.0
533202,-0.502603,-1.313416,2.259115,-0.041788,-0.390491,-0.030012,0.0,17.0,54.0,164.0,26.0,0.0
533203,-0.577398,-1.32677,2.193153,-0.03933,-0.379659,-0.059870000000000013,0.0,17.0,54.0,164.0,26.0,0.0
533204,-0.651522,-1.342855,2.128619,0.060938,-0.41995,0.00192,0.0,17.0,54.0,164.0,26.0,0.0
533205,-0.7143609999999999,-1.360724,2.074616,0.080404,-0.494297,0.031342,0.0,17.0,54.0,164.0,26.0,0.0
533206,-0.7635,-1.380232,2.033232,0.011722,-0.534891,-0.005286,0.0,17.0,54.0,164.0,26.0,0.0
533207,-0.804477,-1.400002,2.0018740000000004,-0.045761,-0.516273,0.0071340000000000015,0.0,17.0,54.0,164.0,26.0,0.0
533208,-0.85359,-1.420217,1.961147,-0.096333,-0.34719,0.075432,0.0,17.0,54.0,164.0,26.0,0.0
533209,-0.929298,-1.438131,1.889334,-0.010899,-0.176699,0.021181,0.0,17.0,54.0,164.0,26.0,0.0
533210,-1.030961,-1.453837,1.792087,0.023954,-0.20821,0.034797,0.0,17.0,54.0,164.0,26.0,0.0
533211,-1.1136780000000002,-1.466011,1.7053029999999998,-0.024867,-0.23127,-0.069089,0.0,17.0,54.0,164.0,26.0,0.0
533212,-1.197075,-1.475783,1.619845,-0.049003,-0.315344,-0.2354,0.0,17.0,54.0,164.0,26.0,0.0
533213,-1.257762,-1.483681,1.558268,-0.026127,-0.343605,-0.197924,0.0,17.0,54.0,164.0,26.0,0.0
533214,-1.280376,-1.490693,1.534548,-0.071492,-0.216078,-0.110756,0.0,17.0,54.0,164.0,26.0,0.0
533215,-1.266209,-1.4961870000000002,1.541937,-0.17920899999999998,0.462361,-0.002124,0.0,17.0,54.0,164.0,26.0,0.0
533216,-1.236118,-1.494533,1.566643,-0.13758299999999998,1.360084,0.135235,0.0,17.0,54.0,164.0,26.0,0.0
533217,-1.223949,-1.481842,1.5755629999999998,0.159869,0.6666890000000001,0.35527,0.0,17.0,54.0,164.0,26.0,0.0
533218,-1.251798,-1.475271,1.545722,0.253683,0.331891,0.25356,0.0,17.0,54.0,164.0,26.0,0.0
533219,-1.248099,-1.478823,1.549722,0.050584,0.7886810000000001,-0.318288,0.0,17.0,54.0,164.0,26.0,0.0
533220,-1.1340059999999998,-1.480797,1.664032,0.116991,1.257541,-0.281321,0.0,17.0,54.0,164.0,26.0,0.0
533221,-0.99154,-1.47007,1.808718,0.139321,1.112002,-0.07448099999999999,0.0,17.0,54.0,164.0,26.0,0.0
533222,-0.911403,-1.462398,1.893825,0.086022,-0.023458,-0.184419,0.0,17.0,54.0,164.0,26.0,0.0
533223,-0.864983,-1.459344,1.949264,0.060585,-0.134283,-0.125469,0.0,17.0,54.0,164.0,26.0,0.0
533224,-0.859039,-1.466153,1.961243,0.052066,-0.224846,-0.092739,0.0,17.0,54.0,164.0,26.0,0.0
533225,-0.886603,-1.480882,1.936164,0.0299,-0.146015,0.106204,0.0,17.0,54.0,164.0,26.0,0.0
533226,-1.011576,-1.498036,1.813566,0.008037,-0.110117,0.081057,0.0,17.0,54.0,164.0,26.0,0.0
533227,-1.279235,-1.511231,1.5497530000000002,-0.014974,-0.091839,0.027205,0.0,17.0,54.0,164.0,26.0,0.0
533228,-1.588916,-1.514823,1.239802,0.057965,-0.062429,-0.002339,0.0,17.0,54.0,164.0,26.0,0.0
533229,-1.802782,-1.512256,1.017309,0.07145499999999999,-0.073803,-0.015079,0.0,17.0,54.0,164.0,26.0,0.0
533230,-1.871143,-1.507962,0.939187,0.095902,-0.211421,-0.167724,0.0,17.0,54.0,164.0,26.0,0.0
533231,-1.827302,-1.504169,0.976387,0.090849,-0.261697,-0.191387,0.0,17.0,54.0,164.0,26.0,0.0
533232,-1.700244,-1.500854,1.097023,0.086228,-0.316952,-0.183084,0.0,17.0,54.0,164.0,26.0,0.0
533233,-1.520572,-1.496256,1.27198,0.156846,-0.442246,-0.245258,0.0,17.0,54.0,164.0,26.0,0.0
533234,-1.341593,-1.489516,1.452017,0.219327,-0.470606,-0.223434,0.0,17.0,54.0,164.0,26.0,0.0
533235,-1.1763290000000002,-1.481227,1.621922,0.294475,-0.528981,-0.156882,0.0,17.0,54.0,164.0,26.0,0.0
533236,-1.06815,-1.472858,1.739465,0.23918000000000006,-0.329116,-0.161382,0.0,17.0,54.0,164.0,26.0,0.0
533237,-1.013688,-1.464597,1.807732,0.209517,-0.258999,-0.139855,0.0,17.0,54.0,164.0,26.0,0.0
533238,-0.997114,-1.457032,1.838225,0.153326,-0.16708900000000002,-0.046108,0.0,17.0,54.0,164.0,26.0,0.0
533239,-0.999072,-1.449287,1.846586,0.098835,0.026416,0.112714,0.0,17.0,54.0,164.0,26.0,0.0
533240,-0.967525,-1.439175,1.881549,-0.154329,0.388197,0.194495,0.0,17.0,54.0,164.0,26.0,0.0
533241,-0.884569,-1.425949,1.967114,-0.206471,0.595525,0.112129,0.0,17.0,54.0,164.0,26.0,0.0
533242,-0.773764,-1.411925,2.088156,-0.129116,0.493047,-0.048191000000000005,0.0,17.0,54.0,164.0,26.0,0.0
533243,-0.630942,-1.396736,2.239088,-0.134792,0.436054,-0.148525,0.0,17.0,54.0,164.0,26.0,0.0
533244,-0.5093949999999999,-1.3765120000000002,2.362855,-0.116892,0.463897,-0.117965,0.0,17.0,54.0,164.0,26.0,0.0
533245,-0.430446,-1.355931,2.445235,-0.119427,0.7339319999999999,-0.263037,0.0,17.0,54.0,164.0,26.0,0.0
533246,-0.374411,-1.342205,2.503312,-0.112794,0.6852689999999999,-0.243667,0.0,17.0,54.0,164.0,26.0,0.0
533247,-0.333484,-1.335576,2.545557,-0.102763,0.300242,-0.202374,0.0,17.0,54.0,164.0,26.0,0.0
533248,-0.32057800000000003,-1.327412,2.56348,-0.059488,0.079704,-0.107653,0.0,17.0,54.0,164.0,26.0,0.0
533249,-0.341509,-1.320834,2.550812,-0.003219,-0.074452,-0.068156,0.0,17.0,54.0,164.0,26.0,0.0
533250,-0.38211,-1.317083,2.51833,0.020101,-0.226608,-0.014308,0.0,17.0,54.0,164.0,26.0,0.0
533251,-0.432968,-1.316575,2.475702,0.012295,-0.336268,0.04686,0.0,17.0,54.0,164.0,26.0,0.0
533252,-0.490559,-1.321238,2.427497,-0.014663999999999996,-0.367078,0.013445,0.0,17.0,54.0,164.0,26.0,0.0
533253,-0.554995,-1.332935,2.373718,-0.029062,-0.346951,-0.015027,0.0,17.0,54.0,164.0,26.0,0.0
533254,-0.6186619999999999,-1.349927,2.318116,-0.00934,-0.397979,-0.010095,0.0,17.0,54.0,164.0,26.0,0.0
533255,-0.671701,-1.368783,2.269361,-0.000699,-0.427846,-0.01125,0.0,17.0,54.0,164.0,26.0,0.0
533256,-0.713819,-1.38863,2.230954,-0.003323,-0.4532560000000001,-0.020327,0.0,17.0,54.0,164.0,26.0,0.0
533257,-0.7515569999999999,-1.409237,2.198918,-0.001943,-0.500192,-0.032059,0.0,17.0,54.0,164.0,26.0,0.0
533258,-0.804138,-1.430997,2.150771,-0.054111,-0.435419,0.049131,0.0,17.0,54.0,164.0,26.0,0.0
533259,-0.8784719999999999,-1.451636,2.073362,-0.16106800000000002,-0.235585,-0.010855,0.0,17.0,54.0,164.0,26.0,0.0
533260,-0.974656,-1.467261,1.972821,-0.104377,-0.188722,-0.02383,0.0,17.0,54.0,164.0,26.0,0.0
533261,-1.09056,-1.47918,1.85052,-0.097919,-0.179751,-0.047737,0.0,17.0,54.0,164.0,26.0,0.0
533262,-1.236564,-1.487617,1.69358,-0.100166,-0.215537,-0.099776,0.0,17.0,54.0,164.0,26.0,0.0
533263,-1.389672,-1.492702,1.528286,-0.043538,-0.275456,-0.210474,0.0,17.0,54.0,164.0,26.0,0.0
533264,-1.5114379999999998,-1.495583,1.396079,-0.009275,-0.158351,-0.166261,0.0,17.0,54.0,164.0,26.0,0.0
533265,-1.592741,-1.499261,1.299249,-0.07912899999999999,0.042047,-0.167918,0.0,17.0,54.0,164.0,26.0,0.0
533266,-1.5903040000000002,-1.502335,1.283019,-0.137647,0.365761,-0.083135,0.0,17.0,54.0,164.0,26.0,0.0
533267,-1.476001,-1.498528,1.382084,0.28317,0.538362,0.394234,0.0,17.0,54.0,164.0,26.0,0.0
533268,-1.4581959999999998,-1.491061,1.395784,0.347111,0.356342,0.243181,0.0,17.0,54.0,164.0,26.0,0.0
533269,-1.484505,-1.492252,1.372183,0.242437,0.339829,-0.016405,0.0,17.0,54.0,164.0,26.0,0.0
533270,-1.39047,-1.494924,1.468647,0.095904,1.625771,-0.6181300000000001,0.0,17.0,54.0,164.0,26.0,0.0
533271,-1.129471,-1.484637,1.725356,0.150072,0.865816,-0.030237,0.0,17.0,54.0,164.0,26.0,0.0
533272,-0.96525,-1.475182,1.887146,-0.011481,0.029119,-0.098029,0.0,17.0,54.0,164.0,26.0,0.0
533273,-0.8602479999999999,-1.4687709999999998,1.999566,0.002734,-0.39339,-0.062445000000000014,0.0,17.0,54.0,164.0,26.0,0.0
533274,-0.784891,-1.470269,2.081635,-0.021558,-0.426287,-0.002581,0.0,17.0,54.0,164.0,26.0,0.0
533275,-0.7433,-1.483889,2.12817,-0.051101,-0.129832,0.049917,0.0,17.0,54.0,164.0,26.0,0.0
533276,-0.777018,-1.503898,2.093525,-0.011494,0.089929,0.044458,0.0,17.0,54.0,164.0,26.0,0.0
533277,-0.885344,-1.518512,1.978376,0.014145,0.029855,0.036491,0.0,17.0,54.0,164.0,26.0,0.0
533278,-1.063789,-1.527943,1.788861,0.085375,-0.108487,0.077863,0.0,17.0,54.0,164.0,26.0,0.0
533279,-1.304054,-1.532101,1.538374,0.164997,-0.158996,0.010197,0.0,17.0,54.0,164.0,26.0,0.0
533280,-1.4907979999999998,-1.530817,1.3455979999999998,0.055807,-0.232828,-0.10442,0.0,17.0,54.0,164.0,26.0,0.0
533281,-1.5614860000000002,-1.525807,1.272166,-0.0033950000000000004,-0.290919,-0.168283,0.0,17.0,54.0,164.0,26.0,0.0
533282,-1.556726,-1.518773,1.276044,-0.020697,-0.283224,-0.178789,0.0,17.0,54.0,164.0,26.0,0.0
533283,-1.465653,-1.510949,1.363627,0.022064,-0.259394,-0.176852,0.0,17.0,54.0,164.0,26.0,0.0
533284,-1.333856,-1.502397,1.487961,0.162147,-0.357937,-0.138942,0.0,17.0,54.0,164.0,26.0,0.0
533285,-1.204698,-1.492508,1.611225,0.24278400000000006,-0.41721,-0.129938,0.0,17.0,54.0,164.0,26.0,0.0
533286,-1.112065,-1.482375,1.703852,0.261396,-0.378692,-0.161375,0.0,17.0,54.0,164.0,26.0,0.0
533287,-1.078902,-1.474249,1.745222,0.217539,-0.287961,-0.139004,0.0,17.0,54.0,164.0,26.0,0.0
533288,-1.058202,-1.467075,1.7768259999999998,0.128641,-0.236569,-0.098323,0.0,17.0,54.0,164.0,26.0,0.0
533289,-1.045906,-1.4596360000000002,1.800214,0.175827,-0.154747,-0.026493,0.0,17.0,54.0,164.0,26.0,0.0
533290,-1.033827,-1.451265,1.820786,0.120682,0.104288,0.081762,0.0,17.0,54.0,164.0,26.0,0.0
533291,-0.978671,-1.441401,1.878388,-0.094605,0.572218,0.218407,0.0,17.0,54.0,164.0,26.0,0.0
533292,-0.8689,-1.429354,1.987903,-0.335475,0.7685770000000001,0.097089,0.0,17.0,54.0,164.0,26.0,0.0
533293,-0.738791,-1.414986,2.120587,-0.458692,0.47502,-0.04228,0.0,17.0,54.0,164.0,26.0,0.0
533294,-0.6151220000000001,-1.393459,2.239835,-0.325857,0.28671,-0.020647,0.0,17.0,54.0,164.0,26.0,0.0
533295,-0.5275569999999999,-1.370586,2.318886,-0.113774,0.412828,-0.033549,0.0,17.0,54.0,164.0,26.0,0.0
533296,-0.470347,-1.353338,2.368287,0.032689,0.530829,-0.161761,0.0,17.0,54.0,164.0,26.0,0.0
533297,-0.419815,-1.345867,2.411661,0.093541,0.7432989999999999,-0.331396,0.0,17.0,54.0,164.0,26.0,0.0
533298,-0.373898,-1.338151,2.451554,-0.012569,0.577767,-0.27288,0.0,17.0,54.0,164.0,26.0,0.0
533299,-0.360796,-1.326956,2.463769,-0.090695,0.068034,-0.181066,0.0,17.0,54.0,164.0,26.0,0.0
533300,-0.373659,-1.31687,2.450942,-0.102889,-0.112404,-0.051879,0.0,17.0,54.0,164.0,26.0,0.0
533301,-0.402207,-1.309101,2.421491,-0.097888,-0.228877,0.059988,0.0,17.0,54.0,164.0,26.0,0.0
533302,-0.446187,-1.30778,2.380986,-0.01127,-0.355381,0.099883,0.0,17.0,54.0,164.0,26.0,0.0
533303,-0.509293,-1.313953,2.3295060000000003,0.042594,-0.347186,0.068944,0.0,17.0,54.0,164.0,26.0,0.0
533304,-0.5754640000000001,-1.324433,2.275497,0.028513,-0.288119,-0.035848000000000005,0.0,17.0,54.0,164.0,26.0,0.0
533305,-0.627397,-1.336716,2.231088,0.047423,-0.307521,-0.012205,0.0,17.0,54.0,164.0,26.0,0.0
533306,-0.66695,-1.350481,2.196411,0.045131,-0.353041,0.042114,0.0,17.0,54.0,164.0,26.0,0.0
533307,-0.699177,-1.365285,2.169025,0.026051,-0.376082,0.008878,0.0,17.0,54.0,164.0,26.0,0.0
533308,-0.728765,-1.381611,2.144502,0.011619,-0.34759,-0.064515,0.0,17.0,54.0,164.0,26.0,0.0
533309,-0.758706,-1.400711,2.117527,-0.057593,-0.30158,-0.034085000000000004,0.0,17.0,54.0,164.0,26.0,0.0
533310,-0.791225,-1.420148,2.084589,-0.152852,-0.21191,-0.007161,0.0,17.0,54.0,164.0,26.0,0.0
533311,-0.8389969999999999,-1.4369999999999998,2.036877,-0.152264,-0.114048,-0.081573,0.0,17.0,54.0,164.0,26.0,0.0
533312,-0.913632,-1.452022,1.96117,-0.146361,-0.08202000000000001,-0.15395899999999998,0.0,17.0,54.0,164.0,26.0,0.0
533313,-1.00254,-1.464705,1.865224,-0.13439600000000002,-0.06476599999999999,-0.124132,0.0,17.0,54.0,164.0,26.0,0.0
533314,-1.058972,-1.471835,1.798929,-0.065032,-0.137441,-0.110344,0.0,17.0,54.0,164.0,26.0,0.0
533315,-1.095979,-1.474894,1.7559509999999998,-0.001985,-0.263898,-0.141246,0.0,17.0,54.0,164.0,26.0,0.0
533316,-1.1209639999999998,-1.475681,1.728907,0.029135,-0.363766,-0.216894,0.0,17.0,54.0,164.0,26.0,0.0
533317,-1.152847,-1.475351,1.6982099999999998,0.050346,-0.300045,-0.126504,0.0,17.0,54.0,164.0,26.0,0.0
533318,-1.199669,-1.476015,1.654929,-0.09486,0.019366,-0.045427,0.0,17.0,54.0,164.0,26.0,0.0
533319,-1.254137,-1.476661,1.605688,-0.123138,0.5376310000000001,0.068481,0.0,17.0,54.0,164.0,26.0,0.0
533320,-1.30556,-1.473177,1.554585,-0.115369,0.792008,0.241826,0.0,17.0,54.0,164.0,26.0,0.0
533321,-1.30382,-1.467162,1.54361,-0.040102,0.345102,0.206384,0.0,17.0,54.0,164.0,26.0,0.0
533322,-1.292051,-1.4657,1.537619,0.00795,0.247613,0.045114,0.0,17.0,54.0,164.0,26.0,0.0
533323,-1.205314,-1.464929,1.6171870000000002,0.214681,0.358199,-0.045383,0.0,17.0,54.0,164.0,26.0,0.0
533324,-1.093606,-1.464303,1.720966,0.023341,1.275059,-0.244053,0.0,17.0,54.0,164.0,26.0,0.0
533325,-0.979028,-1.453139,1.832016,-0.021951,1.272951,-0.215992,0.0,17.0,54.0,164.0,26.0,0.0
533326,-0.8773110000000001,-1.438215,1.925226,0.103047,-0.070249,-0.082396,0.0,17.0,54.0,164.0,26.0,0.0
533327,-0.81379,-1.4295870000000002,1.984537,0.158154,-0.34533200000000003,-0.105902,0.0,17.0,54.0,164.0,26.0,0.0
533328,-0.780596,-1.432644,2.018209,0.147176,-0.304437,-0.096869,0.0,17.0,54.0,164.0,26.0,0.0
533329,-0.773099,-1.446452,2.02611,0.132939,-0.058945,-0.012853,0.0,17.0,54.0,164.0,26.0,0.0
533330,-0.806892,-1.463725,1.991258,0.05899500000000001,0.08241699999999999,-0.012351,0.0,17.0,54.0,164.0,26.0,0.0
533331,-0.8875639999999999,-1.479108,1.90966,0.045223,0.06988899999999999,-0.07493899999999999,0.0,17.0,54.0,164.0,26.0,0.0
533332,-1.002105,-1.49025,1.793855,0.100443,-0.005898,-0.085503,0.0,17.0,54.0,164.0,26.0,0.0
533333,-1.140759,-1.497219,1.6517830000000002,0.184322,-0.091838,-0.074317,0.0,17.0,54.0,164.0,26.0,0.0
533334,-1.255117,-1.500144,1.534848,0.126832,-0.156227,-0.112171,0.0,17.0,54.0,164.0,26.0,0.0
533335,-1.331,-1.500063,1.460043,0.066245,-0.199572,-0.162859,0.0,17.0,54.0,164.0,26.0,0.0
533336,-1.367901,-1.498425,1.424665,0.044004,-0.227393,-0.159242,0.0,17.0,54.0,164.0,26.0,0.0
533337,-1.355013,-1.494987,1.435667,0.087643,-0.252362,-0.16988,0.0,17.0,54.0,164.0,26.0,0.0
533338,-1.30253,-1.489437,1.487106,0.19895,-0.281299,-0.133979,0.0,17.0,54.0,164.0,26.0,0.0
533339,-1.227732,-1.48234,1.565265,0.256157,-0.269772,-0.091718,0.0,17.0,54.0,164.0,26.0,0.0
533340,-1.160038,-1.475833,1.6402869999999998,0.238143,-0.269237,-0.05478,0.0,17.0,54.0,164.0,26.0,0.0
533341,-1.101349,-1.469964,1.7067279999999998,0.20922,-0.274019,-0.03917,0.0,17.0,54.0,164.0,26.0,0.0
533342,-1.069414,-1.463961,1.752841,0.063301,-0.290044,-0.10961300000000003,0.0,17.0,54.0,164.0,26.0,0.0
533343,-1.063837,-1.45621,1.7790439999999998,0.045017,-0.274494,-0.160466,0.0,17.0,54.0,164.0,26.0,0.0
533344,-1.055432,-1.44661,1.798642,-0.026577,-0.170674,-0.073126,0.0,17.0,54.0,164.0,26.0,0.0
533345,-1.038856,-1.435323,1.817308,0.011693,-0.035317,0.012043,0.0,17.0,54.0,164.0,26.0,0.0
533346,-0.998263,-1.420415,1.861098,0.040939,0.06864400000000001,0.028033,0.0,17.0,54.0,164.0,26.0,0.0
533347,-0.931942,-1.405497,1.929917,-0.059301,0.448812,0.05324,0.0,17.0,54.0,164.0,26.0,0.0
533348,-0.841075,-1.39289,2.018683,-0.156777,0.437125,0.063016,0.0,17.0,54.0,164.0,26.0,0.0
533349,-0.7377020000000001,-1.378562,2.116009,-0.167733,0.360644,0.073801,0.0,17.0,54.0,164.0,26.0,0.0
533350,-0.659565,-1.362741,2.189948,-0.221431,0.295064,0.058513,0.0,17.0,54.0,164.0,26.0,0.0
533351,-0.613704,-1.352332,2.237902,-0.100384,0.566585,-0.192233,0.0,17.0,54.0,164.0,26.0,0.0
533352,-0.5716720000000001,-1.3475469999999998,2.28416,0.029948,0.7847350000000001,-0.265021,0.0,17.0,54.0,164.0,26.0,0.0
533353,-0.521486,-1.343326,2.335413,-0.032425,0.545657,-0.22085900000000006,0.0,17.0,54.0,164.0,26.0,0.0
533354,-0.487309,-1.334727,2.371946,-0.038289,0.241374,-0.196067,0.0,17.0,54.0,164.0,26.0,0.0
533355,-0.47598,-1.32348,2.384729,-0.064335,0.049699,-0.112364,0.0,17.0,54.0,164.0,26.0,0.0
533356,-0.475962,-1.312938,2.380568,-0.10833800000000003,-0.032368,-0.062166999999999986,0.0,17.0,54.0,164.0,26.0,0.0
533357,-0.4844520000000001,-1.305482,2.367721,-0.051305,-0.116835,0.050034,0.0,17.0,54.0,164.0,26.0,0.0
533358,-0.505709,-1.302972,2.347493,0.006652,-0.16655799999999998,0.095922,0.0,17.0,54.0,164.0,26.0,0.0
533359,-0.5428310000000001,-1.304668,2.31891,0.046888,-0.196409,0.089864,0.0,17.0,54.0,164.0,26.0,0.0
533360,-0.586282,-1.308905,2.286628,0.082201,-0.244207,0.072973,0.0,17.0,54.0,164.0,26.0,0.0
533361,-0.628645,-1.315502,2.255007,0.105919,-0.296431,0.075212,0.0,17.0,54.0,164.0,26.0,0.0
533362,-0.66896,-1.323706,2.225726,0.086457,-0.381631,-0.015176,0.0,17.0,54.0,164.0,26.0,0.0
533363,-0.70744,-1.333965,2.198659,0.082583,-0.391703,-0.081183,0.0,17.0,54.0,164.0,26.0,0.0
533364,-0.742013,-1.348215,2.172577,0.06661399999999999,-0.393071,-0.118029,0.0,17.0,54.0,164.0,26.0,0.0
533365,-0.767075,-1.365982,2.150983,-0.056428,-0.398273,-0.03323,0.0,17.0,54.0,164.0,26.0,0.0
533366,-0.779745,-1.384265,2.140701,-0.106777,-0.378802,-0.037241,0.0,17.0,54.0,164.0,26.0,0.0
533367,-0.791574,-1.402996,2.13082,-0.15775899999999998,-0.33416,-0.001518,0.0,17.0,54.0,164.0,26.0,0.0
533368,-0.8261430000000001,-1.421381,2.095597,-0.061184,-0.065335,-0.089091,0.0,17.0,54.0,164.0,26.0,0.0
533369,-0.8856930000000001,-1.437373,2.032087,-0.040096,-0.012566,-0.06114,0.0,17.0,54.0,164.0,26.0,0.0
533370,-0.932929,-1.449134,1.973129,-0.038927,-0.131204,-0.145662,0.0,17.0,54.0,164.0,26.0,0.0
533371,-0.995686,-1.4577209999999998,1.900831,-0.025603,-0.185539,-0.24780500000000005,0.0,17.0,54.0,164.0,26.0,0.0
533372,-1.012466,-1.46039,1.875872,0.00339,-0.235534,-0.28581100000000004,0.0,17.0,54.0,164.0,26.0,0.0
533373,-0.98015,-1.458912,1.900364,0.093664,-0.31097800000000003,-0.201165,0.0,17.0,54.0,164.0,26.0,0.0
533374,-0.960929,-1.45898,1.915163,0.014852,-0.054255999999999985,-0.142853,0.0,17.0,54.0,164.0,26.0,0.0
533375,-0.988239,-1.461352,1.886123,-0.055308,0.483202,0.102734,0.0,17.0,54.0,164.0,26.0,0.0
533376,-1.0045110000000002,-1.457832,1.864077,-0.021664,0.79951,0.247773,0.0,17.0,54.0,164.0,26.0,0.0
533377,-1.0484639999999998,-1.454541,1.806937,0.037552,0.38262,0.099874,0.0,17.0,54.0,164.0,26.0,0.0
533378,-1.052763,-1.455741,1.793093,0.182179,0.109746,-0.06535,0.0,17.0,54.0,164.0,26.0,0.0
533379,-0.973823,-1.4556639999999998,1.870902,0.157797,0.485121,-0.140308,0.0,17.0,54.0,164.0,26.0,0.0
533380,-0.88046,-1.450824,1.963031,0.111784,1.239503,-0.097972,0.0,17.0,54.0,164.0,26.0,0.0
533381,-0.820314,-1.437024,2.025578,0.070451,0.4245680000000001,-0.07135599999999999,0.0,17.0,54.0,164.0,26.0,0.0
533382,-0.785618,-1.424954,2.067154,0.007792,-0.080937,-0.099553,0.0,17.0,54.0,164.0,26.0,0.0
533383,-0.764423,-1.420733,2.096443,-0.005907,-0.25258600000000003,-0.121072,0.0,17.0,54.0,164.0,26.0,0.0
533384,-0.752666,-1.427904,2.114046,0.071661,-0.034257,-0.061673,0.0,17.0,54.0,164.0,26.0,0.0
533385,-0.760325,-1.442155,2.109209,0.130775,0.227593,0.022545,0.0,17.0,54.0,164.0,26.0,0.0
533386,-0.7942170000000001,-1.45747,2.0768470000000003,0.094599,0.114126,-0.020367,0.0,17.0,54.0,164.0,26.0,0.0
533387,-0.857665,-1.471515,2.016607,0.056406,-0.008854,-0.056814,0.0,17.0,54.0,164.0,26.0,0.0
533388,-0.946138,-1.482315,1.932975,0.082106,-0.109293,-0.027346,0.0,17.0,54.0,164.0,26.0,0.0
533389,-1.058529,-1.491268,1.82669,0.125426,-0.20925700000000005,-0.049146,0.0,17.0,54.0,164.0,26.0,0.0
533390,-1.194985,-1.498711,1.696394,0.112517,-0.231671,-0.08844099999999999,0.0,17.0,54.0,164.0,26.0,0.0
533391,-1.335295,-1.503289,1.562427,0.054757000000000014,-0.177318,-0.111839,0.0,17.0,54.0,164.0,26.0,0.0
533392,-1.455563,-1.504418,1.450261,0.028668,-0.06402100000000001,-0.223476,0.0,17.0,54.0,164.0,26.0,0.0
533393,-1.522859,-1.502813,1.392333,0.040427,-0.091318,-0.289,0.0,17.0,54.0,164.0,26.0,0.0
533394,-1.513205,-1.499882,1.407083,0.134028,-0.223073,-0.247405,0.0,17.0,54.0,164.0,26.0,0.0
533395,-1.463911,-1.496379,1.456924,0.181575,-0.280481,-0.181787,0.0,17.0,54.0,164.0,26.0,0.0
533396,-1.400715,-1.491777,1.522008,0.194727,-0.30851,-0.099473,0.0,17.0,54.0,164.0,26.0,0.0
533397,-1.336812,-1.485108,1.594328,0.18189,-0.321587,-0.126273,0.0,17.0,54.0,164.0,26.0,0.0
533398,-1.274355,-1.477393,1.670894,0.1782,-0.348043,-0.121558,0.0,17.0,54.0,164.0,26.0,0.0
533399,-1.229582,-1.471324,1.7308689999999998,0.071245,-0.359559,-0.122882,0.0,17.0,54.0,164.0,26.0,0.0
533400,-1.210413,-1.467571,1.764034,0.048027,-0.307558,-0.159495,0.0,17.0,54.0,164.0,26.0,0.0
533401,-1.207892,-1.462684,1.778862,0.029455,-0.226507,-0.201853,0.0,17.0,54.0,164.0,26.0,0.0
533402,-1.192275,-1.454898,1.79879,0.085079,0.169047,0.117351,0.0,17.0,54.0,164.0,26.0,0.0
533403,-1.143557,-1.4458,1.842807,0.091095,0.17014,0.126275,0.0,17.0,54.0,164.0,26.0,0.0
533404,-1.054608,-1.435985,1.927193,-0.222704,0.685068,0.12261199999999997,0.0,17.0,54.0,164.0,26.0,0.0
533405,-0.926819,-1.4271969999999998,2.052305,-0.169529,0.261712,0.08136900000000001,0.0,17.0,54.0,164.0,26.0,0.0
533406,-0.784158,-1.415365,2.192757,-0.144672,0.136048,0.105966,0.0,17.0,54.0,164.0,26.0,0.0
533407,-0.682938,-1.399706,2.299977,-0.041389,0.180677,0.019734,0.0,17.0,54.0,164.0,26.0,0.0
533408,-0.609572,-1.3869,2.383064,-0.066387,0.65503,-0.247353,0.0,17.0,54.0,164.0,26.0,0.0
533409,-0.53851,-1.378097,2.459295,-0.114958,0.928299,-0.18377,0.0,17.0,54.0,164.0,26.0,0.0
533410,-0.482982,-1.369578,2.520843,-0.11489,0.406178,-0.1969,0.0,17.0,54.0,164.0,26.0,0.0
533411,-0.453472,-1.357524,2.556863,-0.077051,0.136182,-0.17994100000000002,0.0,17.0,54.0,164.0,26.0,0.0
533412,-0.445909,-1.345672,2.568659,-0.063417,0.01527,-0.079818,0.0,17.0,54.0,164.0,26.0,0.0
533413,-0.45338,-1.335467,2.564852,-0.064353,-0.15946400000000002,0.028381,0.0,17.0,54.0,164.0,26.0,0.0
533414,-0.466394,-1.327216,2.556347,-0.051636,-0.235266,0.097656,0.0,17.0,54.0,164.0,26.0,0.0
533415,-0.4844979999999999,-1.324262,2.543909,-0.049959,-0.247352,0.1124,0.0,17.0,54.0,164.0,26.0,0.0
533416,-0.512498,-1.328244,2.523069,-0.06399500000000001,-0.234415,0.029228,0.0,17.0,54.0,164.0,26.0,0.0
533417,-0.546724,-1.336863,2.496232,-0.044623,-0.231337,-0.029855,0.0,17.0,54.0,164.0,26.0,0.0
533418,-0.57773,-1.348063,2.471681,0.050729,-0.33571,-0.056863,0.0,17.0,54.0,164.0,26.0,0.0
533419,-0.6029140000000001,-1.360073,2.451448,0.09713,-0.416341,-0.024059,0.0,17.0,54.0,164.0,26.0,0.0
533420,-0.624796,-1.372955,2.432439,0.06327999999999999,-0.413339,-0.055419,0.0,17.0,54.0,164.0,26.0,0.0
533421,-0.643796,-1.388088,2.414953,-0.049993,-0.317294,-0.058441,0.0,17.0,54.0,164.0,26.0,0.0
533422,-0.651868,-1.406493,2.404147,-0.238167,-0.213919,0.049385000000000005,0.0,17.0,54.0,164.0,26.0,0.0
533423,-0.657946,-1.42672,2.390002,-0.326842,-0.07499700000000001,0.055272,0.0,17.0,54.0,164.0,26.0,0.0
533424,-0.7044229999999999,-1.444599,2.335192,-0.218281,-0.16493,-0.015333,0.0,17.0,54.0,164.0,26.0,0.0
533425,-0.789254,-1.457875,2.240236,-0.08814,-0.190378,-0.106042,0.0,17.0,54.0,164.0,26.0,0.0
533426,-0.8662790000000001,-1.465063,2.150225,0.022285,-0.256241,-0.111047,0.0,17.0,54.0,164.0,26.0,0.0
533427,-0.915176,-1.469044,2.0863560000000003,0.1079,-0.340973,-0.134258,0.0,17.0,54.0,164.0,26.0,0.0
533428,-0.933939,-1.471427,2.055339,0.150354,-0.357097,-0.221615,0.0,17.0,54.0,164.0,26.0,0.0
533429,-0.951092,-1.47486,2.032658,0.07195800000000001,-0.223856,-0.203049,0.0,17.0,54.0,164.0,26.0,0.0
533430,-1.002736,-1.482099,1.977031,-0.163438,0.183695,-0.118069,0.0,17.0,54.0,164.0,26.0,0.0
533431,-1.100247,-1.4862,1.880844,-0.227541,0.601156,0.017466,0.0,17.0,54.0,164.0,26.0,0.0
533432,-1.1978540000000002,-1.48128,1.779337,0.039767,0.7567659999999999,0.149917,0.0,17.0,54.0,164.0,26.0,0.0
533433,-1.219267,-1.475207,1.7421060000000002,0.261013,0.233249,0.237795,0.0,17.0,54.0,164.0,26.0,0.0
533434,-1.221999,-1.477811,1.7262810000000002,0.24304,0.136705,-0.052719000000000016,0.0,17.0,54.0,164.0,26.0,0.0
533435,-1.164584,-1.481366,1.7840939999999998,0.047453,0.363478,-0.185136,0.0,17.0,54.0,164.0,26.0,0.0
533436,-1.091874,-1.484044,1.858804,-0.093652,0.7019270000000001,-0.23261,0.0,17.0,54.0,164.0,26.0,0.0
533437,-1.03378,-1.479657,1.913161,-0.14802300000000002,1.209946,-0.385556,0.0,17.0,54.0,164.0,26.0,0.0
533438,-0.986709,-1.469166,1.954241,0.148589,-0.02136,-0.080073,0.0,17.0,54.0,164.0,26.0,0.0
533439,-0.96482,-1.464253,1.969718,0.215983,-0.211569,-0.028957,0.0,17.0,54.0,164.0,26.0,0.0
533440,-0.961471,-1.46943,1.969631,0.2584,-0.343652,-0.005993,0.0,17.0,54.0,164.0,26.0,0.0
533441,-0.982837,-1.48271,1.949928,0.08655,-0.25158600000000003,0.010444,0.0,17.0,54.0,164.0,26.0,0.0
533442,-1.106091,-1.499783,1.834394,0.07677,-0.252942,-0.006552,0.0,17.0,54.0,164.0,26.0,0.0
533443,-1.345923,-1.511243,1.6041530000000002,0.043681,0.192767,-0.17595,0.0,17.0,54.0,164.0,26.0,0.0
533444,-1.604518,-1.514909,1.3430799999999998,0.106956,0.026906,-0.072407,0.0,17.0,54.0,164.0,26.0,0.0
533445,-1.837505,-1.512117,1.102073,0.149179,-0.102557,0.010881,0.0,17.0,54.0,164.0,26.0,0.0
533446,-2.002443,-1.5046620000000002,0.93524,0.18386,-0.247295,-0.045462,0.0,17.0,54.0,164.0,26.0,0.0
533447,-2.112618,-1.495254,0.8281370000000001,0.140533,-0.289461,-0.138627,0.0,17.0,54.0,164.0,26.0,0.0
533448,-2.172091,-1.48585,0.772879,0.078304,-0.226832,-0.176635,0.0,17.0,54.0,164.0,26.0,0.0
533449,-2.172411,-1.478499,0.777104,0.12864,-0.183808,-0.215639,0.0,17.0,54.0,164.0,26.0,0.0
533450,-2.141814,-1.473387,0.81199,0.187978,-0.218511,-0.199211,0.0,17.0,54.0,164.0,26.0,0.0
533451,-2.100502,-1.469749,0.860225,0.25961,-0.24818,-0.239549,0.0,17.0,54.0,164.0,26.0,0.0
533452,-2.071605,-1.466893,0.90213,0.299948,-0.230645,-0.174399,0.0,17.0,54.0,164.0,26.0,0.0
533453,-2.064293,-1.465258,0.92915,0.224809,-0.258642,-0.137471,0.0,17.0,54.0,164.0,26.0,0.0
533454,-2.092802,-1.463734,0.925011,0.09147,-0.204785,-0.147367,0.0,17.0,54.0,164.0,26.0,0.0
533455,-2.121007,-1.4618790000000002,0.919324,0.001065,-0.104441,-0.268475,0.0,17.0,54.0,164.0,26.0,0.0
533456,-2.124759,-1.458996,0.935138,0.024622,-0.014585,-0.324698,0.0,17.0,54.0,164.0,26.0,0.0
533457,-2.090795,-1.456982,0.984646,0.219521,0.015137,-0.192616,0.0,17.0,54.0,164.0,26.0,0.0
533458,-2.035137,-1.457833,1.051972,0.126186,0.181987,0.051489,0.0,17.0,54.0,164.0,26.0,0.0
533459,-1.968805,-1.461424,1.128076,-0.102039,0.39367,0.062577,0.0,17.0,54.0,164.0,26.0,0.0
533460,-1.861512,-1.4685,1.240904,-0.161151,0.360254,0.188679,0.0,17.0,54.0,164.0,26.0,0.0
533461,-1.67851,-1.4756049999999998,1.423653,-0.22363,0.377177,0.141625,0.0,17.0,54.0,164.0,26.0,0.0
533462,-1.464749,-1.476759,1.640027,-0.182639,0.4954310000000001,0.010593,0.0,17.0,54.0,164.0,26.0,0.0
533463,-1.226566,-1.473262,1.879,-0.197678,0.78112,-0.164182,0.0,17.0,54.0,164.0,26.0,0.0
533464,-0.996165,-1.465829,2.104417,-0.067513,0.76942,-0.128474,0.0,17.0,54.0,164.0,26.0,0.0
533465,-0.825709,-1.454461,2.271266,0.068731,0.48938,-0.108064,0.0,17.0,54.0,164.0,26.0,0.0
533466,-0.72064,-1.439237,2.3803240000000003,0.103731,0.364492,-0.127673,0.0,17.0,54.0,164.0,26.0,0.0
533467,-0.671231,-1.423607,2.443697,0.114581,0.13764400000000002,-0.097741,0.0,17.0,54.0,164.0,26.0,0.0
533468,-0.664064,-1.412349,2.474161,0.137979,-0.071748,-0.03045,0.0,17.0,54.0,164.0,26.0,0.0
533469,-0.683864,-1.4045040000000002,2.485981,0.133303,-0.157867,0.017975,0.0,17.0,54.0,164.0,26.0,0.0
533470,-0.723388,-1.398954,2.481677,0.107612,-0.225079,0.0411,0.0,17.0,54.0,164.0,26.0,0.0
533471,-0.775352,-1.396537,2.4640310000000003,-0.064194,-0.356926,-0.026148,0.0,17.0,54.0,164.0,26.0,0.0
533472,-0.837032,-1.397993,2.434527,-0.06558,-0.38771,-0.046269,0.0,17.0,54.0,164.0,26.0,0.0
533473,-0.901592,-1.402687,2.398313,-0.051654,-0.417772,-0.053816,0.0,17.0,54.0,164.0,26.0,0.0
533474,-0.965102,-1.40962,2.3590310000000003,0.036387,-0.370615,-0.08342999999999999,0.0,17.0,54.0,164.0,26.0,0.0
533475,-1.024799,-1.417779,2.32064,0.046556,-0.333531,-0.129553,0.0,17.0,54.0,164.0,26.0,0.0
533476,-1.070857,-1.426244,2.289119,0.049947000000000005,-0.290306,-0.11350899999999997,0.0,17.0,54.0,164.0,26.0,0.0
533477,-1.098035,-1.432077,2.272613,-0.149775,0.085,-0.004868,0.0,17.0,54.0,164.0,26.0,0.0
533478,-1.105654,-1.434456,2.276582,-0.195471,0.216128,-0.032757999999999995,0.0,17.0,54.0,164.0,26.0,0.0
533479,-1.120949,-1.434724,2.271278,-0.227017,0.314175,-0.181023,0.0,17.0,54.0,164.0,26.0,0.0
533480,-1.084059,-1.4326370000000002,2.318126,0.132185,-0.024422,-0.54751,0.0,17.0,54.0,164.0,26.0,0.0
533481,-1.001152,-1.429825,2.4066080000000003,0.16253099999999998,-0.078886,-0.466263,0.0,17.0,54.0,164.0,26.0,0.0
533482,-0.907823,-1.419289,2.507076,0.146279,0.101009,-0.377741,0.0,17.0,54.0,164.0,26.0,0.0
533483,-0.8471139999999999,-1.404697,2.572662,-0.017631,0.951934,-0.048241,0.0,17.0,54.0,164.0,26.0,0.0
533484,-0.85806,-1.396529,2.567948,0.077434,0.336588,-0.131499,0.0,17.0,54.0,164.0,26.0,0.0
533485,-0.8851530000000001,-1.395383,2.558741,0.194704,-0.4532060000000001,0.179587,0.0,17.0,54.0,164.0,26.0,0.0
533486,-0.954396,-1.398574,2.526304,0.357983,-0.499351,0.235709,0.0,17.0,54.0,164.0,26.0,0.0
533487,-1.06734,-1.399655,2.463336,0.447053,-0.389932,0.274607,0.0,17.0,54.0,164.0,26.0,0.0
533488,-1.169435,-1.399162,2.408404,0.355945,0.132323,0.322123,0.0,17.0,54.0,164.0,26.0,0.0
533489,-1.269382,-1.40246,2.34835,0.08251499999999999,0.191778,0.371026,0.0,17.0,54.0,164.0,26.0,0.0
533490,-1.401175,-1.411122,2.24741,-0.091674,0.21470100000000006,0.244704,0.0,17.0,54.0,164.0,26.0,0.0
533491,-1.513393,-1.42038,2.161744,-0.195056,0.049682,-0.065012,0.0,17.0,54.0,164.0,26.0,0.0
533492,-1.572873,-1.432811,2.120348,-0.119677,-0.059358,0.011311,0.0,17.0,54.0,164.0,26.0,0.0
533493,-1.624149,-1.447019,2.081453,-0.083799,-0.091287,0.06469,0.0,17.0,54.0,164.0,26.0,0.0
533494,-1.712425,-1.460102,2.005808,0.00663,-0.13325399999999998,0.037387,0.0,17.0,54.0,164.0,26.0,0.0
533495,-1.833886,-1.468876,1.895937,0.03509,-0.107253,0.02968,0.0,17.0,54.0,164.0,26.0,0.0
533496,-1.977294,-1.472366,1.762512,0.065334,-0.079571,0.008436,0.0,17.0,54.0,164.0,26.0,0.0
533497,-2.13378,-1.471467,1.6151870000000002,0.069324,-0.064773,-0.06398200000000001,0.0,17.0,54.0,164.0,26.0,0.0
533498,-2.275426,-1.468051,1.480723,0.055668,-0.053137,-0.112051,0.0,17.0,54.0,164.0,26.0,0.0
533499,-2.377907,-1.4636129999999998,1.3824379999999998,0.045595,-0.059889,-0.131795,0.0,17.0,54.0,164.0,26.0,0.0
533500,-2.445224,-1.457952,1.318338,0.073152,-0.046283,-0.181227,0.0,17.0,54.0,164.0,26.0,0.0
533501,-2.485244,-1.451026,1.282621,0.102049,-0.007515000000000002,-0.239302,0.0,17.0,54.0,164.0,26.0,0.0
533502,-2.511887,-1.444898,1.261696,0.07359,0.029964,-0.270801,0.0,17.0,54.0,164.0,26.0,0.0
533503,-2.5254790000000003,-1.441026,1.25455,0.037923,0.069108,-0.238934,0.0,17.0,54.0,164.0,26.0,0.0
533504,-2.5262830000000003,-1.442286,1.261019,-0.009578,0.054526,-0.147608,0.0,17.0,54.0,164.0,26.0,0.0
533505,-2.518158,-1.4499,1.2779280000000002,0.067182,0.07812999999999999,-0.132402,0.0,17.0,54.0,164.0,26.0,0.0
533506,-2.506062,-1.456725,1.296289,0.232765,0.321837,0.000833,0.0,17.0,54.0,164.0,26.0,0.0
533507,-2.521651,-1.461765,1.2877809999999998,0.269388,0.481829,0.068719,0.0,17.0,54.0,164.0,26.0,0.0
533508,-2.592143,-1.470308,1.22771,0.066203,0.458292,-0.042629,0.0,17.0,54.0,164.0,26.0,0.0
533509,-2.634424,-1.482422,1.193725,-0.112418,0.127636,-0.038569,0.0,17.0,54.0,164.0,26.0,0.0
533510,-2.522605,-1.497782,1.314087,-0.171511,-0.176947,0.183726,0.0,17.0,54.0,164.0,26.0,0.0
533511,-2.239401,-1.507926,1.6108,-0.210366,-0.223595,0.275097,0.0,17.0,54.0,164.0,26.0,0.0
533512,-1.833921,-1.508899,2.038453,-0.126473,-0.029961,0.116395,0.0,17.0,54.0,164.0,26.0,0.0
533513,-1.471549,-1.502789,2.421451,-0.057159,0.334785,-0.083052,0.0,17.0,54.0,164.0,26.0,0.0
533514,-1.150824,-1.493567,2.753749,0.006736,0.396017,-0.096192,0.0,17.0,54.0,164.0,26.0,0.0
533515,-0.8930309999999999,-1.479042,3.019503,0.025309,0.158854,-0.044745,0.0,17.0,54.0,164.0,26.0,0.0
533516,-0.735588,-1.458322,-3.0935040000000003,0.120759,0.002336,0.014541,0.0,17.0,54.0,164.0,26.0,0.0
533517,-0.6522479999999999,-1.434757,-2.988153,0.17721900000000002,-0.079201,0.039425,0.0,17.0,54.0,164.0,26.0,0.0
533518,-0.6188520000000001,-1.412034,-2.923537,0.17134000000000002,-0.104199,0.021069,0.0,17.0,54.0,164.0,26.0,0.0
533519,-0.607238,-1.390634,-2.876766,0.156042,-0.097203,0.009833,0.0,17.0,54.0,164.0,26.0,0.0
533520,-0.594808,-1.37196,-2.830323,0.094994,-0.14143,0.068733,0.0,17.0,54.0,164.0,26.0,0.0
533521,-0.586555,-1.3578290000000002,-2.787172,-0.006033,-0.215811,0.086228,0.0,17.0,54.0,164.0,26.0,0.0
533522,-0.581897,-1.347995,-2.747558,-0.03948,-0.280168,0.05988,0.0,17.0,54.0,164.0,26.0,0.0
533523,-0.579064,-1.343881,-2.713861,-0.05113,-0.30998200000000004,0.064175,0.0,17.0,54.0,164.0,26.0,0.0
533524,-0.581488,-1.346107,-2.68958,-0.069704,-0.330622,0.056951,0.0,17.0,54.0,164.0,26.0,0.0
533525,-0.592726,-1.353585,-2.676309,-0.116571,-0.278046,-0.089068,0.0,17.0,54.0,164.0,26.0,0.0
533526,-0.606533,-1.362861,-2.666451,-0.106924,-0.225819,-0.124763,0.0,17.0,54.0,164.0,26.0,0.0
533527,-0.611514,-1.370675,-2.649766,-0.053055999999999985,-0.013001,-0.106731,0.0,17.0,54.0,164.0,26.0,0.0
533528,-0.602346,-1.372556,-2.621551,-0.111399,0.16451300000000002,-0.002841,0.0,17.0,54.0,164.0,26.0,0.0
533529,-0.5766140000000001,-1.366644,-2.578634,-0.417049,0.367935,-0.092153,0.0,17.0,54.0,164.0,26.0,0.0
533530,-0.563272,-1.357509,-2.546438,-0.253269,0.372833,-0.130974,0.0,17.0,54.0,164.0,26.0,0.0
533531,-0.562329,-1.353036,-2.527857,0.197836,0.496288,-0.238575,0.0,17.0,54.0,164.0,26.0,0.0
533532,-0.53557,-1.341941,-2.494896,0.497773,0.511089,0.278492,0.0,17.0,54.0,164.0,26.0,0.0
533533,-0.51846,-1.340064,-2.467433,0.167382,-0.007663,0.238803,0.0,17.0,54.0,164.0,26.0,0.0
533534,-0.5591079999999999,-1.349464,-2.477714,0.16461099999999998,-0.09966,0.16151,0.0,17.0,54.0,164.0,26.0,0.0
533535,-0.611889,-1.363575,-2.489479,0.174234,0.004884,0.217825,0.0,17.0,54.0,164.0,26.0,0.0
533536,-0.6601560000000001,-1.376684,-2.486071,0.338696,0.06335199999999999,0.364774,0.0,17.0,54.0,164.0,26.0,0.0
533537,-0.716434,-1.391427,-2.490694,0.380045,0.053702,0.476913,0.0,17.0,54.0,164.0,26.0,0.0
533538,-0.798679,-1.410424,-2.526426,0.237439,-0.022828,0.397679,0.0,17.0,54.0,164.0,26.0,0.0
533539,-0.899691,-1.431483,-2.584393,0.058425,-0.050416,0.24494,0.0,17.0,54.0,164.0,26.0,0.0
533540,-1.013449,-1.452764,-2.659679,-0.010968,-0.004105,0.119556,0.0,17.0,54.0,164.0,26.0,0.0
533541,-1.124558,-1.472852,-2.738023,-0.123927,0.008531,0.08972100000000001,0.0,17.0,54.0,164.0,26.0,0.0
533542,-1.252691,-1.489639,-2.835372,-0.070464,-0.022649,0.052305999999999984,0.0,17.0,54.0,164.0,26.0,0.0
533543,-1.427489,-1.502076,-2.981184,0.014101,-0.043569,-0.02856,0.0,17.0,54.0,164.0,26.0,0.0
533544,-1.60459,-1.508956,-3.130202,0.12478,-0.064113,-0.015788999999999997,0.0,17.0,54.0,164.0,26.0,0.0
533545,-1.753407,-1.51208,3.03175,0.210717,-0.082108,0.038578,0.0,17.0,54.0,164.0,26.0,0.0
533546,-1.904044,-1.512784,2.909192,0.191687,-0.12521,0.064243,0.0,17.0,54.0,164.0,26.0,0.0
533547,-2.0759380000000003,-1.510874,2.766251,0.149395,-0.086401,0.04224,0.0,17.0,54.0,164.0,26.0,0.0
533548,-2.2496970000000003,-1.506552,2.619843,0.118427,-0.059247,-0.010608,0.0,17.0,54.0,164.0,26.0,0.0
533549,-2.3822400000000004,-1.500532,2.513828,0.136716,-0.06729600000000001,-0.028628,0.0,17.0,54.0,164.0,26.0,0.0
533550,-2.463913,-1.494633,2.458068,0.12972999999999998,-0.07721,-0.03497,0.0,17.0,54.0,164.0,26.0,0.0
533551,-2.512999,-1.488802,2.434223,0.117429,-0.079663,-0.021969,0.0,17.0,54.0,164.0,26.0,0.0
533552,-2.544248,-1.482075,2.4267990000000004,0.036985,-0.07381,-0.00634,0.0,17.0,54.0,164.0,26.0,0.0
533553,-2.571565,-1.473523,2.421813,-0.003877,-0.036929,-0.051529,0.0,17.0,54.0,164.0,26.0,0.0
533554,-2.58765,-1.464338,2.425204,-0.050103,0.009797,-0.092713,0.0,17.0,54.0,164.0,26.0,0.0
533555,-2.581141,-1.456583,2.446675,-0.061805999999999986,0.158401,-0.160615,0.0,17.0,54.0,164.0,26.0,0.0
533556,-2.553473,-1.451815,2.484344,0.000718,0.152883,-0.14125,0.0,17.0,54.0,164.0,26.0,0.0
533557,-2.522825,-1.4485,2.523907,0.07247,0.127708,-0.144308,0.0,17.0,54.0,164.0,26.0,0.0
533558,-2.483937,-1.446381,2.5704860000000003,0.19492,0.135522,-0.14362,0.0,17.0,54.0,164.0,26.0,0.0
533559,-2.459167,-1.445467,2.602007,0.315698,0.246125,-0.097217,0.0,17.0,54.0,164.0,26.0,0.0
533560,-2.440353,-1.449042,2.628219,0.308444,0.373461,0.038953,0.0,17.0,54.0,164.0,26.0,0.0
533561,-2.398052,-1.459386,2.68111,0.24542,0.27509,0.275376,0.0,17.0,54.0,164.0,26.0,0.0
533562,-2.295074,-1.475361,2.799649,0.012113,0.072299,0.424003,0.0,17.0,54.0,164.0,26.0,0.0
533563,-2.094917,-1.492835,3.018383,-0.145709,-0.055007000000000014,0.372007,0.0,17.0,54.0,164.0,26.0,0.0
533564,-1.7475080000000005,-1.504557,-2.897477,-0.170479,-0.051503,0.26541,0.0,17.0,54.0,164.0,26.0,0.0
533565,-1.299388,-1.5040440000000002,-2.43193,-0.04247,0.099563,0.137515,0.0,17.0,54.0,164.0,26.0,0.0
533566,-0.926488,-1.491017,-2.0437220000000003,-0.002671,0.270057,0.144573,0.0,17.0,54.0,164.0,26.0,0.0
533567,-0.698669,-1.470045,-1.800691,0.047494,0.258275,0.096295,0.0,17.0,54.0,164.0,26.0,0.0
533568,-0.5725319999999999,-1.445573,-1.656351,0.16079200000000002,0.159045,0.124889,0.0,17.0,54.0,164.0,26.0,0.0
533569,-0.51241,-1.421123,-1.57089,0.126414,0.029796,0.149587,0.0,17.0,54.0,164.0,26.0,0.0
533570,-0.495646,-1.399293,-1.518286,0.119567,-0.023385,0.114317,0.0,17.0,54.0,164.0,26.0,0.0
533571,-0.493172,-1.377331,-1.474649,0.057613,-0.003759,0.073575,0.0,17.0,54.0,164.0,26.0,0.0
533572,-0.487771,-1.353239,-1.432318,-0.009931,-0.078234,0.127539,0.0,17.0,54.0,164.0,26.0,0.0
533573,-0.494602,-1.332348,-1.406205,-0.009118,-0.090907,0.112178,0.0,17.0,54.0,164.0,26.0,0.0
533574,-0.504935,-1.314124,-1.383119,0.045426,-0.147675,0.106087,0.0,17.0,54.0,164.0,26.0,0.0
533575,-0.508126,-1.299157,-1.354436,0.060228,-0.23619,0.13935899999999998,0.0,17.0,54.0,164.0,26.0,0.0
533576,-0.508987,-1.28989,-1.327241,0.030305,-0.31342,0.15106,0.0,17.0,54.0,164.0,26.0,0.0
533577,-0.520856,-1.288277,-1.312192,0.019551,-0.314024,0.113125,0.0,17.0,54.0,164.0,26.0,0.0
533578,-0.5397770000000001,-1.292191,-1.305117,0.030942,-0.238967,-0.01812,0.0,17.0,54.0,164.0,26.0,0.0
533579,-0.5564819999999999,-1.298117,-1.29871,0.032462,-0.199564,-0.041636,0.0,17.0,54.0,164.0,26.0,0.0
533580,-0.564649,-1.304126,-1.2878690000000002,0.023473,-0.156838,-0.035247,0.0,17.0,54.0,164.0,26.0,0.0
533581,-0.561913,-1.306055,-1.267324,-0.039423,0.025028,-0.146591,0.0,17.0,54.0,164.0,26.0,0.0
533582,-0.550365,-1.303477,-1.237731,0.015327,0.114711,-0.06400299999999999,0.0,17.0,54.0,164.0,26.0,0.0
533583,-0.535396,-1.3001969999999998,-1.208614,-0.026499,0.235608,-0.061316,0.0,17.0,54.0,164.0,26.0,0.0
533584,-0.5274310000000001,-1.298795,-1.189756,-0.058111,0.21330900000000005,-0.219302,0.0,17.0,54.0,164.0,26.0,0.0
533585,-0.5267350000000001,-1.29745,-1.176646,0.07122300000000001,-0.061384,-0.249887,0.0,17.0,54.0,164.0,26.0,0.0
533586,-0.523845,-1.292748,-1.158612,0.12603399999999998,-0.184402,-0.170765,0.0,17.0,54.0,164.0,26.0,0.0
533587,-0.519699,-1.283267,-1.134599,0.096336,0.009909,-0.09656,0.0,17.0,54.0,164.0,26.0,0.0
533588,-0.517573,-1.267807,-1.110651,0.122631,0.352238,0.094022,0.0,17.0,54.0,164.0,26.0,0.0
533589,-0.516548,-1.252058,-1.088878,-0.018575,0.5501699999999999,0.229724,0.0,17.0,54.0,164.0,26.0,0.0
533590,-0.517502,-1.239886,-1.075233,-0.110295,0.546609,0.260307,0.0,17.0,54.0,164.0,26.0,0.0
533591,-0.529174,-1.236321,-1.077493,-0.140329,0.002775,0.140868,0.0,17.0,54.0,164.0,26.0,0.0
533592,-0.556645,-1.238138,-1.0837370000000002,-0.029984,-0.112429,0.165421,0.0,17.0,54.0,164.0,26.0,0.0
533593,-0.582533,-1.24007,-1.080665,0.1598,-0.13561099999999998,0.32510900000000004,0.0,17.0,54.0,164.0,26.0,0.0
533594,-0.61566,-1.243739,-1.079042,0.431662,-0.081819,0.396057,0.0,17.0,54.0,164.0,26.0,0.0
533595,-0.649517,-1.249748,-1.077393,0.559028,0.073357,0.453145,0.0,17.0,54.0,164.0,26.0,0.0
533596,-0.679876,-1.261682,-1.080253,0.330691,0.232272,0.396008,0.0,17.0,54.0,164.0,26.0,0.0
533597,-0.718954,-1.279175,-1.091386,0.086274,0.222138,0.22182,0.0,17.0,54.0,164.0,26.0,0.0
533598,-0.750467,-1.296341,-1.098127,-0.010103,0.169156,0.116808,0.0,17.0,54.0,164.0,26.0,0.0
533599,-0.749722,-1.31101,-1.080885,-0.065166,0.057984,0.087775,0.0,17.0,54.0,164.0,26.0,0.0
533600,-0.742159,-1.325893,-1.057258,-0.020821,-0.06948,0.098797,0.0,17.0,54.0,164.0,26.0,0.0
533601,-0.743108,-1.341122,-1.041321,0.100787,-0.147843,0.06286900000000001,0.0,17.0,54.0,164.0,26.0,0.0
533602,-0.749003,-1.355544,-1.034076,0.17533900000000002,-0.126871,0.12795,0.0,17.0,54.0,164.0,26.0,0.0
533603,-0.769054,-1.369777,-1.041705,0.24507,-0.101095,0.162465,0.0,17.0,54.0,164.0,26.0,0.0
533604,-0.801177,-1.384046,-1.059072,0.229281,-0.129677,0.130381,0.0,17.0,54.0,164.0,26.0,0.0
533605,-0.8309860000000001,-1.396312,-1.073469,0.148048,-0.07791000000000001,0.123997,0.0,17.0,54.0,164.0,26.0,0.0
533606,-0.855334,-1.405355,-1.082444,0.079465,-0.039218,0.098362,0.0,17.0,54.0,164.0,26.0,0.0
533607,-0.871489,-1.411116,-1.086247,0.04129,-0.083638,0.049224,0.0,17.0,54.0,164.0,26.0,0.0
533608,-0.8736809999999999,-1.413071,-1.078033,-0.041646,-0.159126,-0.055493,0.0,17.0,54.0,164.0,26.0,0.0
533609,-0.8622799999999999,-1.410331,-1.058698,-0.050316,-0.196656,-0.097348,0.0,17.0,54.0,164.0,26.0,0.0
533610,-0.827882,-1.402281,-1.02249,0.062192,-0.235789,-0.02802,0.0,17.0,54.0,164.0,26.0,0.0
533611,-0.789999,-1.391812,-0.987112,0.093605,-0.359239,0.148919,0.0,17.0,54.0,164.0,26.0,0.0
533612,-0.766774,-1.380654,-0.96364,0.106725,-0.437529,0.075081,0.0,17.0,54.0,164.0,26.0,0.0
533613,-0.755434,-1.368992,-0.944469,0.126917,-0.454057,0.037539,0.0,17.0,54.0,164.0,26.0,0.0
533614,-0.7461800000000001,-1.358439,-0.926988,0.210209,-0.39163,-0.020705,0.0,17.0,54.0,164.0,26.0,0.0
533615,-0.727059,-1.350991,-0.908121,0.13996199999999998,-0.282016,-0.038136,0.0,17.0,54.0,164.0,26.0,0.0
533616,-0.70457,-1.344776,-0.8918440000000001,0.14571199999999998,-0.241946,-0.018199,0.0,17.0,54.0,164.0,26.0,0.0
533617,-0.68729,-1.33856,-0.8836129999999999,0.173039,-0.209681,0.052103,0.0,17.0,54.0,164.0,26.0,0.0
533618,-0.667592,-1.329477,-0.876022,0.272279,-0.044296,0.416066,0.0,17.0,54.0,164.0,26.0,0.0
533619,-0.626891,-1.318013,-0.8520610000000001,0.141251,0.158993,0.42213,0.0,17.0,54.0,164.0,26.0,0.0
533620,-0.578864,-1.306817,-0.81102,0.028637,0.444553,0.34722600000000003,0.0,17.0,54.0,164.0,26.0,0.0
533621,-0.516629,-1.2960120000000002,-0.7422310000000001,-0.077567,0.818125,0.105033,0.0,17.0,54.0,164.0,26.0,0.0
533622,-0.4507600000000001,-1.281392,-0.6627689999999999,-0.079792,0.782309,-0.036614,0.0,17.0,54.0,164.0,26.0,0.0
533623,-0.394971,-1.259691,-0.598917,-0.043654000000000005,0.850067,-0.058678,0.0,17.0,54.0,164.0,26.0,0.0
533624,-0.335481,-1.2423540000000002,-0.543617,-0.315313,0.803942,-0.244489,0.0,17.0,54.0,164.0,26.0,0.0
533625,-0.285669,-1.232697,-0.495235,-0.16133599999999998,0.481418,-0.16872,0.0,17.0,54.0,164.0,26.0,0.0
533626,-0.262743,-1.222402,-0.468232,-0.060471,0.282597,-0.151927,0.0,17.0,54.0,164.0,26.0,0.0
533627,-0.258517,-1.20634,-0.459376,-0.056049,0.285851,0.012517,0.0,17.0,54.0,164.0,26.0,0.0
533628,-0.26160300000000003,-1.191764,-0.461297,-0.100591,0.206765,0.035973000000000005,0.0,17.0,54.0,164.0,26.0,0.0
533629,-0.267897,-1.182163,-0.468501,-0.082635,0.113986,0.097095,0.0,17.0,54.0,164.0,26.0,0.0
533630,-0.278768,-1.179127,-0.479983,-0.083298,-0.23186,0.368473,0.0,17.0,54.0,164.0,26.0,0.0
533631,-0.300639,-1.182173,-0.497874,-0.074133,-0.277406,0.35375300000000004,0.0,17.0,54.0,164.0,26.0,0.0
533632,-0.334286,-1.186338,-0.524213,-0.003411,-0.307495,0.288772,0.0,17.0,54.0,164.0,26.0,0.0
533633,-0.372156,-1.191374,-0.554389,0.018179,-0.312485,0.177257,0.0,17.0,54.0,164.0,26.0,0.0
533634,-0.403108,-1.198046,-0.580542,0.094564,-0.346796,0.137903,0.0,17.0,54.0,164.0,26.0,0.0
533635,-0.418301,-1.206765,-0.595426,0.10873900000000003,-0.364538,0.1087,0.0,17.0,54.0,164.0,26.0,0.0
533636,-0.413478,-1.21689,-0.596264,0.060177,-0.370933,0.075155,0.0,17.0,54.0,164.0,26.0,0.0
533637,-0.395427,-1.230151,-0.586284,0.01233,-0.377399,0.045144,0.0,17.0,54.0,164.0,26.0,0.0
533638,-0.379458,-1.24598,-0.5740430000000001,-0.120374,-0.291734,0.07051,0.0,17.0,54.0,164.0,26.0,0.0
533639,-0.377489,-1.26296,-0.57184,-0.049483,-0.263218,0.065979,0.0,17.0,54.0,164.0,26.0,0.0
533640,-0.384131,-1.282202,-0.580231,-0.01343,-0.253887,0.043953,0.0,17.0,54.0,164.0,26.0,0.0
533641,-0.38882,-1.303138,-0.59107,-0.084767,-0.148231,-0.022022,0.0,17.0,54.0,164.0,26.0,0.0
533642,-0.392635,-1.324093,-0.605546,-0.132574,-0.106884,-0.047646,0.0,17.0,54.0,164.0,26.0,0.0
533643,-0.398203,-1.340671,-0.619883,-0.07736900000000001,-0.1256,-0.082214,0.0,17.0,54.0,164.0,26.0,0.0
533644,-0.405327,-1.35125,-0.630836,0.053803,-0.245054,-0.105204,0.0,17.0,54.0,164.0,26.0,0.0
533645,-0.411534,-1.357731,-0.635008,0.06880800000000001,-0.250886,-0.12935,0.0,17.0,54.0,164.0,26.0,0.0
533646,-0.415908,-1.362341,-0.63488,0.01722,-0.157078,-0.127971,0.0,17.0,54.0,164.0,26.0,0.0
533647,-0.412618,-1.361956,-0.633321,-0.068243,0.483688,0.186889,0.0,17.0,54.0,164.0,26.0,0.0
533648,-0.411266,-1.357995,-0.644867,-0.0070459999999999984,0.799275,0.525405,0.0,17.0,54.0,164.0,26.0,0.0
533649,-0.435876,-1.362358,-0.6835289999999999,0.094143,0.273354,0.484886,0.0,17.0,54.0,164.0,26.0,0.0
533650,-0.453616,-1.369544,-0.701032,0.095792,0.082271,0.136941,0.0,17.0,54.0,164.0,26.0,0.0
533651,-0.4324810000000001,-1.370306,-0.6762670000000001,-0.047818,0.293957,-0.142184,0.0,17.0,54.0,164.0,26.0,0.0
533652,-0.392006,-1.364247,-0.638727,0.04942,1.319794,-0.315264,0.0,17.0,54.0,164.0,26.0,0.0
533653,-0.364907,-1.34837,-0.6198239999999999,0.209643,0.892265,-0.017988,0.0,17.0,54.0,164.0,26.0,0.0
533654,-0.347847,-1.335927,-0.609067,0.172833,0.067906,0.053678,0.0,17.0,54.0,164.0,26.0,0.0
533655,-0.337949,-1.3267799999999998,-0.5990479999999999,0.216838,-0.280846,0.133911,0.0,17.0,54.0,164.0,26.0,0.0
533656,-0.322637,-1.3271309999999998,-0.580449,0.186406,-0.276307,0.180855,0.0,17.0,54.0,164.0,26.0,0.0
533657,-0.311979,-1.3404,-0.56238,0.015178,0.08037899999999999,0.086358,0.0,17.0,54.0,164.0,26.0,0.0
533658,-0.314734,-1.356942,-0.557018,-0.06304,0.274046,-0.029657,0.0,17.0,54.0,164.0,26.0,0.0
533659,-0.319385,-1.368852,-0.56274,-0.013744,0.065304,0.030412,0.0,17.0,54.0,164.0,26.0,0.0
533660,-0.321323,-1.378233,-0.575082,0.07774400000000001,-0.07191,0.148087,0.0,17.0,54.0,164.0,26.0,0.0
533661,-0.32965700000000003,-1.386908,-0.593959,0.119831,-0.129136,0.174182,0.0,17.0,54.0,164.0,26.0,0.0
533662,-0.344414,-1.394248,-0.615628,0.083349,-0.164967,0.065099,0.0,17.0,54.0,164.0,26.0,0.0
533663,-0.368319,-1.398707,-0.641675,-0.022833000000000003,-0.162414,0.012098,0.0,17.0,54.0,164.0,26.0,0.0
533664,-0.394382,-1.397795,-0.670158,-0.037313,-0.207347,0.008990999999999999,0.0,17.0,54.0,164.0,26.0,0.0
533665,-0.412776,-1.393505,-0.694539,0.014932,-0.308788,-0.015513999999999997,0.0,17.0,54.0,164.0,26.0,0.0
533666,-0.418552,-1.385772,-0.711034,0.132831,-0.382346,0.057017999999999985,0.0,17.0,54.0,164.0,26.0,0.0
533667,-0.416463,-1.374413,-0.718908,0.212812,-0.388692,0.110846,0.0,17.0,54.0,164.0,26.0,0.0
533668,-0.421325,-1.360395,-0.722531,0.253214,-0.34341,0.09096,0.0,17.0,54.0,164.0,26.0,0.0
533669,-0.432394,-1.346842,-0.722952,0.252274,-0.303778,0.109955,0.0,17.0,54.0,164.0,26.0,0.0
533670,-0.435562,-1.333682,-0.717796,0.13959000000000002,-0.268757,0.062163,0.0,17.0,54.0,164.0,26.0,0.0
533671,-0.439771,-1.320094,-0.71308,0.054041999999999986,-0.213169,0.024175,0.0,17.0,54.0,164.0,26.0,0.0
533672,-0.4465520000000001,-1.305175,-0.7135600000000001,0.08329099999999999,0.032263,0.083812,0.0,17.0,54.0,164.0,26.0,0.0
533673,-0.441258,-1.287813,-0.71065,0.08029299999999999,0.221963,0.157276,0.0,17.0,54.0,164.0,26.0,0.0
533674,-0.41705,-1.268416,-0.6942189999999999,0.028737,0.439184,0.220785,0.0,17.0,54.0,164.0,26.0,0.0
533675,-0.376779,-1.25092,-0.657726,-0.205,0.493307,0.159732,0.0,17.0,54.0,164.0,26.0,0.0
533676,-0.33368600000000004,-1.233755,-0.618745,-0.21226,0.324894,0.185136,0.0,17.0,54.0,164.0,26.0,0.0
533677,-0.303698,-1.215025,-0.591355,-0.129021,0.25795,0.155799,0.0,17.0,54.0,164.0,26.0,0.0
533678,-0.292281,-1.199077,-0.577358,-0.01044,0.566343,-0.096232,0.0,17.0,54.0,164.0,26.0,0.0
533679,-0.283495,-1.187163,-0.563024,-0.106441,0.885174,-0.142693,0.0,17.0,54.0,164.0,26.0,0.0
533680,-0.261313,-1.173696,-0.542103,-0.120696,0.575769,-0.134959,0.0,17.0,54.0,164.0,26.0,0.0
533681,-0.243344,-1.160281,-0.526402,-0.050875,0.137376,-0.08165499999999999,0.0,17.0,54.0,164.0,26.0,0.0
533682,-0.234554,-1.147922,-0.524558,-0.047796,-0.02669,0.092795,0.0,17.0,54.0,164.0,26.0,0.0
533683,-0.231152,-1.136916,-0.533334,-0.038224,-0.057457000000000015,0.119846,0.0,17.0,54.0,164.0,26.0,0.0
533684,-0.237567,-1.12875,-0.54792,0.041548,-0.071862,0.120868,0.0,17.0,54.0,164.0,26.0,0.0
533685,-0.251412,-1.126151,-0.564246,0.061031,-0.126671,0.099064,0.0,17.0,54.0,164.0,26.0,0.0
533686,-0.268939,-1.130439,-0.58106,0.051632,-0.17941,0.031667,0.0,17.0,54.0,164.0,26.0,0.0
533687,-0.29087,-1.141012,-0.6009760000000001,0.040227,-0.197874,0.015031999999999997,0.0,17.0,54.0,164.0,26.0,0.0
533688,-0.315289,-1.156006,-0.6239319999999999,0.048947,-0.217325,0.031128,0.0,17.0,54.0,164.0,26.0,0.0
533689,-0.339686,-1.173319,-0.646977,0.07674500000000001,-0.248319,0.021652,0.0,17.0,54.0,164.0,26.0,0.0
533690,-0.360723,-1.191511,-0.665942,0.053351,-0.312719,-0.005135,0.0,17.0,54.0,164.0,26.0,0.0
533691,-0.376979,-1.210638,-0.679867,0.039735,-0.388554,0.00988,0.0,17.0,54.0,164.0,26.0,0.0
533692,-0.391896,-1.23288,-0.690537,0.014775,-0.403729,0.002509,0.0,17.0,54.0,164.0,26.0,0.0
533693,-0.410403,-1.259106,-0.70052,-0.014913999999999997,-0.302479,-0.017244,0.0,17.0,54.0,164.0,26.0,0.0
533694,-0.427746,-1.284312,-0.707797,0.006854000000000001,-0.127929,-0.025914,0.0,17.0,54.0,164.0,26.0,0.0
533695,-0.439438,-1.306922,-0.712041,0.077515,0.008962999999999999,0.160435,0.0,17.0,54.0,164.0,26.0,0.0
533696,-0.442333,-1.325815,-0.7145600000000001,-0.031146,-0.022541,0.06715700000000001,0.0,17.0,54.0,164.0,26.0,0.0
533697,-0.454381,-1.34205,-0.725618,-0.098199,-0.100691,-0.036685,0.0,17.0,54.0,164.0,26.0,0.0
533698,-0.460351,-1.353912,-0.733827,-0.123669,-0.197749,-0.087198,0.0,17.0,54.0,164.0,26.0,0.0
533699,-0.457927,-1.357616,-0.731633,0.114269,-0.344245,-0.128344,0.0,17.0,54.0,164.0,26.0,0.0
533700,-0.445509,-1.353189,-0.715627,0.14952100000000002,-0.363135,-0.072406,0.0,17.0,54.0,164.0,26.0,0.0
533701,-0.430188,-1.34881,-0.696437,0.166449,-0.3809030000000001,-0.042096,0.0,17.0,54.0,164.0,26.0,0.0
533702,-0.4290350000000001,-1.354751,-0.688984,-0.265256,0.138008,0.149224,0.0,17.0,54.0,164.0,26.0,0.0
533703,-0.44218,-1.364594,-0.698894,-0.26682,0.135946,0.139335,0.0,17.0,54.0,164.0,26.0,0.0
533704,-0.450023,-1.362841,-0.708447,-0.09838,0.575485,0.517461,0.0,17.0,54.0,164.0,26.0,0.0
533705,-0.442171,-1.358517,-0.714805,-0.030726,0.26941,0.495478,0.0,17.0,54.0,164.0,26.0,0.0
533706,-0.440938,-1.358521,-0.720184,0.149701,0.364151,-0.052891,0.0,17.0,54.0,164.0,26.0,0.0
533707,-0.408937,-1.345868,-0.692616,0.283648,1.845853,-0.364477,0.0,17.0,54.0,164.0,26.0,0.0
533708,-0.381372,-1.315892,-0.675203,0.382332,0.8366030000000001,0.220044,0.0,17.0,54.0,164.0,26.0,0.0
533709,-0.380469,-1.301375,-0.67828,0.14582699999999998,-0.005642,0.025354,0.0,17.0,54.0,164.0,26.0,0.0
533710,-0.3809,-1.2907620000000002,-0.676466,0.024517,-0.41768,0.029941,0.0,17.0,54.0,164.0,26.0,0.0
533711,-0.363924,-1.291907,-0.654925,-0.098836,-0.242871,-0.031514,0.0,17.0,54.0,164.0,26.0,0.0
533712,-0.342012,-1.30377,-0.628097,0.00593,0.312738,-0.003097,0.0,17.0,54.0,164.0,26.0,0.0
533713,-0.312029,-1.317396,-0.603341,0.07258200000000001,0.297895,0.074162,0.0,17.0,54.0,164.0,26.0,0.0
533714,-0.290707,-1.331139,-0.587711,0.105925,0.051347,0.061180999999999985,0.0,17.0,54.0,164.0,26.0,0.0
533715,-0.285702,-1.344281,-0.586484,0.148301,-0.052870000000000014,0.08822100000000001,0.0,17.0,54.0,164.0,26.0,0.0
533716,-0.293268,-1.358094,-0.596655,0.154379,-0.113954,0.087465,0.0,17.0,54.0,164.0,26.0,0.0
533717,-0.312146,-1.37094,-0.617658,0.115763,-0.12805999999999998,0.06536900000000001,0.0,17.0,54.0,164.0,26.0,0.0
533718,-0.342873,-1.380261,-0.64903,0.026942,-0.117844,0.005448,0.0,17.0,54.0,164.0,26.0,0.0
533719,-0.38436,-1.384896,-0.689307,0.03949,-0.093412,-0.069957,0.0,17.0,54.0,164.0,26.0,0.0
533720,-0.418223,-1.385748,-0.726626,0.072469,-0.243212,-0.069855,0.0,17.0,54.0,164.0,26.0,0.0
533721,-0.437001,-1.38361,-0.7539680000000001,0.17516500000000002,-0.35004,-0.025562,0.0,17.0,54.0,164.0,26.0,0.0
533722,-0.441947,-1.379033,-0.770021,0.184207,-0.387874,0.032249,0.0,17.0,54.0,164.0,26.0,0.0
533723,-0.448742,-1.3716780000000002,-0.784028,0.231185,-0.353578,-0.026735,0.0,17.0,54.0,164.0,26.0,0.0
533724,-0.466393,-1.362911,-0.7975300000000001,0.257968,-0.30397,0.004736,0.0,17.0,54.0,164.0,26.0,0.0
533725,-0.481428,-1.355304,-0.8034720000000001,0.226164,-0.29256,0.059778,0.0,17.0,54.0,164.0,26.0,0.0
533726,-0.490659,-1.349667,-0.801601,0.165652,-0.325168,0.068959,0.0,17.0,54.0,164.0,26.0,0.0
533727,-0.499546,-1.345091,-0.7995869999999999,0.143946,-0.297375,0.040547,0.0,17.0,54.0,164.0,26.0,0.0
533728,-0.513733,-1.33855,-0.803724,0.087277,-0.096702,0.121107,0.0,17.0,54.0,164.0,26.0,0.0
533729,-0.521679,-1.328135,-0.807156,0.004722,0.173311,0.235073,0.0,17.0,54.0,164.0,26.0,0.0
533730,-0.513781,-1.314582,-0.8004020000000001,-0.151605,0.297918,0.227049,0.0,17.0,54.0,164.0,26.0,0.0
533731,-0.486105,-1.299784,-0.772213,0.059318,0.474,0.29979,0.0,17.0,54.0,164.0,26.0,0.0
533732,-0.428563,-1.285031,-0.710285,0.107058,0.472744,0.257985,0.0,17.0,54.0,164.0,26.0,0.0
533733,-0.371884,-1.26869,-0.640914,0.089773,0.5048520000000001,0.049593,0.0,17.0,54.0,164.0,26.0,0.0
533734,-0.327642,-1.244269,-0.5873229999999999,-0.320117,0.749844,-0.104954,0.0,17.0,54.0,164.0,26.0,0.0
533735,-0.289408,-1.217782,-0.545299,-0.395872,0.787724,-0.088786,0.0,17.0,54.0,164.0,26.0,0.0
533736,-0.26210500000000003,-1.196426,-0.515279,-0.240039,0.664233,-0.068587,0.0,17.0,54.0,164.0,26.0,0.0
533737,-0.243053,-1.18079,-0.49524,0.034097,0.24397800000000006,-0.117401,0.0,17.0,54.0,164.0,26.0,0.0
533738,-0.23784,-1.167089,-0.486513,0.082329,0.122747,-0.035114,0.0,17.0,54.0,164.0,26.0,0.0
533739,-0.247378,-1.156932,-0.4895140000000001,0.07182999999999999,0.07496599999999999,-0.019287,0.0,17.0,54.0,164.0,26.0,0.0
533740,-0.269149,-1.151794,-0.502062,0.038377,-0.087033,0.086477,0.0,17.0,54.0,164.0,26.0,0.0
533741,-0.302805,-1.152972,-0.522807,0.018523,-0.183444,0.173765,0.0,17.0,54.0,164.0,26.0,0.0
533742,-0.346587,-1.158817,-0.549086,0.000567,-0.232004,0.209361,0.0,17.0,54.0,164.0,26.0,0.0
533743,-0.393845,-1.168455,-0.577569,-0.005361,-0.292812,0.181861,0.0,17.0,54.0,164.0,26.0,0.0
533744,-0.437074,-1.182492,-0.603923,-0.01019,-0.292603,0.14383800000000002,0.0,17.0,54.0,164.0,26.0,0.0
533745,-0.469037,-1.198912,-0.622689,-0.002327,-0.303715,0.11667,0.0,17.0,54.0,164.0,26.0,0.0
533746,-0.4864770000000001,-1.215347,-0.6298050000000001,0.007823,-0.331289,0.079442,0.0,17.0,54.0,164.0,26.0,0.0
533747,-0.489944,-1.231264,-0.626571,-0.005264,-0.352273,0.07043200000000001,0.0,17.0,54.0,164.0,26.0,0.0
533748,-0.48476,-1.246725,-0.617344,-0.015158,-0.349192,0.060839,0.0,17.0,54.0,164.0,26.0,0.0
533749,-0.482738,-1.264799,-0.609432,0.022698,-0.301676,0.124074,0.0,17.0,54.0,164.0,26.0,0.0
533750,-0.488259,-1.291154,-0.6091439999999999,-0.040249,-0.300647,0.199723,0.0,17.0,54.0,164.0,26.0,0.0
533751,-0.498983,-1.321283,-0.623506,-0.12756199999999998,-0.07257899999999999,0.150555,0.0,17.0,54.0,164.0,26.0,0.0
533752,-0.510703,-1.345207,-0.644386,-0.138546,-0.007499,0.168986,0.0,17.0,54.0,164.0,26.0,0.0
533753,-0.516469,-1.360456,-0.665324,-0.170853,-0.062295,0.104898,0.0,17.0,54.0,164.0,26.0,0.0
533754,-0.527432,-1.371335,-0.691348,-0.12776600000000002,-0.07485399999999999,-0.024633,0.0,17.0,54.0,164.0,26.0,0.0
533755,-0.529241,-1.377477,-0.705113,0.055018,-0.211291,-0.21164,0.0,17.0,54.0,164.0,26.0,0.0
533756,-0.503837,-1.37772,-0.692094,0.185547,-0.286427,-0.204647,0.0,17.0,54.0,164.0,26.0,0.0
533757,-0.463136,-1.373984,-0.661193,0.194781,-0.28265100000000004,-0.178451,0.0,17.0,54.0,164.0,26.0,0.0
533758,-0.428245,-1.372157,-0.634696,-0.07505,0.108058,0.058253,0.0,17.0,54.0,164.0,26.0,0.0
533759,-0.426969,-1.369707,-0.6351479999999999,-0.161871,0.547906,0.23881,0.0,17.0,54.0,164.0,26.0,0.0
533760,-0.455872,-1.36125,-0.665542,0.145334,0.5733729999999999,0.359547,0.0,17.0,54.0,164.0,26.0,0.0
533761,-0.469999,-1.360454,-0.683236,0.30449,0.076179,0.308086,0.0,17.0,54.0,164.0,26.0,0.0
533762,-0.454203,-1.362922,-0.662945,0.305728,0.129698,0.166214,0.0,17.0,54.0,164.0,26.0,0.0
533763,-0.402528,-1.361762,-0.6118520000000001,0.033487,0.755121,-0.01151,0.0,17.0,54.0,164.0,26.0,0.0
533764,-0.37034,-1.350191,-0.584807,-0.199641,1.811421,-0.145899,0.0,17.0,54.0,164.0,26.0,0.0
533765,-0.363757,-1.333681,-0.583074,-0.05345,0.720928,-0.050919,0.0,17.0,54.0,164.0,26.0,0.0
533766,-0.34581300000000004,-1.317423,-0.570287,0.004706,-0.012949,0.182698,0.0,17.0,54.0,164.0,26.0,0.0
533767,-0.318214,-1.314293,-0.548229,-0.0015279999999999998,-0.464887,0.178293,0.0,17.0,54.0,164.0,26.0,0.0
533768,-0.286023,-1.327758,-0.517988,0.033977,-0.522781,0.145975,0.0,17.0,54.0,164.0,26.0,0.0
533769,-0.259793,-1.352299,-0.493045,0.088412,-0.17937999999999998,0.224761,0.0,17.0,54.0,164.0,26.0,0.0
533770,-0.247327,-1.379674,-0.486244,0.018565,0.113316,0.153416,0.0,17.0,54.0,164.0,26.0,0.0
533771,-0.24522,-1.405088,-0.493684,0.042455,0.109676,0.083048,0.0,17.0,54.0,164.0,26.0,0.0
533772,-0.249238,-1.426667,-0.511835,0.157193,0.026589,0.088409,0.0,17.0,54.0,164.0,26.0,0.0
533773,-0.269205,-1.442544,-0.5450010000000001,0.169255,-0.126781,-0.00093,0.0,17.0,54.0,164.0,26.0,0.0
533774,-0.304613,-1.450797,-0.591495,0.133194,-0.195354,-0.066924,0.0,17.0,54.0,164.0,26.0,0.0
533775,-0.350452,-1.453575,-0.6458430000000001,0.10877,-0.216007,-0.112006,0.0,17.0,54.0,164.0,26.0,0.0
533776,-0.400239,-1.452221,-0.700785,0.035625,-0.147168,-0.20621,0.0,17.0,54.0,164.0,26.0,0.0
533777,-0.428934,-1.442861,-0.735164,0.084373,-0.197165,-0.108737,0.0,17.0,54.0,164.0,26.0,0.0
533778,-0.433237,-1.426999,-0.747857,0.140435,-0.230661,-0.067832,0.0,17.0,54.0,164.0,26.0,0.0
533779,-0.440455,-1.411431,-0.758995,0.271835,-0.363213,-0.13641099999999998,0.0,17.0,54.0,164.0,26.0,0.0
533780,-0.4641810000000001,-1.397141,-0.7760239999999999,0.292531,-0.351125,-0.104475,0.0,17.0,54.0,164.0,26.0,0.0
533781,-0.4882,-1.383353,-0.7842939999999999,0.268142,-0.31125,0.024072,0.0,17.0,54.0,164.0,26.0,0.0
533782,-0.509624,-1.373123,-0.785137,0.109249,-0.377102,0.018461,0.0,17.0,54.0,164.0,26.0,0.0
533783,-0.5376489999999999,-1.36748,-0.789267,0.035457,-0.361864,0.009625,0.0,17.0,54.0,164.0,26.0,0.0
533784,-0.5590390000000001,-1.359697,-0.790245,-0.019134,-0.22919,0.073798,0.0,17.0,54.0,164.0,26.0,0.0
533785,-0.576658,-1.3520219999999998,-0.7928930000000001,-0.008440000000000001,0.0347,0.14014,0.0,17.0,54.0,164.0,26.0,0.0
533786,-0.588843,-1.340597,-0.7936350000000001,-0.001281,0.320599,0.250441,0.0,17.0,54.0,164.0,26.0,0.0
533787,-0.56552,-1.324488,-0.766015,-0.163475,0.485839,0.297003,0.0,17.0,54.0,164.0,26.0,0.0
533788,-0.506213,-1.3085639999999998,-0.701218,0.037026,0.427939,0.25316700000000003,0.0,17.0,54.0,164.0,26.0,0.0
533789,-0.421042,-1.293613,-0.606879,-0.016499,0.363075,-0.021998,0.0,17.0,54.0,164.0,26.0,0.0
533790,-0.344007,-1.271521,-0.523035,-0.136971,0.5353399999999999,-0.012944,0.0,17.0,54.0,164.0,26.0,0.0
533791,-0.288329,-1.243141,-0.464426,-0.340954,0.615136,-0.015483000000000004,0.0,17.0,54.0,164.0,26.0,0.0
533792,-0.266249,-1.21414,-0.433895,0.02114,0.403598,0.119127,0.0,17.0,54.0,164.0,26.0,0.0
533793,-0.250579,-1.193881,-0.416186,-0.13053800000000002,0.433065,-0.089136,0.0,17.0,54.0,164.0,26.0,0.0
533794,-0.228462,-1.1826139999999998,-0.403768,-0.208069,0.412948,-0.170743,0.0,17.0,54.0,164.0,26.0,0.0
533795,-0.208885,-1.172656,-0.39108,-0.102494,0.225784,-0.056927,0.0,17.0,54.0,164.0,26.0,0.0
533796,-0.205744,-1.162144,-0.390201,-0.089122,0.204184,-0.021043,0.0,17.0,54.0,164.0,26.0,0.0
533797,-0.21889,-1.154136,-0.404699,-0.026103,-0.001222,0.047089,0.0,17.0,54.0,164.0,26.0,0.0
533798,-0.241194,-1.152515,-0.427467,0.017738999999999998,-0.15393099999999998,0.133506,0.0,17.0,54.0,164.0,26.0,0.0
533799,-0.27189800000000003,-1.159243,-0.455908,0.019206,-0.311245,0.155752,0.0,17.0,54.0,164.0,26.0,0.0
533800,-0.311481,-1.1736879999999998,-0.489225,0.07536,-0.388232,0.12957,0.0,17.0,54.0,164.0,26.0,0.0
533801,-0.346147,-1.193238,-0.51972,0.19441,-0.402605,0.116529,0.0,17.0,54.0,164.0,26.0,0.0
533802,-0.368787,-1.21622,-0.541425,0.17741800000000002,-0.403339,0.102611,0.0,17.0,54.0,164.0,26.0,0.0
533803,-0.385368,-1.241201,-0.5541050000000001,0.129735,-0.40412,0.055078,0.0,17.0,54.0,164.0,26.0,0.0
533804,-0.399556,-1.266684,-0.560689,-0.102157,-0.294918,0.099267,0.0,17.0,54.0,164.0,26.0,0.0
533805,-0.401966,-1.289507,-0.563739,-0.161296,-0.25916,0.101001,0.0,17.0,54.0,164.0,26.0,0.0
533806,-0.410794,-1.311121,-0.576745,-0.16505799999999998,-0.237195,0.175405,0.0,17.0,54.0,164.0,26.0,0.0
533807,-0.440467,-1.332207,-0.60801,-0.138756,-0.05718300000000001,0.08636100000000001,0.0,17.0,54.0,164.0,26.0,0.0
533808,-0.488939,-1.348781,-0.656163,-0.12987,-0.063209,-0.027622000000000004,0.0,17.0,54.0,164.0,26.0,0.0
533809,-0.524259,-1.3559,-0.694154,-0.095771,-0.078485,-0.126157,0.0,17.0,54.0,164.0,26.0,0.0
533810,-0.532622,-1.355756,-0.711843,-0.006177,-0.408807,-0.127392,0.0,17.0,54.0,164.0,26.0,0.0
533811,-0.536712,-1.356292,-0.72431,0.016278,-0.43039,-0.116386,0.0,17.0,54.0,164.0,26.0,0.0
533812,-0.5485899999999999,-1.36109,-0.742168,0.005347,-0.355747,-0.00562,0.0,17.0,54.0,164.0,26.0,0.0
533813,-0.5684170000000001,-1.3634190000000002,-0.7694979999999999,-0.062569,0.707522,0.280389,0.0,17.0,54.0,164.0,26.0,0.0
533814,-0.588646,-1.357703,-0.80592,0.07073,0.8263299999999999,0.445175,0.0,17.0,54.0,164.0,26.0,0.0
533815,-0.6085430000000001,-1.358322,-0.8515370000000001,0.190346,0.711147,0.592148,0.0,17.0,54.0,164.0,26.0,0.0
533816,-0.5972,-1.359607,-0.8493069999999999,0.323381,0.178056,0.012495,0.0,17.0,54.0,164.0,26.0,0.0
533817,-0.5433560000000001,-1.355728,-0.802319,0.205857,0.099576,0.067442,0.0,17.0,54.0,164.0,26.0,0.0
533818,-0.500274,-1.352665,-0.765809,-0.124531,1.130279,-0.141492,0.0,17.0,54.0,164.0,26.0,0.0
533819,-0.497489,-1.342766,-0.769897,-0.110077,1.609901,-0.195937,0.0,17.0,54.0,164.0,26.0,0.0
533820,-0.5087229999999999,-1.330715,-0.794241,0.136901,0.44961,0.056941999999999986,0.0,17.0,54.0,164.0,26.0,0.0
533821,-0.507063,-1.324689,-0.804634,0.289756,-0.282689,0.169226,0.0,17.0,54.0,164.0,26.0,0.0
533822,-0.488046,-1.331014,-0.7895439999999999,0.160172,-0.366669,0.108047,0.0,17.0,54.0,164.0,26.0,0.0
533823,-0.458611,-1.347585,-0.757112,0.068105,-0.305682,0.079956,0.0,17.0,54.0,164.0,26.0,0.0
533824,-0.43164,-1.366637,-0.728557,-0.035512,0.107255,0.107714,0.0,17.0,54.0,164.0,26.0,0.0
533825,-0.428076,-1.384473,-0.727761,0.009775,0.153508,0.109873,0.0,17.0,54.0,164.0,26.0,0.0
533826,-0.440336,-1.399026,-0.748409,0.048944,0.05889,0.101318,0.0,17.0,54.0,164.0,26.0,0.0
533827,-0.466234,-1.4116,-0.784632,0.13868699999999998,-0.120427,0.09761,0.0,17.0,54.0,164.0,26.0,0.0
533828,-0.506659,-1.421422,-0.831175,0.099985,-0.183246,0.016182,0.0,17.0,54.0,164.0,26.0,0.0
533829,-0.551779,-1.425792,-0.879181,0.077253,-0.188999,-0.013488,0.0,17.0,54.0,164.0,26.0,0.0
533830,-0.597773,-1.425632,-0.927685,0.031969,-0.149562,-0.078251,0.0,17.0,54.0,164.0,26.0,0.0
533831,-0.6349520000000001,-1.420508,-0.969652,0.082332,-0.148518,-0.068978,0.0,17.0,54.0,164.0,26.0,0.0
533832,-0.6446810000000001,-1.409982,-0.986592,0.215894,-0.170737,-0.04553,0.0,17.0,54.0,164.0,26.0,0.0
533833,-0.636998,-1.395787,-0.982524,0.317471,-0.241988,0.047222,0.0,17.0,54.0,164.0,26.0,0.0
533834,-0.62427,-1.379936,-0.964836,0.216714,-0.359969,0.033329000000000004,0.0,17.0,54.0,164.0,26.0,0.0
533835,-0.624731,-1.366112,-0.946941,0.182798,-0.433181,-0.009789,0.0,17.0,54.0,164.0,26.0,0.0
533836,-0.63016,-1.354956,-0.929221,0.20637,-0.414617,-0.025655,0.0,17.0,54.0,164.0,26.0,0.0
533837,-0.625525,-1.345666,-0.907585,0.238828,-0.371005,0.037147,0.0,17.0,54.0,164.0,26.0,0.0
533838,-0.616043,-1.337065,-0.8872049999999999,0.128834,-0.176239,0.140902,0.0,17.0,54.0,164.0,26.0,0.0
533839,-0.621145,-1.32861,-0.878318,-0.021809,0.07398400000000001,0.144046,0.0,17.0,54.0,164.0,26.0,0.0
533840,-0.6247050000000001,-1.315494,-0.869107,-0.06051,0.253452,0.117574,0.0,17.0,54.0,164.0,26.0,0.0
533841,-0.596371,-1.300597,-0.8381290000000001,-0.028155,0.4471100000000001,0.213322,0.0,17.0,54.0,164.0,26.0,0.0
533842,-0.532795,-1.288162,-0.770163,0.037622,0.548892,0.229088,0.0,17.0,54.0,164.0,26.0,0.0
533843,-0.455927,-1.274617,-0.6838350000000001,-0.076145,0.461525,-0.010334,0.0,17.0,54.0,164.0,26.0,0.0
533844,-0.390588,-1.250982,-0.614617,-0.16109500000000002,0.551728,0.113051,0.0,17.0,54.0,164.0,26.0,0.0
533845,-0.354619,-1.225385,-0.571447,-0.319918,0.393567,0.015726,0.0,17.0,54.0,164.0,26.0,0.0
533846,-0.344791,-1.202238,-0.550429,-0.030405,0.267866,0.012405,0.0,17.0,54.0,164.0,26.0,0.0
533847,-0.33065100000000003,-1.1865139999999998,-0.5336029999999999,-0.041664,0.425929,-0.087998,0.0,17.0,54.0,164.0,26.0,0.0
533848,-0.307554,-1.176702,-0.514649,-0.124561,0.462855,-0.174316,0.0,17.0,54.0,164.0,26.0,0.0
533849,-0.28851,-1.168379,-0.496055,-0.123981,0.218143,-0.092625,0.0,17.0,54.0,164.0,26.0,0.0
533850,-0.280789,-1.157929,-0.487965,-0.168445,0.147609,-0.061104,0.0,17.0,54.0,164.0,26.0,0.0
533851,-0.28830300000000003,-1.149777,-0.494604,-0.104121,-0.081939,0.106787,0.0,17.0,54.0,164.0,26.0,0.0
533852,-0.308931,-1.149553,-0.5101760000000001,0.068656,-0.217284,0.180398,0.0,17.0,54.0,164.0,26.0,0.0
533853,-0.33771100000000004,-1.157308,-0.530022,0.11198,-0.306441,0.16963499999999998,0.0,17.0,54.0,164.0,26.0,0.0
533854,-0.367314,-1.169432,-0.551134,0.135701,-0.356732,0.138919,0.0,17.0,54.0,164.0,26.0,0.0
533855,-0.387833,-1.183986,-0.5665789999999999,0.110986,-0.336518,0.080432,0.0,17.0,54.0,164.0,26.0,0.0
533856,-0.398497,-1.19876,-0.573724,0.037141,-0.328546,0.07224,0.0,17.0,54.0,164.0,26.0,0.0
533857,-0.406602,-1.214452,-0.576702,-0.017322999999999998,-0.366942,0.100983,0.0,17.0,54.0,164.0,26.0,0.0
533858,-0.41926,-1.233317,-0.582046,-0.06310299999999999,-0.307438,0.0988,0.0,17.0,54.0,164.0,26.0,0.0
533859,-0.435642,-1.255651,-0.595377,-0.08189600000000001,-0.235648,0.089197,0.0,17.0,54.0,164.0,26.0,0.0
533860,-0.45052,-1.280629,-0.6143489999999999,-0.128944,-0.121725,0.068839,0.0,17.0,54.0,164.0,26.0,0.0
533861,-0.4632810000000001,-1.30206,-0.632089,-0.096161,-0.07859400000000001,0.03519,0.0,17.0,54.0,164.0,26.0,0.0
533862,-0.462249,-1.312994,-0.641365,-0.069849,-0.14104,0.07109,0.0,17.0,54.0,164.0,26.0,0.0
533863,-0.451519,-1.320567,-0.651292,-0.057727,-0.184249,0.083965,0.0,17.0,54.0,164.0,26.0,0.0
533864,-0.445583,-1.328243,-0.661663,-0.02013,-0.27625500000000003,-0.031978,0.0,17.0,54.0,164.0,26.0,0.0
533865,-0.437924,-1.333007,-0.665033,0.015948,-0.289366,-0.096768,0.0,17.0,54.0,164.0,26.0,0.0
533866,-0.429368,-1.33553,-0.66564,0.053534000000000005,-0.276224,-0.09832,0.0,17.0,54.0,164.0,26.0,0.0
533867,-0.4367180000000001,-1.34065,-0.681557,0.01308,0.393524,0.212364,0.0,17.0,54.0,164.0,26.0,0.0
533868,-0.47294,-1.346007,-0.72569,0.009747,0.636121,0.266038,0.0,17.0,54.0,164.0,26.0,0.0
533869,-0.513864,-1.3462120000000002,-0.774263,-0.006778,0.745801,0.258858,0.0,17.0,54.0,164.0,26.0,0.0
533870,-0.530676,-1.350128,-0.801805,0.113658,0.21933200000000005,0.170825,0.0,17.0,54.0,164.0,26.0,0.0
533871,-0.5187,-1.3497940000000002,-0.795126,0.259226,0.230926,0.13103900000000002,0.0,17.0,54.0,164.0,26.0,0.0
533872,-0.492824,-1.348965,-0.76986,0.24363,0.7596109999999999,-0.009086,0.0,17.0,54.0,164.0,26.0,0.0
533873,-0.488211,-1.345131,-0.758473,0.151105,1.157465,-0.065852,0.0,17.0,54.0,164.0,26.0,0.0
533874,-0.496804,-1.335779,-0.760055,0.05830700000000001,0.623269,-0.119716,0.0,17.0,54.0,164.0,26.0,0.0
533875,-0.49679,-1.330012,-0.753498,0.033678,-0.084753,0.000753,0.0,17.0,54.0,164.0,26.0,0.0
533876,-0.48839,-1.332975,-0.735636,0.050963,-0.116598,0.015163,0.0,17.0,54.0,164.0,26.0,0.0
533877,-0.470604,-1.344866,-0.711885,0.125693,0.004403,0.120719,0.0,17.0,54.0,164.0,26.0,0.0
533878,-0.455968,-1.36137,-0.696967,0.043764,0.03926,0.146807,0.0,17.0,54.0,164.0,26.0,0.0
533879,-0.461027,-1.378761,-0.70136,0.039979,-0.036793,0.07368999999999999,0.0,17.0,54.0,164.0,26.0,0.0
533880,-0.480646,-1.394191,-0.721967,0.05888400000000001,-0.102045,0.047446,0.0,17.0,54.0,164.0,26.0,0.0
533881,-0.507566,-1.40635,-0.753812,0.119127,-0.155638,0.09366,0.0,17.0,54.0,164.0,26.0,0.0
533882,-0.54098,-1.415948,-0.791479,0.128655,-0.169279,0.050861,0.0,17.0,54.0,164.0,26.0,0.0
533883,-0.5732619999999999,-1.419022,-0.8262379999999999,0.088278,-0.153299,-0.035944,0.0,17.0,54.0,164.0,26.0,0.0
533884,-0.601292,-1.4171,-0.8540270000000001,0.06749,-0.181297,-0.13754,0.0,17.0,54.0,164.0,26.0,0.0
533885,-0.617762,-1.410685,-0.8708100000000001,0.08029299999999999,-0.240643,-0.108273,0.0,17.0,54.0,164.0,26.0,0.0
533886,-0.615454,-1.399124,-0.873408,0.150267,-0.330347,-0.110773,0.0,17.0,54.0,164.0,26.0,0.0
533887,-0.603876,-1.385093,-0.868136,0.202766,-0.378101,-0.077064,0.0,17.0,54.0,164.0,26.0,0.0
533888,-0.595845,-1.370625,-0.861168,0.240793,-0.414603,-0.107136,0.0,17.0,54.0,164.0,26.0,0.0
533889,-0.602226,-1.357522,-0.861326,0.33628,-0.39345,-0.037194,0.0,17.0,54.0,164.0,26.0,0.0
533890,-0.608675,-1.346368,-0.861419,0.337235,-0.32421,0.116928,0.0,17.0,54.0,164.0,26.0,0.0
533891,-0.6201,-1.338189,-0.863135,0.222665,-0.271958,0.095381,0.0,17.0,54.0,164.0,26.0,0.0
533892,-0.641447,-1.331268,-0.871343,0.135328,-0.177886,0.08139099999999999,0.0,17.0,54.0,164.0,26.0,0.0
533893,-0.648547,-1.320655,-0.8734799999999999,0.214899,0.04455,0.353125,0.0,17.0,54.0,164.0,26.0,0.0
533894,-0.617611,-1.308204,-0.852649,-0.46298,0.808404,0.19618,0.0,17.0,54.0,164.0,26.0,0.0
533895,-0.5703779999999999,-1.2913629999999998,-0.80779,-0.347891,0.848999,0.31167100000000003,0.0,17.0,54.0,164.0,26.0,0.0
533896,-0.507921,-1.271558,-0.7433930000000001,-0.325698,0.74912,0.312685,0.0,17.0,54.0,164.0,26.0,0.0
533897,-0.454217,-1.247448,-0.683802,-0.119013,0.483449,-0.04787,0.0,17.0,54.0,164.0,26.0,0.0
533898,-0.417372,-1.221793,-0.641523,0.104694,0.396574,0.018503,0.0,17.0,54.0,164.0,26.0,0.0
533899,-0.390059,-1.203678,-0.609214,0.044879,0.382461,-0.039162,0.0,17.0,54.0,164.0,26.0,0.0
533900,-0.362075,-1.192887,-0.582565,-0.078563,0.477468,-0.191572,0.0,17.0,54.0,164.0,26.0,0.0
533901,-0.338308,-1.183965,-0.560022,-0.099205,0.314369,-0.11096,0.0,17.0,54.0,164.0,26.0,0.0
533902,-0.330506,-1.175856,-0.551751,-0.096668,0.184708,-0.043378,0.0,17.0,54.0,164.0,26.0,0.0
533903,-0.331609,-1.167944,-0.5529569999999999,-0.115149,-0.07551000000000001,0.05944600000000001,0.0,17.0,54.0,164.0,26.0,0.0
533904,-0.339281,-1.162016,-0.5608810000000001,-0.06974,-0.107426,0.122537,0.0,17.0,54.0,164.0,26.0,0.0
533905,-0.354483,-1.161384,-0.574075,-0.01602,-0.139797,0.16816199999999998,0.0,17.0,54.0,164.0,26.0,0.0
533906,-0.377535,-1.167107,-0.591221,0.067424,-0.219423,0.144824,0.0,17.0,54.0,164.0,26.0,0.0
533907,-0.405089,-1.178541,-0.611604,0.051653,-0.202782,0.078167,0.0,17.0,54.0,164.0,26.0,0.0
533908,-0.429685,-1.192431,-0.6295149999999999,0.032257,-0.216349,0.022218,0.0,17.0,54.0,164.0,26.0,0.0
533909,-0.446084,-1.206474,-0.640728,0.090569,-0.337716,0.070146,0.0,17.0,54.0,164.0,26.0,0.0
533910,-0.453957,-1.219703,-0.644803,0.096648,-0.373964,0.08442999999999999,0.0,17.0,54.0,164.0,26.0,0.0
533911,-0.4623890000000001,-1.235307,-0.6482859999999999,0.05654600000000001,-0.382161,0.10851,0.0,17.0,54.0,164.0,26.0,0.0
533912,-0.478978,-1.2564229999999998,-0.65666,-0.005686,-0.277956,0.077181,0.0,17.0,54.0,164.0,26.0,0.0
533913,-0.498546,-1.282411,-0.6699890000000001,-0.034151999999999995,-0.216761,0.07425599999999999,0.0,17.0,54.0,164.0,26.0,0.0
533914,-0.509628,-1.306092,-0.6837949999999999,-0.108486,-0.009955,0.037633,0.0,17.0,54.0,164.0,26.0,0.0
533915,-0.513227,-1.322402,-0.692674,-0.11558,-0.109064,0.07292799999999999,0.0,17.0,54.0,164.0,26.0,0.0
533916,-0.512169,-1.330691,-0.698274,-0.105664,-0.137939,0.048436,0.0,17.0,54.0,164.0,26.0,0.0
533917,-0.512004,-1.334727,-0.7037640000000001,0.019913,-0.242086,-0.066705,0.0,17.0,54.0,164.0,26.0,0.0
533918,-0.5111720000000001,-1.338206,-0.708568,0.06925,-0.320027,-0.171627,0.0,17.0,54.0,164.0,26.0,0.0
533919,-0.5030560000000001,-1.340906,-0.704259,0.06254900000000001,-0.295118,-0.167453,0.0,17.0,54.0,164.0,26.0,0.0
533920,-0.497225,-1.342911,-0.699741,-0.016331000000000002,0.167043,0.020509,0.0,17.0,54.0,164.0,26.0,0.0
533921,-0.516592,-1.346731,-0.721433,-0.127505,0.777744,0.1972,0.0,17.0,54.0,164.0,26.0,0.0
533922,-0.5624359999999999,-1.34455,-0.768688,0.15507200000000002,0.500933,0.315715,0.0,17.0,54.0,164.0,26.0,0.0
533923,-0.583121,-1.342801,-0.7923319999999999,0.206617,0.061294000000000015,0.41321,0.0,17.0,54.0,164.0,26.0,0.0
533924,-0.584391,-1.348866,-0.7915399999999999,0.187695,0.035771,0.168695,0.0,17.0,54.0,164.0,26.0,0.0
533925,-0.569786,-1.354057,-0.767487,0.052218,0.125966,0.030685000000000007,0.0,17.0,54.0,164.0,26.0,0.0
533926,-0.549612,-1.359441,-0.73948,-0.073745,0.761953,-0.105044,0.0,17.0,54.0,164.0,26.0,0.0
533927,-0.544813,-1.358068,-0.73555,-0.014354,1.296345,-0.13611800000000002,0.0,17.0,54.0,164.0,26.0,0.0
533928,-0.537736,-1.349665,-0.731219,0.089308,0.270047,0.047665,0.0,17.0,54.0,164.0,26.0,0.0
533929,-0.516898,-1.342819,-0.711117,0.157825,-0.230992,0.143489,0.0,17.0,54.0,164.0,26.0,0.0
533930,-0.492379,-1.345316,-0.6818350000000001,0.143523,-0.497773,0.048077,0.0,17.0,54.0,164.0,26.0,0.0
533931,-0.469091,-1.3576290000000002,-0.6467109999999999,0.11289,-0.344202,-0.014694,0.0,17.0,54.0,164.0,26.0,0.0
533932,-0.462284,-1.375445,-0.626794,0.102418,0.17560599999999998,-0.063966,0.0,17.0,54.0,164.0,26.0,0.0
533933,-0.473386,-1.391122,-0.630462,0.098036,0.323212,-0.016941,0.0,17.0,54.0,164.0,26.0,0.0
533934,-0.495759,-1.40299,-0.654584,0.141315,-0.005332,0.103664,0.0,17.0,54.0,164.0,26.0,0.0
533935,-0.537522,-1.412979,-0.6968260000000001,0.208448,-0.118081,0.064652,0.0,17.0,54.0,164.0,26.0,0.0
533936,-0.5988939999999999,-1.421656,-0.752947,0.209711,-0.214561,-0.034397000000000004,0.0,17.0,54.0,164.0,26.0,0.0
533937,-0.6643600000000001,-1.426351,-0.808072,0.18996,-0.244469,-0.060749,0.0,17.0,54.0,164.0,26.0,0.0
533938,-0.7252649999999999,-1.428822,-0.8580610000000001,0.166551,-0.263635,-0.073882,0.0,17.0,54.0,164.0,26.0,0.0
533939,-0.783392,-1.430473,-0.907312,0.088366,-0.224073,-0.052412,0.0,17.0,54.0,164.0,26.0,0.0
533940,-0.841916,-1.430634,-0.957945,0.13058499999999998,-0.189321,-0.173222,0.0,17.0,54.0,164.0,26.0,0.0
533941,-0.890573,-1.428933,-1.000283,0.187672,-0.243052,-0.202792,0.0,17.0,54.0,164.0,26.0,0.0
533942,-0.92999,-1.426604,-1.031728,0.3711,-0.242049,-0.011126,0.0,17.0,54.0,164.0,26.0,0.0
533943,-0.97532,-1.426002,-1.065801,0.352798,-0.147571,0.057463,0.0,17.0,54.0,164.0,26.0,0.0
533944,-1.034389,-1.427145,-1.10702,0.157053,-0.068557,-0.030476,0.0,17.0,54.0,164.0,26.0,0.0
533945,-1.1075469999999998,-1.426685,-1.157038,0.05900900000000001,-0.014048,-0.289079,0.0,17.0,54.0,164.0,26.0,0.0
533946,-1.155409,-1.422721,-1.189072,0.105407,-0.03787,-0.233962,0.0,17.0,54.0,164.0,26.0,0.0
533947,-1.161089,-1.4172129999999998,-1.190796,0.243413,-0.058115,-0.060166,0.0,17.0,54.0,164.0,26.0,0.0
533948,-1.129799,-1.412659,-1.159046,-0.161139,0.498363,0.376106,0.0,17.0,54.0,164.0,26.0,0.0
533949,-1.094774,-1.4107040000000002,-1.114391,-0.234756,0.56543,0.293084,0.0,17.0,54.0,164.0,26.0,0.0
533950,-1.004205,-1.403282,-1.013758,-0.30693000000000004,0.631079,0.091862,0.0,17.0,54.0,164.0,26.0,0.0
533951,-0.882501,-1.3873799999999998,-0.890165,0.00985,0.52303,0.197325,0.0,17.0,54.0,164.0,26.0,0.0
533952,-0.782142,-1.369607,-0.790441,-0.009455,0.6429729999999999,0.12806199999999998,0.0,17.0,54.0,164.0,26.0,0.0
533953,-0.701084,-1.348567,-0.708549,-0.077689,0.747812,0.026623,0.0,17.0,54.0,164.0,26.0,0.0
533954,-0.623314,-1.32518,-0.6330060000000001,0.042074,0.464033,0.063307,0.0,17.0,54.0,164.0,26.0,0.0
533955,-0.559951,-1.304021,-0.56753,0.114257,0.188969,0.105705,0.0,17.0,54.0,164.0,26.0,0.0
533956,-0.530108,-1.285962,-0.520897,0.11624,0.14011500000000002,0.066303,0.0,17.0,54.0,164.0,26.0,0.0
533957,-0.523429,-1.27165,-0.48984,0.135721,0.136346,0.02266,0.0,17.0,54.0,164.0,26.0,0.0
533958,-0.531415,-1.258757,-0.4684930000000001,0.118763,0.020275,0.04732,0.0,17.0,54.0,164.0,26.0,0.0
533959,-0.554425,-1.248503,-0.4582810000000001,0.156353,-0.196452,0.105375,0.0,17.0,54.0,164.0,26.0,0.0
533960,-0.583022,-1.24227,-0.453538,0.152298,-0.274674,0.126028,0.0,17.0,54.0,164.0,26.0,0.0
533961,-0.61342,-1.2416459999999998,-0.451859,0.147345,-0.327512,0.119309,0.0,17.0,54.0,164.0,26.0,0.0
533962,-0.6451640000000001,-1.24602,-0.4522140000000001,0.120738,-0.446486,0.061727,0.0,17.0,54.0,164.0,26.0,0.0
533963,-0.679321,-1.253466,-0.455002,0.113694,-0.446929,0.048399,0.0,17.0,54.0,164.0,26.0,0.0
533964,-0.7093109999999999,-1.26275,-0.454597,0.148838,-0.41623,0.02875,0.0,17.0,54.0,164.0,26.0,0.0
533965,-0.731801,-1.272778,-0.449505,0.13833399999999998,-0.237613,0.08332300000000001,0.0,17.0,54.0,164.0,26.0,0.0
533966,-0.752692,-1.2832,-0.447961,0.033339999999999995,-0.091985,0.159418,0.0,17.0,54.0,164.0,26.0,0.0
533967,-0.770878,-1.288133,-0.447093,-0.12578699999999998,0.383037,0.07859400000000001,0.0,17.0,54.0,164.0,26.0,0.0
533968,-0.793161,-1.291816,-0.450693,-0.113416,0.380613,-0.371276,0.0,17.0,54.0,164.0,26.0,0.0
533969,-0.802679,-1.291248,-0.442295,0.133221,0.207063,-0.58658,0.0,17.0,54.0,164.0,26.0,0.0
533970,-0.7667579999999999,-1.2817,-0.393179,0.227661,0.07085599999999999,-0.251031,0.0,17.0,54.0,164.0,26.0,0.0
533971,-0.721485,-1.267713,-0.342858,0.182799,0.6023569999999999,0.026346,0.0,17.0,54.0,164.0,26.0,0.0
533972,-0.703782,-1.256632,-0.318759,0.166621,0.767237,0.084008,0.0,17.0,54.0,164.0,26.0,0.0
533973,-0.7273470000000001,-1.253238,-0.32777399999999995,0.284841,0.193371,0.049184,0.0,17.0,54.0,164.0,26.0,0.0
533974,-0.768124,-1.253755,-0.337884,0.429441,-0.233792,0.268049,0.0,17.0,54.0,164.0,26.0,0.0
533975,-0.8320069999999999,-1.260169,-0.355289,0.559758,-0.442285,0.459892,0.0,17.0,54.0,164.0,26.0,0.0
533976,-0.920536,-1.269915,-0.3881,0.630051,-0.246274,0.5618529999999999,0.0,17.0,54.0,164.0,26.0,0.0
533977,-1.01678,-1.28254,-0.434412,0.403456,0.082992,0.512789,0.0,17.0,54.0,164.0,26.0,0.0
533978,-1.126482,-1.298269,-0.498946,0.08968,0.323238,0.398481,0.0,17.0,54.0,164.0,26.0,0.0
533979,-1.226855,-1.314117,-0.561229,-0.13823,0.317323,0.225643,0.0,17.0,54.0,164.0,26.0,0.0
533980,-1.291,-1.327664,-0.601612,-0.265069,0.092125,0.044414,0.0,17.0,54.0,164.0,26.0,0.0
533981,-1.33724,-1.341689,-0.632074,0.009814,-0.082558,0.036657,0.0,17.0,54.0,164.0,26.0,0.0
533982,-1.379552,-1.355301,-0.65905,0.065804,-0.11571,0.020529,0.0,17.0,54.0,164.0,26.0,0.0
533983,-1.431101,-1.36727,-0.694127,0.126795,-0.139303,-0.007412,0.0,17.0,54.0,164.0,26.0,0.0
533984,-1.49391,-1.376772,-0.741223,0.327464,-0.126668,0.04061,0.0,17.0,54.0,164.0,26.0,0.0
533985,-1.566327,-1.383761,-0.8003359999999999,0.321167,-0.12799100000000002,0.026633,0.0,17.0,54.0,164.0,26.0,0.0
533986,-1.653798,-1.388142,-0.874669,0.29252399999999995,-0.026319,-0.001064,0.0,17.0,54.0,164.0,26.0,0.0
533987,-1.73855,-1.39001,-0.945712,0.283814,0.006532,-0.05945,0.0,17.0,54.0,164.0,26.0,0.0
533988,-1.802845,-1.390408,-0.998939,0.258767,0.000174,-0.05236,0.0,17.0,54.0,164.0,26.0,0.0
533989,-1.857927,-1.388731,-1.041677,0.271165,0.002078,-0.037671,0.0,17.0,54.0,164.0,26.0,0.0
533990,-1.911256,-1.384459,-1.079448,0.218022,0.013541999999999998,-0.083565,0.0,17.0,54.0,164.0,26.0,0.0
533991,-1.953618,-1.381723,-1.104405,0.105192,0.04573,-0.131382,0.0,17.0,54.0,164.0,26.0,0.0
533992,-1.981798,-1.375769,-1.115318,-0.050998,0.079047,-0.194387,0.0,17.0,54.0,164.0,26.0,0.0
533993,-1.990929,-1.367024,-1.110882,-0.084703,0.159407,-0.232568,0.0,17.0,54.0,164.0,26.0,0.0
533994,-1.970934,-1.358923,-1.081299,0.08552699999999999,0.236015,-0.185406,0.0,17.0,54.0,164.0,26.0,0.0
533995,-1.931927,-1.353058,-1.035883,0.273744,0.16380899999999998,-0.064598,0.0,17.0,54.0,164.0,26.0,0.0
533996,-1.897652,-1.349356,-0.997491,0.394471,0.17017000000000002,0.007053,0.0,17.0,54.0,164.0,26.0,0.0
533997,-1.865034,-1.348426,-0.962002,0.256873,0.344767,0.077559,0.0,17.0,54.0,164.0,26.0,0.0
533998,-1.830019,-1.351891,-0.919979,0.200554,0.304672,0.234596,0.0,17.0,54.0,164.0,26.0,0.0
533999,-1.7717630000000002,-1.358875,-0.8547299999999999,0.020056,0.077913,0.309261,0.0,17.0,54.0,164.0,26.0,0.0
534000,-1.67352,-1.363305,-0.7455470000000001,-0.09145,-0.14182,0.312008,0.0,17.0,54.0,164.0,26.0,0.0
534001,-1.5440040000000002,-1.36281,-0.603304,0.030287,-0.076929,0.14907,0.0,17.0,54.0,164.0,26.0,0.0
534002,-1.411575,-1.357842,-0.456911,0.140198,0.042334,0.102627,0.0,17.0,54.0,164.0,26.0,0.0
534003,-1.298323,-1.351372,-0.330904,0.298756,0.273107,0.040642000000000005,0.0,17.0,54.0,164.0,26.0,0.0
534004,-1.183977,-1.341253,-0.208619,0.374381,0.239776,-0.058155,0.0,17.0,54.0,164.0,26.0,0.0
534005,-1.082154,-1.32844,-0.096991,0.368914,0.07191900000000001,-0.002159,0.0,17.0,54.0,164.0,26.0,0.0
534006,-1.012686,-1.3145440000000002,-0.004777,0.32971,0.025085,0.039932,0.0,17.0,54.0,164.0,26.0,0.0
534007,-0.969553,-1.301426,0.07485800000000001,0.303805,0.013050999999999998,0.044418,0.0,17.0,54.0,164.0,26.0,0.0
534008,-0.934425,-1.289179,0.152327,0.273454,-0.104986,0.015289,0.0,17.0,54.0,164.0,26.0,0.0
534009,-0.911687,-1.278647,0.21982,0.207361,-0.139512,0.07888200000000001,0.0,17.0,54.0,164.0,26.0,0.0
534010,-0.910334,-1.270126,0.27215100000000003,0.209972,-0.092422,0.0438,0.0,17.0,54.0,164.0,26.0,0.0
534011,-0.913987,-1.262965,0.320043,0.203045,-0.020071,0.046385,0.0,17.0,54.0,164.0,26.0,0.0
534012,-0.917442,-1.259434,0.365289,0.1672,-0.060224,0.06510099999999999,0.0,17.0,54.0,164.0,26.0,0.0
534013,-0.923415,-1.260824,0.405718,0.116761,-0.16883399999999998,0.05859,0.0,17.0,54.0,164.0,26.0,0.0
534014,-0.931839,-1.265695,0.440958,0.06509,-0.178563,0.036003,0.0,17.0,54.0,164.0,26.0,0.0
534015,-0.937406,-1.272995,0.474117,0.055735,-0.155798,0.001129,0.0,17.0,54.0,164.0,26.0,0.0
