index,attitude.roll,attitude.pitch,attitude.yaw,userAcceleration.x,userAcceleration.y,userAcceleration.z,act,id,weight,height,age,gender
570864,-1.297036,1.211484,-2.510241,-0.124456,0.432416,-0.037873,0.0,18.0,78.0,164.0,28.0,0.0
570865,-1.317033,1.216291,-2.4859560000000003,-0.00209,0.403547,-0.140869,0.0,18.0,78.0,164.0,28.0,0.0
570866,-1.295196,1.225873,-2.4974540000000003,0.126029,0.4139100000000001,-0.204286,0.0,18.0,78.0,164.0,28.0,0.0
570867,-1.250383,1.240469,-2.529889,0.149204,0.447416,-0.188098,0.0,18.0,78.0,164.0,28.0,0.0
570868,-1.199818,1.256166,-2.568865,0.181637,0.538313,-0.133832,0.0,18.0,78.0,164.0,28.0,0.0
570869,-1.164591,1.269403,-2.592437,0.17763800000000002,0.499296,-0.077184,0.0,18.0,78.0,164.0,28.0,0.0
570870,-1.166939,1.277395,-2.578053,0.171344,0.420553,-0.054918,0.0,18.0,78.0,164.0,28.0,0.0
570871,-1.209316,1.278114,-2.521803,0.114697,0.060409,0.011748,0.0,18.0,78.0,164.0,28.0,0.0
570872,-1.272401,1.273004,-2.4462490000000003,0.149559,-0.183586,0.04762,0.0,18.0,78.0,164.0,28.0,0.0
570873,-1.322786,1.265628,-2.385925,0.12095999999999997,-0.298218,0.049154,0.0,18.0,78.0,164.0,28.0,0.0
570874,-1.338641,1.262131,-2.3628150000000003,0.085268,-0.196613,0.035437,0.0,18.0,78.0,164.0,28.0,0.0
570875,-1.321169,1.264541,-2.379728,0.130665,0.079003,-0.023194,0.0,18.0,78.0,164.0,28.0,0.0
570876,-1.283744,1.269204,-2.423532,0.176217,0.195343,-0.024164,0.0,18.0,78.0,164.0,28.0,0.0
570877,-1.254455,1.274558,-2.465854,0.33605300000000005,0.371587,0.094871,0.0,18.0,78.0,164.0,28.0,0.0
570878,-1.254261,1.281857,-2.480493,0.306261,0.318471,0.32721500000000003,0.0,18.0,78.0,164.0,28.0,0.0
570879,-1.274345,1.294556,-2.470005,0.158414,0.225439,0.348181,0.0,18.0,78.0,164.0,28.0,0.0
570880,-1.301222,1.314694,-2.443669,-0.150412,0.093804,0.277496,0.0,18.0,78.0,164.0,28.0,0.0
570881,-1.335391,1.337713,-2.405998,-0.126999,-0.067401,0.274221,0.0,18.0,78.0,164.0,28.0,0.0
570882,-1.374311,1.3561530000000002,-2.364977,-0.405495,-0.550841,0.07623200000000001,0.0,18.0,78.0,164.0,28.0,0.0
570883,-1.361432,1.366468,-2.37034,-0.4370979999999999,-1.068471,-0.35938200000000003,0.0,18.0,78.0,164.0,28.0,0.0
570884,-1.316796,1.37068,-2.411989,-0.07664,-0.953749,-0.330487,0.0,18.0,78.0,164.0,28.0,0.0
570885,-1.3078459999999998,1.373781,-2.429654,-0.169951,-0.5834159999999999,-0.281233,0.0,18.0,78.0,164.0,28.0,0.0
570886,-1.330279,1.374916,-2.417278,0.007109000000000002,0.052684,-0.175231,0.0,18.0,78.0,164.0,28.0,0.0
570887,-1.374861,1.369831,-2.381431,0.083993,0.15345799999999998,-0.110754,0.0,18.0,78.0,164.0,28.0,0.0
570888,-1.41097,1.356984,-2.343928,-0.175467,0.196788,-0.110811,0.0,18.0,78.0,164.0,28.0,0.0
570889,-1.410928,1.343009,-2.337541,-0.358294,0.08200199999999999,-0.045917,0.0,18.0,78.0,164.0,28.0,0.0
570890,-1.3904729999999998,1.333277,-2.35563,-0.364943,-0.12161199999999997,0.06743400000000001,0.0,18.0,78.0,164.0,28.0,0.0
570891,-1.388258,1.329712,-2.364142,-0.13555699999999998,-0.190709,0.281741,0.0,18.0,78.0,164.0,28.0,0.0
570892,-1.418791,1.330529,-2.348719,0.165805,-0.015786,0.42014,0.0,18.0,78.0,164.0,28.0,0.0
570893,-1.458693,1.330771,-2.330894,0.356626,0.344104,0.176708,0.0,18.0,78.0,164.0,28.0,0.0
570894,-1.47428,1.32709,-2.338316,0.372333,0.474296,0.042112,0.0,18.0,78.0,164.0,28.0,0.0
570895,-1.465358,1.322053,-2.36555,0.391241,0.6146689999999999,-0.079057,0.0,18.0,78.0,164.0,28.0,0.0
570896,-1.448693,1.315112,-2.394752,0.438799,1.173972,-0.184759,0.0,18.0,78.0,164.0,28.0,0.0
570897,-1.434203,1.304717,-2.416764,0.446737,1.249233,-0.050958,0.0,18.0,78.0,164.0,28.0,0.0
570898,-1.430034,1.293615,-2.4270810000000003,0.431983,1.2584,0.061324,0.0,18.0,78.0,164.0,28.0,0.0
570899,-1.422372,1.2870629999999998,-2.434317,0.225063,0.089732,0.101226,0.0,18.0,78.0,164.0,28.0,0.0
570900,-1.374322,1.287511,-2.472782,-0.421024,-0.541399,-0.190037,0.0,18.0,78.0,164.0,28.0,0.0
570901,-1.253548,1.283323,-2.556806,-1.068109,-0.79595,-0.486125,0.0,18.0,78.0,164.0,28.0,0.0
570902,-1.1629,1.285405,-2.613091,-0.739898,-1.385862,-0.502462,0.0,18.0,78.0,164.0,28.0,0.0
570903,-1.147471,1.293637,-2.620252,-0.232017,-1.386918,0.031282,0.0,18.0,78.0,164.0,28.0,0.0
570904,-1.201535,1.291907,-2.574006,0.060416,-0.918262,0.157078,0.0,18.0,78.0,164.0,28.0,0.0
570905,-1.276721,1.278518,-2.508752,0.280498,-0.169211,-0.150343,0.0,18.0,78.0,164.0,28.0,0.0
570906,-1.334666,1.258605,-2.45265,0.22047,0.819384,-0.185061,0.0,18.0,78.0,164.0,28.0,0.0
570907,-1.317626,1.240998,-2.459572,0.275996,0.906603,-0.16256900000000002,0.0,18.0,78.0,164.0,28.0,0.0
570908,-1.254149,1.229927,-2.511187,0.279819,0.814489,-0.140032,0.0,18.0,78.0,164.0,28.0,0.0
570909,-1.195739,1.227991,-2.558004,0.160427,0.522595,0.034598000000000004,0.0,18.0,78.0,164.0,28.0,0.0
570910,-1.155035,1.23986,-2.591457,0.129834,0.24317800000000006,0.176122,0.0,18.0,78.0,164.0,28.0,0.0
570911,-1.130431,1.2654040000000002,-2.614692,0.091003,0.078317,0.397417,0.0,18.0,78.0,164.0,28.0,0.0
570912,-1.111474,1.296349,-2.634442,0.026285000000000003,-0.271663,0.411467,0.0,18.0,78.0,164.0,28.0,0.0
570913,-1.089681,1.3225,-2.651324,-0.002845,-0.8763709999999999,0.598873,0.0,18.0,78.0,164.0,28.0,0.0
570914,-1.077505,1.339187,-2.65037,-0.417542,-1.392104,0.437057,0.0,18.0,78.0,164.0,28.0,0.0
570915,-1.040282,1.339772,-2.6673310000000003,-0.422218,-1.3919700000000002,0.444217,0.0,18.0,78.0,164.0,28.0,0.0
570916,-1.046091,1.331083,-2.656628,-0.001561,-0.334548,-0.312908,0.0,18.0,78.0,164.0,28.0,0.0
570917,-1.089172,1.324909,-2.622677,-0.046158,0.30706500000000003,-0.315184,0.0,18.0,78.0,164.0,28.0,0.0
570918,-1.116143,1.3175940000000002,-2.598851,0.050743,0.5294399999999999,-0.265012,0.0,18.0,78.0,164.0,28.0,0.0
570919,-1.139076,1.309519,-2.571826,0.093977,0.6044579999999999,-0.028103,0.0,18.0,78.0,164.0,28.0,0.0
570920,-1.165701,1.300452,-2.53403,-0.074067,0.465846,-0.04722,0.0,18.0,78.0,164.0,28.0,0.0
570921,-1.175604,1.290966,-2.510307,-0.224829,0.199841,0.016619,0.0,18.0,78.0,164.0,28.0,0.0
570922,-1.172787,1.283365,-2.504494,-0.218205,-0.09588,0.099419,0.0,18.0,78.0,164.0,28.0,0.0
570923,-1.176027,1.277635,-2.4998,-0.127607,-0.171785,0.173605,0.0,18.0,78.0,164.0,28.0,0.0
570924,-1.185916,1.275709,-2.4949790000000003,-0.028622,-0.099437,0.232978,0.0,18.0,78.0,164.0,28.0,0.0
570925,-1.192315,1.278336,-2.499721,0.144677,-0.016919,0.289572,0.0,18.0,78.0,164.0,28.0,0.0
570926,-1.188182,1.282129,-2.517275,0.184885,0.130896,0.211288,0.0,18.0,78.0,164.0,28.0,0.0
570927,-1.182,1.283693,-2.5366150000000003,0.176046,0.247795,0.156244,0.0,18.0,78.0,164.0,28.0,0.0
570928,-1.193939,1.283606,-2.537272,0.276461,0.568724,0.064592,0.0,18.0,78.0,164.0,28.0,0.0
570929,-1.224271,1.28304,-2.518106,0.370573,0.6813100000000001,-0.031058,0.0,18.0,78.0,164.0,28.0,0.0
570930,-1.257993,1.281097,-2.49296,0.380356,0.658067,-0.065738,0.0,18.0,78.0,164.0,28.0,0.0
570931,-1.28559,1.275773,-2.467396,0.087002,0.209694,0.074129,0.0,18.0,78.0,164.0,28.0,0.0
570932,-1.307548,1.267964,-2.435486,-0.179881,-0.717639,-0.050086,0.0,18.0,78.0,164.0,28.0,0.0
570933,-1.276348,1.259002,-2.4452130000000003,-0.355586,-1.180677,-0.345394,0.0,18.0,78.0,164.0,28.0,0.0
570934,-1.225252,1.250135,-2.485856,-0.452547,-1.582375,-0.294841,0.0,18.0,78.0,164.0,28.0,0.0
570935,-1.219356,1.242796,-2.497693,-0.158914,-0.667371,0.084392,0.0,18.0,78.0,164.0,28.0,0.0
570936,-1.267313,1.240236,-2.468684,0.072242,0.142073,0.066965,0.0,18.0,78.0,164.0,28.0,0.0
570937,-1.355966,1.241399,-2.39754,0.070434,0.51478,-0.027724,0.0,18.0,78.0,164.0,28.0,0.0
570938,-1.4099700000000002,1.24518,-2.349395,-0.045545,0.53713,-0.207855,0.0,18.0,78.0,164.0,28.0,0.0
570939,-1.392745,1.249641,-2.368839,-0.05285,0.497959,-0.288821,0.0,18.0,78.0,164.0,28.0,0.0
570940,-1.317892,1.252671,-2.444766,0.035949,0.46435,-0.223603,0.0,18.0,78.0,164.0,28.0,0.0
570941,-1.223884,1.252926,-2.535423,0.154067,0.531721,-0.16583499999999998,0.0,18.0,78.0,164.0,28.0,0.0
570942,-1.156045,1.253067,-2.594211,0.171258,0.564022,-0.177857,0.0,18.0,78.0,164.0,28.0,0.0
570943,-1.146592,1.25957,-2.594502,0.146353,0.380593,-0.103745,0.0,18.0,78.0,164.0,28.0,0.0
570944,-1.193223,1.273592,-2.542529,0.200523,0.097562,0.181323,0.0,18.0,78.0,164.0,28.0,0.0
570945,-1.289287,1.293487,-2.447965,0.304223,-0.199749,0.477799,0.0,18.0,78.0,164.0,28.0,0.0
570946,-1.39673,1.312452,-2.344431,0.268921,-0.249174,0.57296,0.0,18.0,78.0,164.0,28.0,0.0
570947,-1.443129,1.328187,-2.299665,0.034269,0.033901,0.296484,0.0,18.0,78.0,164.0,28.0,0.0
570948,-1.374258,1.339842,-2.365464,-0.039678,0.048445,0.133701,0.0,18.0,78.0,164.0,28.0,0.0
570949,-1.268016,1.347129,-2.465786,-0.118302,0.002389,0.134903,0.0,18.0,78.0,164.0,28.0,0.0
570950,-1.208597,1.3557709999999998,-2.519542,-0.6386229999999999,-0.8616209999999999,-0.241403,0.0,18.0,78.0,164.0,28.0,0.0
570951,-1.188678,1.361412,-2.536076,-0.347008,-0.616171,-0.095962,0.0,18.0,78.0,164.0,28.0,0.0
570952,-1.2378280000000002,1.364904,-2.488653,-0.117581,-0.089923,-0.106647,0.0,18.0,78.0,164.0,28.0,0.0
570953,-1.301309,1.364862,-2.417802,0.178788,0.032337,-0.251473,0.0,18.0,78.0,164.0,28.0,0.0
570954,-1.355248,1.359747,-2.353905,0.23767,0.105757,-0.223601,0.0,18.0,78.0,164.0,28.0,0.0
570955,-1.41133,1.3480370000000002,-2.291182,0.105123,0.180492,-0.163302,0.0,18.0,78.0,164.0,28.0,0.0
570956,-1.444766,1.334095,-2.256677,-0.047257,0.084986,-0.051246000000000014,0.0,18.0,78.0,164.0,28.0,0.0
570957,-1.431813,1.323208,-2.273814,-0.0873,0.058114,0.096402,0.0,18.0,78.0,164.0,28.0,0.0
570958,-1.390881,1.316612,-2.323969,-0.069453,0.141315,0.359417,0.0,18.0,78.0,164.0,28.0,0.0
570959,-1.368783,1.313483,-2.363004,-0.029442000000000006,0.280783,0.46663,0.0,18.0,78.0,164.0,28.0,0.0
570960,-1.381721,1.313746,-2.374139,0.019716,0.365337,0.418247,0.0,18.0,78.0,164.0,28.0,0.0
570961,-1.416925,1.314549,-2.363501,0.22421,0.604067,0.097635,0.0,18.0,78.0,164.0,28.0,0.0
570962,-1.446717,1.312151,-2.348302,0.368563,0.766466,-0.069636,0.0,18.0,78.0,164.0,28.0,0.0
570963,-1.43869,1.305862,-2.357342,0.457682,0.813071,-0.142773,0.0,18.0,78.0,164.0,28.0,0.0
570964,-1.393658,1.299464,-2.395963,0.349009,0.670141,-0.137224,0.0,18.0,78.0,164.0,28.0,0.0
570965,-1.353392,1.294071,-2.432666,0.272223,0.015178,0.231244,0.0,18.0,78.0,164.0,28.0,0.0
570966,-1.332682,1.291624,-2.442377,-0.107169,-0.525746,0.111837,0.0,18.0,78.0,164.0,28.0,0.0
570967,-1.247377,1.283323,-2.488836,-0.8032060000000001,-1.4311120000000002,-0.57524,0.0,18.0,78.0,164.0,28.0,0.0
570968,-1.189002,1.27661,-2.522722,-0.6382329999999999,-1.458397,-0.485933,0.0,18.0,78.0,164.0,28.0,0.0
570969,-1.197861,1.276645,-2.513871,-0.394216,-1.310987,-0.337241,0.0,18.0,78.0,164.0,28.0,0.0
570970,-1.246982,1.277278,-2.484054,0.184015,-0.297926,0.044385,0.0,18.0,78.0,164.0,28.0,0.0
570971,-1.304591,1.273067,-2.440637,0.054883,0.197781,-0.04504,0.0,18.0,78.0,164.0,28.0,0.0
570972,-1.311044,1.265082,-2.431983,0.07270700000000001,0.37833,-0.10773,0.0,18.0,78.0,164.0,28.0,0.0
570973,-1.250923,1.25429,-2.486465,-0.029536,0.660335,-0.165608,0.0,18.0,78.0,164.0,28.0,0.0
570974,-1.163337,1.243655,-2.567013,-0.086088,0.662663,-0.069734,0.0,18.0,78.0,164.0,28.0,0.0
570975,-1.097162,1.236675,-2.622251,-0.033415,0.699963,-0.012825,0.0,18.0,78.0,164.0,28.0,0.0
570976,-1.058249,1.238015,-2.645036,0.07852100000000001,0.508492,-0.041497000000000006,0.0,18.0,78.0,164.0,28.0,0.0
570977,-1.046889,1.252887,-2.640504,0.23785100000000006,0.235627,0.144663,0.0,18.0,78.0,164.0,28.0,0.0
570978,-1.0576020000000002,1.280621,-2.61923,0.293055,-0.032833999999999995,0.308481,0.0,18.0,78.0,164.0,28.0,0.0
570979,-1.068933,1.311269,-2.603282,0.30449,-0.230098,0.423933,0.0,18.0,78.0,164.0,28.0,0.0
570980,-1.063915,1.331603,-2.607469,0.211566,-0.218961,0.476499,0.0,18.0,78.0,164.0,28.0,0.0
570981,-1.019536,1.336602,-2.645896,0.118472,-0.303604,0.306927,0.0,18.0,78.0,164.0,28.0,0.0
570982,-0.96208,1.32851,-2.6882330000000003,-0.190181,-0.7415039999999999,0.217121,0.0,18.0,78.0,164.0,28.0,0.0
570983,-0.912448,1.319546,-2.717966,-0.684874,-1.141856,-0.260427,0.0,18.0,78.0,164.0,28.0,0.0
570984,-0.909008,1.319565,-2.729732,-0.271641,-0.549719,-0.094434,0.0,18.0,78.0,164.0,28.0,0.0
570985,-0.987555,1.324824,-2.672559,-0.161304,0.211661,-0.067415,0.0,18.0,78.0,164.0,28.0,0.0
570986,-1.045564,1.326075,-2.618773,0.070008,0.40859,-0.193206,0.0,18.0,78.0,164.0,28.0,0.0
570987,-1.073222,1.318314,-2.5882810000000003,0.17311400000000002,0.453189,-0.203607,0.0,18.0,78.0,164.0,28.0,0.0
570988,-1.0970209999999998,1.30522,-2.558403,0.047687,0.34392399999999995,-0.099482,0.0,18.0,78.0,164.0,28.0,0.0
570989,-1.112608,1.290247,-2.5344330000000004,-0.19914,0.134533,-0.054339,0.0,18.0,78.0,164.0,28.0,0.0
570990,-1.113126,1.276378,-2.528747,-0.281017,-0.084121,0.01484,0.0,18.0,78.0,164.0,28.0,0.0
570991,-1.106423,1.26711,-2.534308,-0.26932399999999995,-0.0222,0.181972,0.0,18.0,78.0,164.0,28.0,0.0
570992,-1.102258,1.264532,-2.541723,-0.218404,0.062338,0.316641,0.0,18.0,78.0,164.0,28.0,0.0
570993,-1.091341,1.266913,-2.55978,-0.191831,0.069508,0.331614,0.0,18.0,78.0,164.0,28.0,0.0
570994,-1.070548,1.270344,-2.590893,-0.046448,0.228991,0.118553,0.0,18.0,78.0,164.0,28.0,0.0
570995,-1.069203,1.2749620000000002,-2.607222,0.140165,0.425569,0.063954,0.0,18.0,78.0,164.0,28.0,0.0
570996,-1.10051,1.281097,-2.591482,0.272399,0.521562,0.119643,0.0,18.0,78.0,164.0,28.0,0.0
570997,-1.152943,1.288188,-2.548184,0.506671,0.634205,-0.011341,0.0,18.0,78.0,164.0,28.0,0.0
570998,-1.202066,1.29254,-2.499302,0.385794,0.5021399999999999,-0.090441,0.0,18.0,78.0,164.0,28.0,0.0
570999,-1.225102,1.291982,-2.4735970000000003,0.151755,0.174075,-0.015132,0.0,18.0,78.0,164.0,28.0,0.0
571000,-1.210904,1.288466,-2.474527,-0.12876500000000002,-0.453364,0.096536,0.0,18.0,78.0,164.0,28.0,0.0
571001,-1.144672,1.281014,-2.515934,-0.442751,-1.300269,-0.188842,0.0,18.0,78.0,164.0,28.0,0.0
571002,-1.070858,1.272281,-2.572643,-0.549708,-1.72933,-0.328979,0.0,18.0,78.0,164.0,28.0,0.0
571003,-1.074454,1.265264,-2.566433,-0.279777,-1.261584,-0.099042,0.0,18.0,78.0,164.0,28.0,0.0
571004,-1.138973,1.260414,-2.505913,-0.114185,-0.336708,-0.043444,0.0,18.0,78.0,164.0,28.0,0.0
571005,-1.251191,1.257728,-2.400011,-0.03086,0.268181,0.054401,0.0,18.0,78.0,164.0,28.0,0.0
571006,-1.349609,1.2585879999999998,-2.299684,-0.038962,0.498472,0.044373,0.0,18.0,78.0,164.0,28.0,0.0
571007,-1.3896700000000002,1.262375,-2.253161,-0.07092000000000001,0.540247,-0.073785,0.0,18.0,78.0,164.0,28.0,0.0
571008,-1.3543040000000002,1.268671,-2.277028,-0.051226,0.5462130000000001,-0.13665,0.0,18.0,78.0,164.0,28.0,0.0
571009,-1.261415,1.2736040000000002,-2.350527,0.077546,0.68187,-0.135547,0.0,18.0,78.0,164.0,28.0,0.0
571010,-1.169606,1.276853,-2.417909,0.188536,0.8582620000000001,-0.16555,0.0,18.0,78.0,164.0,28.0,0.0
571011,-1.120749,1.284192,-2.445285,0.228423,0.798977,-0.158725,0.0,18.0,78.0,164.0,28.0,0.0
571012,-1.120279,1.295934,-2.428465,0.165382,0.558562,-0.090429,0.0,18.0,78.0,164.0,28.0,0.0
571013,-1.159185,1.310107,-2.376341,0.089289,0.180537,-0.046667,0.0,18.0,78.0,164.0,28.0,0.0
571014,-1.216651,1.320446,-2.309752,0.069537,-0.13649,0.000977,0.0,18.0,78.0,164.0,28.0,0.0
571015,-1.259656,1.322496,-2.258801,0.19791,-0.248595,0.246022,0.0,18.0,78.0,164.0,28.0,0.0
571016,-1.278809,1.32005,-2.2308380000000003,0.251993,-0.247306,0.373359,0.0,18.0,78.0,164.0,28.0,0.0
571017,-1.242022,1.31967,-2.253904,0.096143,-0.390299,0.174039,0.0,18.0,78.0,164.0,28.0,0.0
571018,-1.169339,1.323593,-2.316818,-0.126817,-0.31876,0.173184,0.0,18.0,78.0,164.0,28.0,0.0
571019,-1.124794,1.334098,-2.361377,-0.375272,-0.099751,0.330985,0.0,18.0,78.0,164.0,28.0,0.0
571020,-1.110942,1.351588,-2.373768,-0.53776,-0.189015,0.344639,0.0,18.0,78.0,164.0,28.0,0.0
571021,-1.058634,1.364775,-2.419947,-0.471194,-0.707015,0.006519,0.0,18.0,78.0,164.0,28.0,0.0
571022,-1.021336,1.366488,-2.451811,-0.113068,-0.801255,-0.093797,0.0,18.0,78.0,164.0,28.0,0.0
571023,-0.997488,1.360025,-2.463875,-0.102151,-0.735189,-0.225156,0.0,18.0,78.0,164.0,28.0,0.0
571024,-0.96171,1.347808,-2.490778,0.05248,-0.217996,-0.442707,0.0,18.0,78.0,164.0,28.0,0.0
571025,-0.964805,1.332279,-2.483685,0.12876,0.072184,-0.310023,0.0,18.0,78.0,164.0,28.0,0.0
571026,-1.011038,1.319061,-2.436241,0.029977,0.314459,-0.141052,0.0,18.0,78.0,164.0,28.0,0.0
571027,-1.07712,1.309873,-2.373696,-0.000891,0.529125,-0.002918,0.0,18.0,78.0,164.0,28.0,0.0
571028,-1.146915,1.306113,-2.3105990000000003,-0.010607,0.6403770000000001,0.091537,0.0,18.0,78.0,164.0,28.0,0.0
571029,-1.200349,1.30666,-2.263024,-0.069995,0.577425,0.114407,0.0,18.0,78.0,164.0,28.0,0.0
571030,-1.222031,1.311099,-2.245926,-0.17336600000000002,0.433051,0.054345,0.0,18.0,78.0,164.0,28.0,0.0
571031,-1.218011,1.321252,-2.255092,-0.215993,0.304169,-0.03588,0.0,18.0,78.0,164.0,28.0,0.0
571032,-1.1978799999999998,1.336444,-2.284453,-0.218219,0.181878,-0.096971,0.0,18.0,78.0,164.0,28.0,0.0
571033,-1.153766,1.353918,-2.342984,-0.17030399999999998,0.168972,-0.085398,0.0,18.0,78.0,164.0,28.0,0.0
571034,-1.081964,1.371251,-2.430243,-0.14974,0.213342,-0.019508,0.0,18.0,78.0,164.0,28.0,0.0
571035,-0.993812,1.386351,-2.52904,-0.278476,0.286185,0.038275,0.0,18.0,78.0,164.0,28.0,0.0
571036,-0.8978389999999999,1.39834,-2.627121,-0.483284,0.304502,-0.011714,0.0,18.0,78.0,164.0,28.0,0.0
571037,-0.816951,1.408312,-2.702932,-0.603582,0.301968,-0.068378,0.0,18.0,78.0,164.0,28.0,0.0
571038,-0.7792979999999999,1.417629,-2.728463,-0.5987680000000001,0.273403,-0.074624,0.0,18.0,78.0,164.0,28.0,0.0
571039,-0.772062,1.425685,-2.713152,-0.534223,0.363284,-0.09331,0.0,18.0,78.0,164.0,28.0,0.0
571040,-0.773017,1.431019,-2.677366,-0.52832,0.447065,-0.147738,0.0,18.0,78.0,164.0,28.0,0.0
571041,-0.760027,1.436314,-2.647129,-0.372365,0.30251,-0.035754,0.0,18.0,78.0,164.0,28.0,0.0
571042,-0.789813,1.448766,-2.57545,-0.188955,-0.179556,0.288038,0.0,18.0,78.0,164.0,28.0,0.0
571043,-0.918262,1.471735,-2.414972,0.376171,-0.882451,0.964832,0.0,18.0,78.0,164.0,28.0,0.0
571044,-1.147883,1.4905540000000002,-2.163698,0.502135,-0.951307,0.831406,0.0,18.0,78.0,164.0,28.0,0.0
571045,-1.303845,1.472662,-1.986643,0.665569,-0.8665209999999999,0.647473,0.0,18.0,78.0,164.0,28.0,0.0
571046,-1.271043,1.418144,-1.990751,0.465541,-0.773271,0.163801,0.0,18.0,78.0,164.0,28.0,0.0
571047,-1.180981,1.352244,-2.0439130000000003,0.340618,-0.992538,-0.192823,0.0,18.0,78.0,164.0,28.0,0.0
571048,-1.166008,1.297179,-2.011192,-0.370216,-1.127075,-0.177495,0.0,18.0,78.0,164.0,28.0,0.0
571049,-1.161755,1.263435,-1.9692,-0.979557,-0.649389,0.134545,0.0,18.0,78.0,164.0,28.0,0.0
571050,-1.159132,1.248041,-1.948674,-0.651594,-0.170531,0.340409,0.0,18.0,78.0,164.0,28.0,0.0
571051,-1.139382,1.239671,-1.945912,-0.429274,0.187346,0.144697,0.0,18.0,78.0,164.0,28.0,0.0
571052,-1.095019,1.239348,-1.957416,-0.198933,0.5355840000000001,-0.043815,0.0,18.0,78.0,164.0,28.0,0.0
571053,-1.05941,1.25017,-1.944227,-0.155883,0.5861689999999999,-0.026101,0.0,18.0,78.0,164.0,28.0,0.0
571054,-1.066782,1.273117,-1.881739,-0.09716,0.440227,0.150535,0.0,18.0,78.0,164.0,28.0,0.0
571055,-1.118012,1.299359,-1.7710709999999998,0.014303,0.1567,0.351155,0.0,18.0,78.0,164.0,28.0,0.0
571056,-1.1746450000000002,1.320932,-1.650914,0.087871,0.107755,0.359352,0.0,18.0,78.0,164.0,28.0,0.0
571057,-1.175048,1.333557,-1.578091,0.155995,0.091375,0.332259,0.0,18.0,78.0,164.0,28.0,0.0
571058,-1.113023,1.337424,-1.561202,0.225583,0.348014,-0.011454,0.0,18.0,78.0,164.0,28.0,0.0
571059,-1.027552,1.339116,-1.573521,0.21959,0.456284,-0.038733,0.0,18.0,78.0,164.0,28.0,0.0
571060,-0.945985,1.345518,-1.5975549999999998,0.252229,0.534928,-0.051878,0.0,18.0,78.0,164.0,28.0,0.0
571061,-0.8774190000000001,1.356833,-1.621839,0.223418,0.282403,0.037838,0.0,18.0,78.0,164.0,28.0,0.0
571062,-0.8293159999999999,1.36473,-1.630973,0.136544,0.092445,-0.066938,0.0,18.0,78.0,164.0,28.0,0.0
571063,-0.772033,1.363204,-1.647057,-0.084896,-0.22223,-0.317878,0.0,18.0,78.0,164.0,28.0,0.0
571064,-0.7185819999999999,1.355632,-1.6625150000000002,-0.158549,-0.171923,-0.292689,0.0,18.0,78.0,164.0,28.0,0.0
571065,-0.716079,1.355092,-1.634239,-0.18839,0.014422999999999997,-0.14193,0.0,18.0,78.0,164.0,28.0,0.0
571066,-0.781243,1.365736,-1.543961,-0.219977,0.156814,-0.0,0.0,18.0,78.0,164.0,28.0,0.0
571067,-0.8528190000000001,1.375651,-1.457014,-0.28107600000000005,0.197786,0.100385,0.0,18.0,78.0,164.0,28.0,0.0
571068,-0.8276319999999999,1.3752950000000002,-1.471876,-0.275776,-0.261496,0.151332,0.0,18.0,78.0,164.0,28.0,0.0
571069,-0.703976,1.35836,-1.581715,-0.595787,-0.721653,0.14690599999999998,0.0,18.0,78.0,164.0,28.0,0.0
571070,-0.583808,1.327942,-1.676507,-0.412657,-0.467531,0.554006,0.0,18.0,78.0,164.0,28.0,0.0
571071,-0.531755,1.32959,-1.704457,-0.243819,-0.7075229999999999,0.771775,0.0,18.0,78.0,164.0,28.0,0.0
571072,-0.5469579999999999,1.372225,-1.667148,-0.33465700000000004,-0.586911,0.64718,0.0,18.0,78.0,164.0,28.0,0.0
571073,-0.596592,1.408406,-1.583591,-0.208378,0.035046,0.536996,0.0,18.0,78.0,164.0,28.0,0.0
571074,-0.705238,1.429393,-1.433167,-0.209528,0.520491,0.306686,0.0,18.0,78.0,164.0,28.0,0.0
571075,-0.971154,1.445783,-1.12163,-0.200328,0.422265,0.104382,0.0,18.0,78.0,164.0,28.0,0.0
571076,-1.325892,1.4485709999999998,-0.715543,0.081078,0.237657,0.15473199999999998,0.0,18.0,78.0,164.0,28.0,0.0
571077,-1.568294,1.43891,-0.422569,0.218704,0.183088,0.14948399999999998,0.0,18.0,78.0,164.0,28.0,0.0
571078,-1.649213,1.432709,-0.295617,0.377168,-0.002393,0.135278,0.0,18.0,78.0,164.0,28.0,0.0
571079,-1.644665,1.4332280000000002,-0.254864,0.299112,-0.013201,0.07199,0.0,18.0,78.0,164.0,28.0,0.0
571080,-1.605611,1.434408,-0.247587,0.244492,0.012274,0.055785,0.0,18.0,78.0,164.0,28.0,0.0
571081,-1.563636,1.432707,-0.248744,0.043742,0.203829,0.028329000000000007,0.0,18.0,78.0,164.0,28.0,0.0
571082,-1.5598040000000002,1.427221,-0.222516,-0.076959,0.278621,0.02356,0.0,18.0,78.0,164.0,28.0,0.0
571083,-1.610351,1.417869,-0.155504,-0.171868,0.240633,0.099416,0.0,18.0,78.0,164.0,28.0,0.0
571084,-1.692375,1.404933,-0.06843300000000001,-0.274328,0.142755,0.197434,0.0,18.0,78.0,164.0,28.0,0.0
571085,-1.765462,1.3928049999999998,0.007414,-0.28949600000000003,0.111154,0.138016,0.0,18.0,78.0,164.0,28.0,0.0
571086,-1.798841,1.38764,0.050338,-0.229207,0.199689,-0.000914,0.0,18.0,78.0,164.0,28.0,0.0
571087,-1.7862619999999998,1.390944,0.052911,-0.140509,0.341582,-0.122984,0.0,18.0,78.0,164.0,28.0,0.0
571088,-1.743567,1.400934,0.02582,-0.085391,0.341885,-0.179688,0.0,18.0,78.0,164.0,28.0,0.0
571089,-1.691945,1.41206,-0.01039,-0.09959,0.179673,-0.206475,0.0,18.0,78.0,164.0,28.0,0.0
571090,-1.6465189999999998,1.4203059999999998,-0.041151,-0.204866,0.023366,-0.21515,0.0,18.0,78.0,164.0,28.0,0.0
571091,-1.63796,1.426638,-0.040993,-0.281981,0.033161,-0.087534,0.0,18.0,78.0,164.0,28.0,0.0
571092,-1.677326,1.435302,0.004717,-0.32547600000000004,0.019598,-0.03134,0.0,18.0,78.0,164.0,28.0,0.0
571093,-1.71406,1.444508,0.054638,-0.432986,-0.059462,-0.058715,0.0,18.0,78.0,164.0,28.0,0.0
571094,-1.7207560000000002,1.448204,0.081466,-0.543744,-0.074033,-0.028545,0.0,18.0,78.0,164.0,28.0,0.0
571095,-1.718951,1.446274,0.101034,-0.478416,-0.308051,0.006211,0.0,18.0,78.0,164.0,28.0,0.0
571096,-1.7406150000000002,1.437981,0.141521,-0.232895,-0.4949520000000001,0.334441,0.0,18.0,78.0,164.0,28.0,0.0
571097,-1.791065,1.421742,0.211082,0.03683,-0.364237,0.546041,0.0,18.0,78.0,164.0,28.0,0.0
571098,-1.802641,1.40129,0.23884,0.16601300000000002,-0.278858,0.488562,0.0,18.0,78.0,164.0,28.0,0.0
571099,-1.746391,1.375571,0.196676,0.33905,0.007370999999999998,0.32026,0.0,18.0,78.0,164.0,28.0,0.0
571100,-1.655272,1.346776,0.122229,0.25796,0.059256,0.308255,0.0,18.0,78.0,164.0,28.0,0.0
571101,-1.565423,1.318317,0.061992,0.253768,-0.056194000000000015,0.276595,0.0,18.0,78.0,164.0,28.0,0.0
571102,-1.499189,1.28741,0.039992,0.079874,-0.336608,0.126891,0.0,18.0,78.0,164.0,28.0,0.0
571103,-1.4632889999999998,1.257509,0.050508,-0.397764,-0.6055590000000001,0.033936,0.0,18.0,78.0,164.0,28.0,0.0
571104,-1.4436209999999998,1.236133,0.063524,-0.427063,-0.573286,0.049605,0.0,18.0,78.0,164.0,28.0,0.0
571105,-1.435447,1.223331,0.065903,-0.355111,-0.4523390000000001,0.117722,0.0,18.0,78.0,164.0,28.0,0.0
571106,-1.414312,1.221977,0.051688,-0.117641,0.121051,0.173975,0.0,18.0,78.0,164.0,28.0,0.0
571107,-1.392444,1.232754,0.040548,-0.113172,0.226945,0.172845,0.0,18.0,78.0,164.0,28.0,0.0
571108,-1.389042,1.248116,0.056264,-0.11291099999999997,0.289087,0.155826,0.0,18.0,78.0,164.0,28.0,0.0
571109,-1.410917,1.26,0.109038,0.032833999999999995,0.186252,0.142127,0.0,18.0,78.0,164.0,28.0,0.0
571110,-1.436518,1.264869,0.17693299999999998,0.03767,0.15152000000000002,0.086871,0.0,18.0,78.0,164.0,28.0,0.0
571111,-1.427455,1.265391,0.216618,0.054072,0.119451,0.042705,0.0,18.0,78.0,164.0,28.0,0.0
571112,-1.3645,1.266598,0.204813,-0.030576,0.236161,-0.130408,0.0,18.0,78.0,164.0,28.0,0.0
571113,-1.26715,1.2707620000000002,0.157972,-0.003849,0.347294,-0.085236,0.0,18.0,78.0,164.0,28.0,0.0
571114,-1.178512,1.2759790000000002,0.11540999999999997,0.075035,0.471061,0.033956,0.0,18.0,78.0,164.0,28.0,0.0
571115,-1.128081,1.280371,0.106387,0.050861,0.5926739999999999,0.097366,0.0,18.0,78.0,164.0,28.0,0.0
571116,-1.1170870000000002,1.285815,0.131907,0.189838,0.548732,0.163023,0.0,18.0,78.0,164.0,28.0,0.0
571117,-1.123251,1.286528,0.177048,0.174748,0.515943,0.104985,0.0,18.0,78.0,164.0,28.0,0.0
571118,-1.122166,1.282928,0.217762,0.169992,0.474186,0.009437,0.0,18.0,78.0,164.0,28.0,0.0
571119,-1.11048,1.279279,0.247235,0.189828,0.375762,-0.080481,0.0,18.0,78.0,164.0,28.0,0.0
571120,-1.09899,1.280261,0.271348,0.121556,0.200126,-0.121416,0.0,18.0,78.0,164.0,28.0,0.0
571121,-1.094893,1.287104,0.293383,0.035857,0.023658,-0.130123,0.0,18.0,78.0,164.0,28.0,0.0
571122,-1.0926790000000002,1.2965950000000002,0.305148,0.004705,-0.07634400000000001,-0.11485,0.0,18.0,78.0,164.0,28.0,0.0
571123,-1.08219,1.302352,0.298692,0.030607,-0.08581799999999999,-0.052347000000000005,0.0,18.0,78.0,164.0,28.0,0.0
571124,-1.0641200000000002,1.301223,0.279997,0.06957,-0.021192,-0.01857,0.0,18.0,78.0,164.0,28.0,0.0
571125,-1.040121,1.292547,0.257531,0.056379999999999986,0.058523,-0.093448,0.0,18.0,78.0,164.0,28.0,0.0
571126,-1.021166,1.277582,0.243571,0.095702,0.14735299999999998,-0.135224,0.0,18.0,78.0,164.0,28.0,0.0
571127,-1.022924,1.26196,0.249705,0.21257,0.206823,0.074889,0.0,18.0,78.0,164.0,28.0,0.0
571128,-1.052532,1.252571,0.277158,0.25653400000000004,0.26915900000000004,0.462753,0.0,18.0,78.0,164.0,28.0,0.0
571129,-1.1088639999999998,1.257072,0.325196,0.036343,0.35780700000000004,0.61487,0.0,18.0,78.0,164.0,28.0,0.0
571130,-1.136555,1.276835,0.352923,-0.260892,0.112423,0.546134,0.0,18.0,78.0,164.0,28.0,0.0
571131,-1.102702,1.306736,0.32658000000000004,-0.464742,-0.498758,0.837385,0.0,18.0,78.0,164.0,28.0,0.0
571132,-0.975289,1.331322,0.222151,-0.938866,-1.429798,0.510841,0.0,18.0,78.0,164.0,28.0,0.0
571133,-0.885258,1.341359,0.15093900000000002,-0.380536,-1.532034,-0.046646,0.0,18.0,78.0,164.0,28.0,0.0
571134,-0.958621,1.353855,0.223784,0.366684,-0.915362,-0.304397,0.0,18.0,78.0,164.0,28.0,0.0
571135,-1.127865,1.365151,0.395329,0.479403,-0.133116,-0.453587,0.0,18.0,78.0,164.0,28.0,0.0
571136,-1.310074,1.360044,0.577565,0.621437,0.205627,-0.380836,0.0,18.0,78.0,164.0,28.0,0.0
571137,-1.389522,1.344944,0.665511,0.218592,0.376535,-0.310875,0.0,18.0,78.0,164.0,28.0,0.0
571138,-1.36781,1.328731,0.651687,-0.027889,0.370763,-0.119665,0.0,18.0,78.0,164.0,28.0,0.0
571139,-1.329157,1.314802,0.609933,-0.192008,0.285955,0.133339,0.0,18.0,78.0,164.0,28.0,0.0
571140,-1.318273,1.312088,0.582493,-0.288011,0.228364,0.26629,0.0,18.0,78.0,164.0,28.0,0.0
571141,-1.316041,1.322774,0.561991,-0.368905,0.110864,0.307983,0.0,18.0,78.0,164.0,28.0,0.0
571142,-1.297786,1.334804,0.532859,-0.188801,0.237236,0.049012,0.0,18.0,78.0,164.0,28.0,0.0
571143,-1.259168,1.338653,0.491213,-0.13001,0.26597600000000005,-0.044092,0.0,18.0,78.0,164.0,28.0,0.0
571144,-1.213858,1.333097,0.444887,-0.000911,0.33412600000000003,-0.14821900000000002,0.0,18.0,78.0,164.0,28.0,0.0
571145,-1.202403,1.32329,0.429012,0.106259,0.4775680000000001,-0.159221,0.0,18.0,78.0,164.0,28.0,0.0
571146,-1.237263,1.315982,0.4559470000000001,0.163369,0.550413,-0.125249,0.0,18.0,78.0,164.0,28.0,0.0
571147,-1.28526,1.3152620000000002,0.493073,0.20175,0.695846,0.102302,0.0,18.0,78.0,164.0,28.0,0.0
571148,-1.323013,1.320826,0.515063,0.276799,0.6102770000000001,0.419444,0.0,18.0,78.0,164.0,28.0,0.0
571149,-1.361064,1.330546,0.539161,0.308741,0.62231,0.418599,0.0,18.0,78.0,164.0,28.0,0.0
571150,-1.3802370000000002,1.339734,0.557294,0.317416,0.614751,0.219931,0.0,18.0,78.0,164.0,28.0,0.0
571151,-1.335508,1.345264,0.520292,0.273941,0.198674,-0.029646,0.0,18.0,78.0,164.0,28.0,0.0
571152,-1.248372,1.341791,0.443934,0.227251,-0.144317,0.007547,0.0,18.0,78.0,164.0,28.0,0.0
571153,-1.1748809999999998,1.330285,0.392461,-0.042745,-1.224081,-0.156026,0.0,18.0,78.0,164.0,28.0,0.0
571154,-1.117891,1.314372,0.362556,-0.796609,-1.82681,-0.8210049999999999,0.0,18.0,78.0,164.0,28.0,0.0
571155,-1.147418,1.2969389999999998,0.399161,-0.484773,-1.715457,-0.340527,0.0,18.0,78.0,164.0,28.0,0.0
571156,-1.242753,1.282133,0.48686,-0.108442,-0.814751,-0.094674,0.0,18.0,78.0,164.0,28.0,0.0
571157,-1.372996,1.269938,0.595672,0.120972,-0.079372,0.167041,0.0,18.0,78.0,164.0,28.0,0.0
571158,-1.477384,1.261693,0.6898350000000001,-0.038771,0.403748,0.245765,0.0,18.0,78.0,164.0,28.0,0.0
571159,-1.487764,1.261225,0.711751,-0.08962300000000001,0.705226,-0.198459,0.0,18.0,78.0,164.0,28.0,0.0
571160,-1.4118540000000002,1.264233,0.6585,-0.046597,0.665565,-0.256315,0.0,18.0,78.0,164.0,28.0,0.0
571161,-1.294908,1.26616,0.567441,-0.022312,0.535469,-0.240473,0.0,18.0,78.0,164.0,28.0,0.0
571162,-1.195336,1.263858,0.492489,-0.057881,0.456635,-0.228414,0.0,18.0,78.0,164.0,28.0,0.0
571163,-1.131604,1.26386,0.449597,0.006848000000000001,0.43799,-0.129073,0.0,18.0,78.0,164.0,28.0,0.0
571164,-1.108947,1.27054,0.441862,0.139915,0.39035,0.035763,0.0,18.0,78.0,164.0,28.0,0.0
571165,-1.136342,1.28309,0.479925,0.230566,0.20699,0.154875,0.0,18.0,78.0,164.0,28.0,0.0
571166,-1.206812,1.29488,0.563276,0.287749,0.048678,0.243385,0.0,18.0,78.0,164.0,28.0,0.0
571167,-1.2932549999999998,1.300006,0.666621,0.325199,0.001829,0.247434,0.0,18.0,78.0,164.0,28.0,0.0
571168,-1.352645,1.302773,0.742271,0.378813,-0.111052,0.196318,0.0,18.0,78.0,164.0,28.0,0.0
571169,-1.362024,1.30935,0.759725,0.229269,-0.185686,0.12775599999999998,0.0,18.0,78.0,164.0,28.0,0.0
571170,-1.312381,1.318277,0.712278,0.13553900000000002,-0.233054,0.133574,0.0,18.0,78.0,164.0,28.0,0.0
571171,-1.251339,1.332697,0.652065,-0.248588,-0.6967300000000001,0.414365,0.0,18.0,78.0,164.0,28.0,0.0
571172,-1.096547,1.341425,0.508441,-0.895726,-1.042838,-0.14068699999999998,0.0,18.0,78.0,164.0,28.0,0.0
571173,-0.984807,1.332628,0.391213,-0.172321,-0.8547969999999999,-0.082767,0.0,18.0,78.0,164.0,28.0,0.0
571174,-1.0157770000000002,1.324439,0.4139020000000001,-0.09593,-0.299373,-0.161066,0.0,18.0,78.0,164.0,28.0,0.0
571175,-1.07328,1.319954,0.473986,0.042099,0.125549,-0.280292,0.0,18.0,78.0,164.0,28.0,0.0
571176,-1.136821,1.312244,0.541312,0.17078800000000002,0.484004,-0.209623,0.0,18.0,78.0,164.0,28.0,0.0
571177,-1.216499,1.302362,0.627877,0.056592,0.48619,-0.1516,0.0,18.0,78.0,164.0,28.0,0.0
571178,-1.287024,1.290589,0.708317,-0.033765,0.468292,-0.102126,0.0,18.0,78.0,164.0,28.0,0.0
571179,-1.330373,1.281315,0.752962,-0.010556,0.4198939999999999,0.015049000000000003,0.0,18.0,78.0,164.0,28.0,0.0
571180,-1.347811,1.277884,0.760996,0.048603,0.26326900000000003,0.206305,0.0,18.0,78.0,164.0,28.0,0.0
571181,-1.343654,1.278911,0.7430260000000001,0.092391,0.122132,0.317422,0.0,18.0,78.0,164.0,28.0,0.0
571182,-1.310041,1.284948,0.694823,0.094365,0.040493,0.272733,0.0,18.0,78.0,164.0,28.0,0.0
571183,-1.232301,1.290649,0.6067520000000001,0.050294,0.053941,-0.013903,0.0,18.0,78.0,164.0,28.0,0.0
571184,-1.144379,1.2925209999999998,0.5085649999999999,0.089651,0.130628,-0.123939,0.0,18.0,78.0,164.0,28.0,0.0
571185,-1.110352,1.293949,0.4542479999999999,0.135726,0.178994,-0.024096,0.0,18.0,78.0,164.0,28.0,0.0
571186,-1.15886,1.297932,0.474366,0.224559,0.396139,0.383527,0.0,18.0,78.0,164.0,28.0,0.0
571187,-1.259502,1.301042,0.549042,0.275838,0.573959,0.359008,0.0,18.0,78.0,164.0,28.0,0.0
571188,-1.335434,1.297023,0.610032,0.1891,0.584721,-0.003561,0.0,18.0,78.0,164.0,28.0,0.0
571189,-1.351897,1.282837,0.622555,0.1168,0.486764,-0.112314,0.0,18.0,78.0,164.0,28.0,0.0
571190,-1.351492,1.265415,0.629946,-0.177448,-1.0983459999999998,-0.396266,0.0,18.0,78.0,164.0,28.0,0.0
571191,-1.286351,1.250215,0.586453,-0.625158,-1.6813490000000002,-0.5156850000000001,0.0,18.0,78.0,164.0,28.0,0.0
571192,-1.213119,1.238071,0.52978,-0.952336,-1.867222,-0.511862,0.0,18.0,78.0,164.0,28.0,0.0
571193,-1.196707,1.229252,0.5064569999999999,-0.16045,-1.085014,-0.061844,0.0,18.0,78.0,164.0,28.0,0.0
571194,-1.253533,1.226606,0.541419,0.010262,-0.0024530000000000003,0.060876,0.0,18.0,78.0,164.0,28.0,0.0
571195,-1.36944,1.231883,0.636059,0.031906,0.472062,0.12084,0.0,18.0,78.0,164.0,28.0,0.0
571196,-1.4401700000000002,1.237083,0.701004,-0.08835599999999999,0.499459,-0.106156,0.0,18.0,78.0,164.0,28.0,0.0
571197,-1.417722,1.238724,0.6893779999999999,-0.07699600000000001,0.498286,-0.372933,0.0,18.0,78.0,164.0,28.0,0.0
571198,-1.318969,1.237905,0.612405,-0.038709,0.420443,-0.396439,0.0,18.0,78.0,164.0,28.0,0.0
571199,-1.211723,1.234005,0.524896,-0.069582,0.462161,-0.313735,0.0,18.0,78.0,164.0,28.0,0.0
571200,-1.1430209999999998,1.23444,0.470719,0.053102,0.514215,-0.17657799999999998,0.0,18.0,78.0,164.0,28.0,0.0
571201,-1.127243,1.245328,0.467077,0.191246,0.544166,0.025795,0.0,18.0,78.0,164.0,28.0,0.0
571202,-1.165308,1.263569,0.515725,0.241349,0.453755,0.146295,0.0,18.0,78.0,164.0,28.0,0.0
571203,-1.238002,1.280482,0.602306,0.196051,0.023645,0.183596,0.0,18.0,78.0,164.0,28.0,0.0
571204,-1.313462,1.288971,0.695021,0.285594,-0.137855,0.189473,0.0,18.0,78.0,164.0,28.0,0.0
571205,-1.362478,1.290909,0.75918,0.413701,-0.15517,0.29522600000000004,0.0,18.0,78.0,164.0,28.0,0.0
571206,-1.381463,1.293615,0.785008,0.395809,-0.15703499999999998,0.372893,0.0,18.0,78.0,164.0,28.0,0.0
571207,-1.354744,1.301441,0.761329,0.287062,-0.153581,0.332143,0.0,18.0,78.0,164.0,28.0,0.0
571208,-1.27429,1.31293,0.687349,-0.180495,-0.376447,0.372997,0.0,18.0,78.0,164.0,28.0,0.0
571209,-1.192652,1.327639,0.607577,-0.484577,-0.609862,0.145095,0.0,18.0,78.0,164.0,28.0,0.0
571210,-1.087331,1.337991,0.504633,-0.657053,-0.956771,-0.166189,0.0,18.0,78.0,164.0,28.0,0.0
571211,-1.058024,1.335391,0.462533,-0.010954,-0.6872020000000001,-0.073591,0.0,18.0,78.0,164.0,28.0,0.0
571212,-1.107554,1.328727,0.5023569999999999,-0.039938,-0.216015,-0.256329,0.0,18.0,78.0,164.0,28.0,0.0
571213,-1.142818,1.320623,0.535543,0.14788900000000002,0.329099,-0.247968,0.0,18.0,78.0,164.0,28.0,0.0
571214,-1.18608,1.308541,0.577667,0.109977,0.477084,-0.181381,0.0,18.0,78.0,164.0,28.0,0.0
571215,-1.24524,1.294542,0.642183,0.028716,0.463137,-0.153508,0.0,18.0,78.0,164.0,28.0,0.0
571216,-1.298428,1.281446,0.701177,-0.165959,0.400904,-0.0224,0.0,18.0,78.0,164.0,28.0,0.0
571217,-1.33348,1.273647,0.73511,-0.225791,0.291792,0.07792400000000001,0.0,18.0,78.0,164.0,28.0,0.0
571218,-1.350876,1.272434,0.745397,-0.222848,0.234368,0.126119,0.0,18.0,78.0,164.0,28.0,0.0
571219,-1.357034,1.275716,0.742506,-0.114107,0.04911,0.166441,0.0,18.0,78.0,164.0,28.0,0.0
571220,-1.35653,1.283614,0.734893,-0.024836,-0.022003,0.102765,0.0,18.0,78.0,164.0,28.0,0.0
571221,-1.349026,1.295122,0.72217,0.10976099999999997,-0.032616,-0.029581,0.0,18.0,78.0,164.0,28.0,0.0
571222,-1.327509,1.306137,0.694706,0.215907,0.05086,-0.064876,0.0,18.0,78.0,164.0,28.0,0.0
571223,-1.300663,1.312333,0.659057,0.223019,0.145769,0.035548,0.0,18.0,78.0,164.0,28.0,0.0
571224,-1.294348,1.31371,0.641115,0.132373,0.302142,0.231547,0.0,18.0,78.0,164.0,28.0,0.0
571225,-1.322609,1.313951,0.656238,0.199165,0.481432,0.341082,0.0,18.0,78.0,164.0,28.0,0.0
571226,-1.378355,1.315987,0.698569,0.266518,0.593078,0.207047,0.0,18.0,78.0,164.0,28.0,0.0
571227,-1.427111,1.31776,0.738904,0.249816,0.587953,0.10481300000000003,0.0,18.0,78.0,164.0,28.0,0.0
571228,-1.435569,1.314258,0.7520140000000001,0.187122,0.168507,-0.075309,0.0,18.0,78.0,164.0,28.0,0.0
571229,-1.414915,1.305662,0.74773,0.14632,-0.805634,-0.24283,0.0,18.0,78.0,164.0,28.0,0.0
571230,-1.329817,1.29559,0.684918,-0.686017,-1.995532,-0.583086,0.0,18.0,78.0,164.0,28.0,0.0
571231,-1.205757,1.281945,0.579236,-0.796268,-1.919327,-0.32852600000000004,0.0,18.0,78.0,164.0,28.0,0.0
571232,-1.183016,1.265319,0.555833,-0.213679,-0.765184,0.062783,0.0,18.0,78.0,164.0,28.0,0.0
571233,-1.243899,1.254084,0.601631,0.015041999999999996,0.254662,0.142664,0.0,18.0,78.0,164.0,28.0,0.0
571234,-1.375956,1.250406,0.71201,0.125914,0.598252,0.158917,0.0,18.0,78.0,164.0,28.0,0.0
571235,-1.500709,1.251874,0.8225379999999999,0.111856,0.5856979999999999,-0.106248,0.0,18.0,78.0,164.0,28.0,0.0
571236,-1.533715,1.25352,0.8572569999999999,0.096185,0.544876,-0.363282,0.0,18.0,78.0,164.0,28.0,0.0
571237,-1.458363,1.254366,0.8020109999999999,0.038653,0.450856,-0.486253,0.0,18.0,78.0,164.0,28.0,0.0
571238,-1.325516,1.2535889999999998,0.6951,-0.00434,0.436804,-0.37899,0.0,18.0,78.0,164.0,28.0,0.0
571239,-1.215085,1.252873,0.599137,0.038644,0.5103880000000001,-0.149673,0.0,18.0,78.0,164.0,28.0,0.0
571240,-1.164247,1.258632,0.554025,0.074045,0.5642050000000001,0.06322799999999999,0.0,18.0,78.0,164.0,28.0,0.0
571241,-1.171897,1.269414,0.569998,0.097888,0.499422,0.215308,0.0,18.0,78.0,164.0,28.0,0.0
571242,-1.22265,1.279885,0.634371,0.06658,0.26531,0.269507,0.0,18.0,78.0,164.0,28.0,0.0
571243,-1.287721,1.286017,0.719735,0.030562,-0.006768000000000001,0.181386,0.0,18.0,78.0,164.0,28.0,0.0
571244,-1.335865,1.287295,0.7911739999999999,0.15726700000000002,-0.052171,-0.004656,0.0,18.0,78.0,164.0,28.0,0.0
571245,-1.359287,1.287141,0.82995,0.45325,-0.022566,-0.033108,0.0,18.0,78.0,164.0,28.0,0.0
571246,-1.366587,1.291033,0.841168,0.58801,-0.032669,0.042229,0.0,18.0,78.0,164.0,28.0,0.0
571247,-1.358237,1.299732,0.830177,0.278446,-0.001174,0.213967,0.0,18.0,78.0,164.0,28.0,0.0
571248,-1.316817,1.311442,0.7841739999999999,0.063085,0.036288,0.15723399999999998,0.0,18.0,78.0,164.0,28.0,0.0
571249,-1.25056,1.3240889999999998,0.715071,-0.091179,0.032832,0.153452,0.0,18.0,78.0,164.0,28.0,0.0
571250,-1.216021,1.341872,0.679226,-0.767789,-0.8287469999999999,0.170053,0.0,18.0,78.0,164.0,28.0,0.0
571251,-1.1656799999999998,1.357495,0.6350720000000001,-0.8872459999999999,-0.900882,0.047256,0.0,18.0,78.0,164.0,28.0,0.0
571252,-1.157273,1.355352,0.6271479999999999,-0.533666,-0.838548,-0.038176,0.0,18.0,78.0,164.0,28.0,0.0
571253,-1.203669,1.346999,0.66913,-0.012319,-0.125936,-0.488832,0.0,18.0,78.0,164.0,28.0,0.0
571254,-1.22998,1.340351,0.689079,0.093497,0.06691799999999999,-0.476365,0.0,18.0,78.0,164.0,28.0,0.0
571255,-1.254134,1.331996,0.706038,0.187595,0.240269,-0.390661,0.0,18.0,78.0,164.0,28.0,0.0
571256,-1.285627,1.321202,0.739858,-0.102041,0.369815,-0.138267,0.0,18.0,78.0,164.0,28.0,0.0
571257,-1.302422,1.31301,0.761035,-0.179489,0.388816,-0.142367,0.0,18.0,78.0,164.0,28.0,0.0
571258,-1.302032,1.3094290000000002,0.756505,-0.206497,0.289112,0.163107,0.0,18.0,78.0,164.0,28.0,0.0
571259,-1.303339,1.306631,0.746398,-0.244739,0.069757,0.306867,0.0,18.0,78.0,164.0,28.0,0.0
571260,-1.302446,1.300489,0.73983,-0.269546,-0.03506,0.28489000000000003,0.0,18.0,78.0,164.0,28.0,0.0
571261,-1.285331,1.295379,0.7242310000000001,-0.186787,-0.23413,0.104835,0.0,18.0,78.0,164.0,28.0,0.0
571262,-1.26204,1.2952629999999998,0.696109,0.107074,-0.099365,0.063058,0.0,18.0,78.0,164.0,28.0,0.0
571263,-1.246974,1.297166,0.662574,0.222898,0.051312,0.094568,0.0,18.0,78.0,164.0,28.0,0.0
571264,-1.260781,1.29758,0.6485449999999999,0.384829,0.488573,0.28008,0.0,18.0,78.0,164.0,28.0,0.0
571265,-1.315487,1.298436,0.674873,0.42135,0.6874279999999999,0.17838800000000002,0.0,18.0,78.0,164.0,28.0,0.0
571266,-1.395141,1.30155,0.732904,0.413468,0.734586,0.018756,0.0,18.0,78.0,164.0,28.0,0.0
571267,-1.452304,1.3019120000000002,0.777151,0.228946,0.474261,-0.17505,0.0,18.0,78.0,164.0,28.0,0.0
571268,-1.4670299999999998,1.2940040000000002,0.793161,0.007081999999999998,-0.267189,-0.049288,0.0,18.0,78.0,164.0,28.0,0.0
571269,-1.426004,1.279705,0.7713270000000001,-0.288081,-0.8677219999999999,-0.24425300000000005,0.0,18.0,78.0,164.0,28.0,0.0
571270,-1.313212,1.257818,0.686132,-0.892792,-1.664973,-0.32113800000000003,0.0,18.0,78.0,164.0,28.0,0.0
571271,-1.254309,1.234251,0.641857,-0.371723,-1.306404,-0.106198,0.0,18.0,78.0,164.0,28.0,0.0
571272,-1.27237,1.218227,0.65915,-0.230334,-0.8251370000000001,-0.067729,0.0,18.0,78.0,164.0,28.0,0.0
571273,-1.381324,1.212305,0.750179,0.048086,0.310741,-0.021508000000000003,0.0,18.0,78.0,164.0,28.0,0.0
571274,-1.538382,1.214493,0.8926290000000001,0.011374,0.488874,-0.132678,0.0,18.0,78.0,164.0,28.0,0.0
571275,-1.64015,1.220308,0.990641,-0.000766,0.468044,-0.287846,0.0,18.0,78.0,164.0,28.0,0.0
571276,-1.6411099999999998,1.232724,0.993716,0.127367,0.447638,-0.240723,0.0,18.0,78.0,164.0,28.0,0.0
571277,-1.555774,1.25026,0.917281,0.132905,0.5342560000000001,-0.223417,0.0,18.0,78.0,164.0,28.0,0.0
571278,-1.415018,1.262042,0.793906,0.123535,0.679672,-0.234779,0.0,18.0,78.0,164.0,28.0,0.0
571279,-1.28803,1.2649549999999998,0.690583,0.109644,0.743923,-0.184597,0.0,18.0,78.0,164.0,28.0,0.0
571280,-1.245752,1.266376,0.668017,0.104032,0.605007,-0.031802,0.0,18.0,78.0,164.0,28.0,0.0
571281,-1.284422,1.269074,0.719332,0.048409,0.327949,0.092237,0.0,18.0,78.0,164.0,28.0,0.0
571282,-1.367939,1.272981,0.811042,0.122737,0.014191999999999996,0.169114,0.0,18.0,78.0,164.0,28.0,0.0
571283,-1.461137,1.278211,0.911077,0.383139,-0.19588,0.27639,0.0,18.0,78.0,164.0,28.0,0.0
571284,-1.537876,1.284641,0.994658,0.515562,-0.34977600000000003,0.346097,0.0,18.0,78.0,164.0,28.0,0.0
571285,-1.564509,1.294971,1.026666,0.439287,-0.357212,0.197238,0.0,18.0,78.0,164.0,28.0,0.0
571286,-1.511074,1.309218,0.976435,0.252258,-0.400808,0.167503,0.0,18.0,78.0,164.0,28.0,0.0
571287,-1.403424,1.3242200000000002,0.866606,-0.14221,-0.81406,0.373086,0.0,18.0,78.0,164.0,28.0,0.0
571288,-1.245982,1.332797,0.70594,-0.5867140000000001,-0.971075,0.28978400000000004,0.0,18.0,78.0,164.0,28.0,0.0
571289,-1.144751,1.3218299999999998,0.602871,-0.146954,-0.398752,-0.152009,0.0,18.0,78.0,164.0,28.0,0.0
571290,-1.184042,1.3056,0.636875,-0.12859,-0.402879,-0.154979,0.0,18.0,78.0,164.0,28.0,0.0
571291,-1.249584,1.288573,0.699926,0.005972,0.021046,-0.311802,0.0,18.0,78.0,164.0,28.0,0.0
571292,-1.284262,1.273474,0.735368,0.193075,0.334588,-0.317765,0.0,18.0,78.0,164.0,28.0,0.0
571293,-1.309264,1.260027,0.7640939999999999,0.118691,0.309429,-0.27589,0.0,18.0,78.0,164.0,28.0,0.0
571294,-1.341389,1.252677,0.79569,-0.042023000000000005,0.329449,-0.121658,0.0,18.0,78.0,164.0,28.0,0.0
571295,-1.372835,1.251993,0.8197399999999999,-0.109842,0.4274560000000001,0.197243,0.0,18.0,78.0,164.0,28.0,0.0
571296,-1.392532,1.255757,0.828398,-0.126506,0.352899,0.237145,0.0,18.0,78.0,164.0,28.0,0.0
571297,-1.394331,1.259841,0.8239299999999999,-0.122024,0.148529,0.203779,0.0,18.0,78.0,164.0,28.0,0.0
571298,-1.377428,1.264371,0.80483,-0.05429,-0.00517,0.091639,0.0,18.0,78.0,164.0,28.0,0.0
571299,-1.3447,1.267958,0.7697470000000001,0.016538999999999998,-0.040349,-0.011549,0.0,18.0,78.0,164.0,28.0,0.0
571300,-1.301285,1.268307,0.723324,0.094693,0.050759,-0.061435,0.0,18.0,78.0,164.0,28.0,0.0
571301,-1.256961,1.266492,0.676296,0.12529,0.192047,-0.088249,0.0,18.0,78.0,164.0,28.0,0.0
571302,-1.230551,1.262994,0.64831,0.027214,0.317214,-0.062095,0.0,18.0,78.0,164.0,28.0,0.0
571303,-1.230579,1.259487,0.6461779999999999,-0.122329,0.384077,0.047089,0.0,18.0,78.0,164.0,28.0,0.0
571304,-1.245959,1.258592,0.659679,-0.16106099999999998,0.441405,0.25474600000000003,0.0,18.0,78.0,164.0,28.0,0.0
571305,-1.28065,1.263647,0.6928810000000001,0.098949,0.383421,0.454961,0.0,18.0,78.0,164.0,28.0,0.0
571306,-1.3371879999999998,1.273773,0.748962,0.249789,0.14696199999999998,0.260815,0.0,18.0,78.0,164.0,28.0,0.0
571307,-1.382274,1.282273,0.798463,0.23339,-0.217254,-0.127649,0.0,18.0,78.0,164.0,28.0,0.0
571308,-1.369245,1.283216,0.798018,0.22885500000000006,-0.435613,-0.257937,0.0,18.0,78.0,164.0,28.0,0.0
571309,-1.311229,1.27562,0.753839,0.231823,-1.239691,-0.393938,0.0,18.0,78.0,164.0,28.0,0.0
571310,-1.243706,1.263259,0.6938340000000001,0.120351,-1.5314,-0.409539,0.0,18.0,78.0,164.0,28.0,0.0
571311,-1.220946,1.243688,0.6682140000000001,-0.351254,-1.265442,-0.100449,0.0,18.0,78.0,164.0,28.0,0.0
571312,-1.241729,1.2233040000000002,0.6874170000000001,-0.308152,-0.136949,-0.022343,0.0,18.0,78.0,164.0,28.0,0.0
571313,-1.282212,1.209316,0.723508,-0.233738,0.37057,0.019208000000000003,0.0,18.0,78.0,164.0,28.0,0.0
571314,-1.328376,1.202079,0.7675390000000001,-0.211677,0.5060479999999999,0.004148,0.0,18.0,78.0,164.0,28.0,0.0
571315,-1.359161,1.203622,0.804653,-0.105196,0.541042,-0.122306,0.0,18.0,78.0,164.0,28.0,0.0
571316,-1.363585,1.210921,0.8209930000000001,0.02034,0.4672060000000001,-0.193042,0.0,18.0,78.0,164.0,28.0,0.0
571317,-1.335153,1.221966,0.805203,0.133709,0.413665,-0.206003,0.0,18.0,78.0,164.0,28.0,0.0
571318,-1.285201,1.236561,0.767067,0.234386,0.41361,-0.159829,0.0,18.0,78.0,164.0,28.0,0.0
571319,-1.235234,1.25166,0.729779,0.27326300000000003,0.437864,-0.091164,0.0,18.0,78.0,164.0,28.0,0.0
571320,-1.204543,1.262894,0.7151609999999999,0.229015,0.433654,-0.054928,0.0,18.0,78.0,164.0,28.0,0.0
571321,-1.208535,1.267595,0.7395079999999999,0.1142,0.34646,0.005509,0.0,18.0,78.0,164.0,28.0,0.0
571322,-1.247884,1.267105,0.8001060000000001,0.017469,0.146896,0.043299,0.0,18.0,78.0,164.0,28.0,0.0
571323,-1.306606,1.2645030000000002,0.8777370000000001,-0.010821,-0.060977,0.045513,0.0,18.0,78.0,164.0,28.0,0.0
571324,-1.362869,1.261761,0.949586,0.096471,-0.153543,0.033422,0.0,18.0,78.0,164.0,28.0,0.0
571325,-1.398848,1.260981,0.996377,0.285563,-0.10747,0.120293,0.0,18.0,78.0,164.0,28.0,0.0
571326,-1.405886,1.263616,1.00959,0.352752,0.022358000000000003,0.22630100000000006,0.0,18.0,78.0,164.0,28.0,0.0
571327,-1.388645,1.2687190000000002,0.995263,0.31500500000000003,0.100045,0.260415,0.0,18.0,78.0,164.0,28.0,0.0
571328,-1.353652,1.276391,0.962914,-0.000709,0.024068,0.209071,0.0,18.0,78.0,164.0,28.0,0.0
571329,-1.309634,1.28806,0.925757,-0.171951,-0.04419,0.175483,0.0,18.0,78.0,164.0,28.0,0.0
571330,-1.28,1.301695,0.908554,-0.432608,-0.499491,0.34035,0.0,18.0,78.0,164.0,28.0,0.0
571331,-1.266153,1.316294,0.910423,-0.489789,-1.164963,-0.190421,0.0,18.0,78.0,164.0,28.0,0.0
571332,-1.238221,1.326747,0.893048,-0.501568,-1.162384,-0.187051,0.0,18.0,78.0,164.0,28.0,0.0
571333,-1.236712,1.32701,0.891349,0.061152,-0.51103,-0.375572,0.0,18.0,78.0,164.0,28.0,0.0
571334,-1.231476,1.324568,0.8878590000000001,0.230632,0.017278,-0.384485,0.0,18.0,78.0,164.0,28.0,0.0
571335,-1.218102,1.3176290000000002,0.871967,0.260404,0.180832,-0.283973,0.0,18.0,78.0,164.0,28.0,0.0
571336,-1.227967,1.304794,0.877793,0.089077,0.374223,-0.10137,0.0,18.0,78.0,164.0,28.0,0.0
571337,-1.264947,1.291665,0.915447,-0.198608,0.465232,0.07477400000000001,0.0,18.0,78.0,164.0,28.0,0.0
571338,-1.312874,1.28159,0.967637,-0.334572,0.531347,0.165206,0.0,18.0,78.0,164.0,28.0,0.0
571339,-1.353365,1.27664,1.0138459999999998,-0.356779,0.491608,0.181131,0.0,18.0,78.0,164.0,28.0,0.0
571340,-1.372619,1.277364,1.039995,-0.225829,0.136624,0.096233,0.0,18.0,78.0,164.0,28.0,0.0
571341,-1.368193,1.282802,1.042594,-0.132142,0.090774,0.044437,0.0,18.0,78.0,164.0,28.0,0.0
571342,-1.345978,1.291236,1.0247,-0.032288,0.075023,-0.000259,0.0,18.0,78.0,164.0,28.0,0.0
571343,-1.31256,1.30091,0.991173,0.268089,0.28438800000000003,-0.151796,0.0,18.0,78.0,164.0,28.0,0.0
571344,-1.27078,1.310375,0.949055,0.264091,0.341541,-0.173651,0.0,18.0,78.0,164.0,28.0,0.0
571345,-1.230401,1.315531,0.912366,0.218049,0.376181,-0.179181,0.0,18.0,78.0,164.0,28.0,0.0
571346,-1.209933,1.317137,0.896332,-0.11278699999999997,0.380553,-0.06463200000000001,0.0,18.0,78.0,164.0,28.0,0.0
571347,-1.210448,1.31962,0.8985879999999999,-0.114991,0.381172,-0.06560099999999999,0.0,18.0,78.0,164.0,28.0,0.0
571348,-1.212236,1.324085,0.90103,-0.203848,0.376383,0.002579,0.0,18.0,78.0,164.0,28.0,0.0
571349,-1.206007,1.3290959999999998,0.8972899999999999,-0.120673,0.222535,0.126504,0.0,18.0,78.0,164.0,28.0,0.0
571350,-1.202731,1.333316,0.898857,-0.103066,0.143473,0.197614,0.0,18.0,78.0,164.0,28.0,0.0
571351,-1.222193,1.337173,0.924389,0.007853,-0.103231,0.330809,0.0,18.0,78.0,164.0,28.0,0.0
571352,-1.2569709999999998,1.338208,0.968051,0.108206,-0.30861900000000003,0.21612,0.0,18.0,78.0,164.0,28.0,0.0
571353,-1.28483,1.332139,1.007804,0.139553,-0.422341,0.047893,0.0,18.0,78.0,164.0,28.0,0.0
571354,-1.2886959999999998,1.317388,1.026704,0.205767,-0.778717,-0.369289,0.0,18.0,78.0,164.0,28.0,0.0
571355,-1.275959,1.299215,1.023623,0.093921,-1.125657,-0.45291,0.0,18.0,78.0,164.0,28.0,0.0
571356,-1.247951,1.280772,0.997789,-0.093399,-1.172302,-0.433584,0.0,18.0,78.0,164.0,28.0,0.0
571357,-1.214253,1.25593,0.963166,-0.484724,-0.376112,-0.087211,0.0,18.0,78.0,164.0,28.0,0.0
571358,-1.188085,1.228809,0.93628,-0.448592,0.081388,0.016205,0.0,18.0,78.0,164.0,28.0,0.0
571359,-1.185309,1.204878,0.936053,-0.398004,0.240436,0.048672,0.0,18.0,78.0,164.0,28.0,0.0
571360,-1.196775,1.189773,0.956149,-0.279021,0.566346,0.104337,0.0,18.0,78.0,164.0,28.0,0.0
571361,-1.212127,1.1859110000000002,0.986638,-0.103654,0.564918,0.046111,0.0,18.0,78.0,164.0,28.0,0.0
571362,-1.223419,1.1925370000000002,1.018433,-0.00441,0.5236689999999999,-0.023941,0.0,18.0,78.0,164.0,28.0,0.0
571363,-1.221247,1.207166,1.037676,0.207481,0.364406,-0.185297,0.0,18.0,78.0,164.0,28.0,0.0
571364,-1.20419,1.224645,1.042409,0.234212,0.36755,-0.194493,0.0,18.0,78.0,164.0,28.0,0.0
571365,-1.177658,1.241149,1.041058,0.219407,0.377889,-0.174765,0.0,18.0,78.0,164.0,28.0,0.0
571366,-1.149805,1.25461,1.04031,0.133324,0.373631,-0.172573,0.0,18.0,78.0,164.0,28.0,0.0
571367,-1.127942,1.263821,1.04723,0.066862,0.313924,-0.144553,0.0,18.0,78.0,164.0,28.0,0.0
571368,-1.121916,1.268277,1.070832,0.055929,0.320266,-0.021723,0.0,18.0,78.0,164.0,28.0,0.0
571369,-1.1389280000000002,1.269524,1.113086,0.188035,0.291263,0.08493400000000001,0.0,18.0,78.0,164.0,28.0,0.0
571370,-1.165777,1.268926,1.160518,0.226419,0.155695,-0.08767799999999999,0.0,18.0,78.0,164.0,28.0,0.0
571371,-1.171961,1.269416,1.186273,0.138954,-0.088407,-0.34715,0.0,18.0,78.0,164.0,28.0,0.0
571372,-1.146559,1.271972,1.173225,-0.023911,-0.222204,-0.467573,0.0,18.0,78.0,164.0,28.0,0.0
571373,-1.108435,1.273363,1.137168,-0.14292,-0.009652,-0.411031,0.0,18.0,78.0,164.0,28.0,0.0
571374,-1.084637,1.274092,1.108966,-0.14241900000000002,0.157813,-0.367311,0.0,18.0,78.0,164.0,28.0,0.0
571375,-1.079742,1.27393,1.104525,-0.08924299999999999,0.426259,0.506706,0.0,18.0,78.0,164.0,28.0,0.0
571376,-1.098425,1.279525,1.114787,0.061169000000000015,-0.303763,0.595313,0.0,18.0,78.0,164.0,28.0,0.0
571377,-1.054489,1.292718,1.082234,-0.027285000000000004,-1.181589,0.460182,0.0,18.0,78.0,164.0,28.0,0.0
571378,-0.8845940000000001,1.297197,0.94294,-0.999716,-1.658076,0.071148,0.0,18.0,78.0,164.0,28.0,0.0
571379,-0.7667689999999999,1.294468,0.8535159999999999,-0.476848,-1.028949,0.6953630000000001,0.0,18.0,78.0,164.0,28.0,0.0
571380,-0.8277200000000001,1.309094,0.906102,-0.320374,-0.875648,0.8416530000000001,0.0,18.0,78.0,164.0,28.0,0.0
571381,-0.960912,1.323034,1.053976,-0.372011,0.275463,0.305519,0.0,18.0,78.0,164.0,28.0,0.0
571382,-1.028301,1.32208,1.170339,-0.138157,0.575415,-0.239107,0.0,18.0,78.0,164.0,28.0,0.0
571383,-1.0551469999999998,1.316662,1.257327,0.056008,0.215181,-0.369161,0.0,18.0,78.0,164.0,28.0,0.0
571384,-1.094606,1.310243,1.354981,0.069357,0.034744,-0.21232,0.0,18.0,78.0,164.0,28.0,0.0
571385,-1.147666,1.310867,1.458613,0.178766,0.16462000000000002,-0.10761099999999997,0.0,18.0,78.0,164.0,28.0,0.0
571386,-1.216316,1.322663,1.560864,0.356521,0.29188200000000003,0.01938,0.0,18.0,78.0,164.0,28.0,0.0
571387,-1.300439,1.342725,1.658163,0.410911,0.352202,0.142867,0.0,18.0,78.0,164.0,28.0,0.0
571388,-1.379386,1.364288,1.740486,0.372698,0.295678,0.160279,0.0,18.0,78.0,164.0,28.0,0.0
571389,-1.422516,1.377402,1.785553,0.217558,0.267979,0.09864,0.0,18.0,78.0,164.0,28.0,0.0
571390,-1.4080629999999998,1.376294,1.773334,-0.096559,0.259434,0.009854,0.0,18.0,78.0,164.0,28.0,0.0
571391,-1.355658,1.367495,1.722246,-0.320133,0.231526,-0.020076,0.0,18.0,78.0,164.0,28.0,0.0
571392,-1.313507,1.362409,1.678755,-0.292604,0.230319,0.026298,0.0,18.0,78.0,164.0,28.0,0.0
571393,-1.280892,1.365557,1.646811,-0.239745,0.367653,0.001091,0.0,18.0,78.0,164.0,28.0,0.0
571394,-1.213663,1.376545,1.586293,-0.218014,0.338401,-0.007695,0.0,18.0,78.0,164.0,28.0,0.0
571395,-1.112121,1.38849,1.492791,-0.231012,0.112609,-0.04746,0.0,18.0,78.0,164.0,28.0,0.0
571396,-1.017575,1.395961,1.409974,-0.4643060000000001,-0.146669,-0.204292,0.0,18.0,78.0,164.0,28.0,0.0
571397,-0.983478,1.401537,1.3882450000000002,-0.51476,-0.231697,-0.010314,0.0,18.0,78.0,164.0,28.0,0.0
571398,-1.01867,1.409827,1.434216,-0.44443,-0.366657,0.055082000000000006,0.0,18.0,78.0,164.0,28.0,0.0
571399,-1.06242,1.418225,1.489128,-0.269362,-0.639027,0.5171640000000001,0.0,18.0,78.0,164.0,28.0,0.0
571400,-1.0934620000000002,1.417675,1.535716,-0.136536,-0.499829,0.529738,0.0,18.0,78.0,164.0,28.0,0.0
571401,-1.126085,1.403881,1.590237,-0.098848,-0.342954,0.5588529999999999,0.0,18.0,78.0,164.0,28.0,0.0
571402,-1.185786,1.378664,1.674936,0.12486400000000003,0.117204,0.462603,0.0,18.0,78.0,164.0,28.0,0.0
571403,-1.232086,1.349235,1.751436,0.15621500000000002,0.176926,0.20817,0.0,18.0,78.0,164.0,28.0,0.0
571404,-1.223097,1.321915,1.7833720000000002,0.16042,0.100384,0.000914,0.0,18.0,78.0,164.0,28.0,0.0
571405,-1.176177,1.302246,1.782272,0.004854,-0.285187,-0.183079,0.0,18.0,78.0,164.0,28.0,0.0
571406,-1.124824,1.293125,1.774957,-0.330457,-0.416004,-0.041258,0.0,18.0,78.0,164.0,28.0,0.0
571407,-1.076619,1.29241,1.762875,-0.434529,-0.374224,0.061576,0.0,18.0,78.0,164.0,28.0,0.0
571408,-1.044637,1.291668,1.7603240000000002,-0.44594,-0.093361,0.256309,0.0,18.0,78.0,164.0,28.0,0.0
571409,-1.023819,1.289841,1.772029,-0.290053,0.0074680000000000015,0.244177,0.0,18.0,78.0,164.0,28.0,0.0
571410,-1.022286,1.29022,1.808022,-0.220196,0.100194,0.227245,0.0,18.0,78.0,164.0,28.0,0.0
571411,-1.054352,1.295701,1.883663,-0.053967,0.270749,0.257368,0.0,18.0,78.0,164.0,28.0,0.0
571412,-1.114954,1.305108,1.995172,0.040231,0.271919,0.233484,0.0,18.0,78.0,164.0,28.0,0.0
571413,-1.168566,1.315907,2.109613,0.098494,0.277887,0.149279,0.0,18.0,78.0,164.0,28.0,0.0
571414,-1.1787,1.326469,2.186051,0.136456,0.297708,0.053869000000000014,0.0,18.0,78.0,164.0,28.0,0.0
571415,-1.146313,1.33444,2.217488,0.149636,0.342391,0.000298,0.0,18.0,78.0,164.0,28.0,0.0
571416,-1.10154,1.342941,2.231696,0.122971,0.403459,-0.008471,0.0,18.0,78.0,164.0,28.0,0.0
571417,-1.0616370000000002,1.3546790000000002,2.247405,0.054386,0.397102,0.003652,0.0,18.0,78.0,164.0,28.0,0.0
571418,-1.022874,1.366758,2.262389,-0.001714,0.28109,0.048162,0.0,18.0,78.0,164.0,28.0,0.0
571419,-1.000286,1.375962,2.289606,0.008985,0.218415,0.088351,0.0,18.0,78.0,164.0,28.0,0.0
571420,-1.013274,1.379279,2.346785,0.012221,0.084698,0.113832,0.0,18.0,78.0,164.0,28.0,0.0
571421,-1.044358,1.377185,2.41502,0.032691000000000005,-0.137428,0.06904099999999999,0.0,18.0,78.0,164.0,28.0,0.0
571422,-1.052596,1.371107,2.456752,-0.021291,-0.213994,-0.012478,0.0,18.0,78.0,164.0,28.0,0.0
571423,-1.010143,1.362496,2.4505220000000003,-0.113519,-0.28277,-0.097678,0.0,18.0,78.0,164.0,28.0,0.0
571424,-0.939812,1.352522,2.415274,-0.431784,-0.143585,-0.244488,0.0,18.0,78.0,164.0,28.0,0.0
571425,-0.898085,1.342438,2.399339,-0.451347,0.015986,-0.177041,0.0,18.0,78.0,164.0,28.0,0.0
571426,-0.908645,1.335454,2.427516,-0.383914,0.129142,-0.023951,0.0,18.0,78.0,164.0,28.0,0.0
571427,-0.942995,1.331758,2.47792,-0.20600900000000005,-0.018333,0.049702,0.0,18.0,78.0,164.0,28.0,0.0
571428,-0.936278,1.329277,2.491509,-0.105001,-0.299807,0.045425,0.0,18.0,78.0,164.0,28.0,0.0
571429,-0.874331,1.322279,2.44945,-0.09664,-0.505057,0.008409,0.0,18.0,78.0,164.0,28.0,0.0
571430,-0.798615,1.303981,2.388818,0.14286500000000002,-0.395828,0.47595,0.0,18.0,78.0,164.0,28.0,0.0
571431,-0.780755,1.294967,2.376118,0.29999000000000003,-0.320775,0.68067,0.0,18.0,78.0,164.0,28.0,0.0
571432,-0.8353450000000001,1.317045,2.433286,0.473016,-0.427225,0.792573,0.0,18.0,78.0,164.0,28.0,0.0
571433,-0.918126,1.344137,2.5328880000000003,0.062717,-0.15662,0.485507,0.0,18.0,78.0,164.0,28.0,0.0
571434,-0.93914,1.35033,2.592042,-0.04132,0.057079,0.406702,0.0,18.0,78.0,164.0,28.0,0.0
571435,-0.938386,1.33696,2.634943,-0.226923,0.211432,0.376068,0.0,18.0,78.0,164.0,28.0,0.0
571436,-0.982754,1.3279379999999998,2.724953,-0.106468,0.103894,0.158748,0.0,18.0,78.0,164.0,28.0,0.0
571437,-1.058801,1.328682,2.842887,0.001426,0.104424,0.145205,0.0,18.0,78.0,164.0,28.0,0.0
571438,-1.1171870000000002,1.333518,2.936413,0.17798599999999998,0.093731,0.132231,0.0,18.0,78.0,164.0,28.0,0.0
571439,-1.137306,1.34429,2.98582,0.30195500000000003,-0.004974,0.090597,0.0,18.0,78.0,164.0,28.0,0.0
571440,-1.124034,1.356561,3.00008,0.32357600000000003,-0.002506,0.024581,0.0,18.0,78.0,164.0,28.0,0.0
571441,-1.10044,1.363229,2.999001,0.186591,0.17812,0.057312,0.0,18.0,78.0,164.0,28.0,0.0
571442,-1.093071,1.361394,3.007888,-0.000389,0.191778,0.111612,0.0,18.0,78.0,164.0,28.0,0.0
571443,-1.101811,1.353295,3.02772,-0.094063,0.182861,0.133974,0.0,18.0,78.0,164.0,28.0,0.0
571444,-1.11641,1.341948,3.051238,-0.287275,0.140158,0.179545,0.0,18.0,78.0,164.0,28.0,0.0
571445,-1.131831,1.331407,3.077098,-0.249473,0.169389,0.183831,0.0,18.0,78.0,164.0,28.0,0.0
571446,-1.1426459999999998,1.325152,3.100814,-0.192167,0.182505,0.174061,0.0,18.0,78.0,164.0,28.0,0.0
571447,-1.144035,1.322843,3.114887,-0.017763,0.245952,0.042753,0.0,18.0,78.0,164.0,28.0,0.0
571448,-1.135229,1.321019,3.116826,0.076062,0.268955,-0.061486,0.0,18.0,78.0,164.0,28.0,0.0
571449,-1.1201299999999998,1.317356,3.10913,0.108127,0.271293,-0.098013,0.0,18.0,78.0,164.0,28.0,0.0
571450,-1.102065,1.311718,3.095473,0.08164099999999999,0.235959,-0.107664,0.0,18.0,78.0,164.0,28.0,0.0
571451,-1.081577,1.306086,3.077629,-0.025747000000000003,0.184864,-0.032106,0.0,18.0,78.0,164.0,28.0,0.0
571452,-1.06163,1.302129,3.058209,-0.074916,0.172194,0.027864,0.0,18.0,78.0,164.0,28.0,0.0
571453,-1.046202,1.300744,3.040287,-0.125329,0.145108,0.090931,0.0,18.0,78.0,164.0,28.0,0.0
571454,-1.029742,1.2997610000000002,3.0194810000000003,-0.153298,0.14899500000000002,0.018113,0.0,18.0,78.0,164.0,28.0,0.0
571455,-1.006834,1.296476,2.992896,-0.16228099999999998,0.145852,-0.012406,0.0,18.0,78.0,164.0,28.0,0.0
571456,-0.989826,1.291372,2.973698,-0.18678,0.150851,0.0035,0.0,18.0,78.0,164.0,28.0,0.0
571457,-0.988611,1.287405,2.973761,-0.263202,0.179473,0.029542,0.0,18.0,78.0,164.0,28.0,0.0
571458,-1.000159,1.286737,2.991275,-0.281945,0.185512,0.014441,0.0,18.0,78.0,164.0,28.0,0.0
571459,-1.005954,1.288108,3.007344,-0.349841,0.162427,-0.064675,0.0,18.0,78.0,164.0,28.0,0.0
571460,-0.993436,1.28917,3.008648,-0.395094,0.142032,-0.067925,0.0,18.0,78.0,164.0,28.0,0.0
571461,-0.97486,1.289599,3.00452,-0.34128600000000003,0.154419,-0.04518,0.0,18.0,78.0,164.0,28.0,0.0
571462,-0.962682,1.291775,3.005587,-0.197166,0.236884,0.123585,0.0,18.0,78.0,164.0,28.0,0.0
571463,-0.968962,1.297806,3.024337,0.037926,0.439486,0.450786,0.0,18.0,78.0,164.0,28.0,0.0
571464,-1.018745,1.30958,3.084404,0.20365,0.414334,0.573581,0.0,18.0,78.0,164.0,28.0,0.0
571465,-1.098159,1.323955,-3.107325,0.575242,-0.048271,0.639022,0.0,18.0,78.0,164.0,28.0,0.0
571466,-1.159133,1.337289,-3.031463,0.7991590000000001,-0.393854,0.200165,0.0,18.0,78.0,164.0,28.0,0.0
571467,-1.160742,1.3417629999999998,-3.01179,0.758402,-0.601935,-0.037432,0.0,18.0,78.0,164.0,28.0,0.0
571468,-1.088013,1.328098,-3.068177,0.434494,-1.491847,-0.327959,0.0,18.0,78.0,164.0,28.0,0.0
571469,-1.023006,1.291913,-3.120306,0.071362,-1.704362,-0.325669,0.0,18.0,78.0,164.0,28.0,0.0
571470,-1.026142,1.247112,-3.111582,-0.184795,-1.309361,-0.039637,0.0,18.0,78.0,164.0,28.0,0.0
571471,-1.084143,1.207343,-3.049757,-0.504358,0.029157,0.173681,0.0,18.0,78.0,164.0,28.0,0.0
571472,-1.151204,1.177907,-2.98106,-0.5364,0.43577,0.131872,0.0,18.0,78.0,164.0,28.0,0.0
571473,-1.209381,1.166772,-2.921566,-0.376492,0.594657,0.101205,0.0,18.0,78.0,164.0,28.0,0.0
571474,-1.26158,1.173081,-2.864139,-0.155136,0.5559810000000001,0.056992,0.0,18.0,78.0,164.0,28.0,0.0
571475,-1.29285,1.1864709999999998,-2.820638,-0.054254,0.429875,-0.077916,0.0,18.0,78.0,164.0,28.0,0.0
571476,-1.28165,1.201059,-2.8095220000000003,0.026069,0.317081,-0.144342,0.0,18.0,78.0,164.0,28.0,0.0
571477,-1.234347,1.2169450000000002,-2.830041,0.154901,0.269115,-0.15218099999999998,0.0,18.0,78.0,164.0,28.0,0.0
571478,-1.163744,1.231912,-2.872911,0.27055500000000005,0.246044,-0.151278,0.0,18.0,78.0,164.0,28.0,0.0
571479,-1.0902969999999998,1.244192,-2.915772,0.261166,0.300119,-0.153198,0.0,18.0,78.0,164.0,28.0,0.0
571480,-1.033956,1.252253,-2.936626,0.222738,0.377198,-0.123045,0.0,18.0,78.0,164.0,28.0,0.0
571481,-1.002522,1.253655,-2.929375,0.188648,0.385083,-0.069972,0.0,18.0,78.0,164.0,28.0,0.0
571482,-0.996019,1.246526,-2.897546,0.177696,0.377342,-0.029829,0.0,18.0,78.0,164.0,28.0,0.0
571483,-1.00409,1.231476,-2.8542650000000003,0.192876,0.390033,0.011871,0.0,18.0,78.0,164.0,28.0,0.0
571484,-1.013987,1.212257,-2.812314,0.209766,0.409021,0.020932,0.0,18.0,78.0,164.0,28.0,0.0
571485,-1.01628,1.197661,-2.781091,0.116584,0.222678,0.029624,0.0,18.0,78.0,164.0,28.0,0.0
571486,-1.015265,1.196199,-2.762514,0.036522000000000006,0.085471,0.048539,0.0,18.0,78.0,164.0,28.0,0.0
571487,-1.015716,1.206376,-2.75335,0.10122,-0.100734,0.198716,0.0,18.0,78.0,164.0,28.0,0.0
571488,-1.008125,1.218524,-2.758914,0.191833,-0.061012,0.233805,0.0,18.0,78.0,164.0,28.0,0.0
571489,-0.995404,1.23015,-2.772559,0.262615,-0.022656,0.296234,0.0,18.0,78.0,164.0,28.0,0.0
571490,-0.99211,1.245642,-2.778523,0.244568,-0.106872,0.373026,0.0,18.0,78.0,164.0,28.0,0.0
571491,-0.977369,1.261481,-2.78986,0.120889,-0.154101,0.349398,0.0,18.0,78.0,164.0,28.0,0.0
571492,-0.943758,1.276142,-2.814112,-0.287299,-0.507606,0.389119,0.0,18.0,78.0,164.0,28.0,0.0
571493,-0.892136,1.2938690000000002,-2.857669,-0.640058,-1.038985,-0.27575900000000003,0.0,18.0,78.0,164.0,28.0,0.0
571494,-0.817426,1.297228,-2.931681,-0.450862,-1.162523,-0.382103,0.0,18.0,78.0,164.0,28.0,0.0
571495,-0.833485,1.289787,-2.93067,-0.046656,-0.307992,-0.291184,0.0,18.0,78.0,164.0,28.0,0.0
571496,-0.8889950000000001,1.2854219999999998,-2.888434,-0.06515900000000001,0.193535,-0.235782,0.0,18.0,78.0,164.0,28.0,0.0
571497,-0.937236,1.277822,-2.848536,0.040672,0.336814,-0.168744,0.0,18.0,78.0,164.0,28.0,0.0
571498,-0.978977,1.266145,-2.804776,-0.123799,0.583712,0.018295,0.0,18.0,78.0,164.0,28.0,0.0
571499,-1.01512,1.256553,-2.758649,-0.371871,0.455654,0.027469,0.0,18.0,78.0,164.0,28.0,0.0
571500,-1.035849,1.250108,-2.727676,-0.421706,0.35533000000000003,0.045103,0.0,18.0,78.0,164.0,28.0,0.0
571501,-1.036974,1.245692,-2.72002,-0.381482,0.123444,0.20359,0.0,18.0,78.0,164.0,28.0,0.0
571502,-1.031158,1.244951,-2.720689,-0.297051,-0.024131,0.134884,0.0,18.0,78.0,164.0,28.0,0.0
571503,-1.014622,1.250612,-2.733926,-0.216736,-0.108775,0.07913400000000001,0.0,18.0,78.0,164.0,28.0,0.0
571504,-0.987305,1.260771,-2.765971,0.210949,-0.274099,-0.015979,0.0,18.0,78.0,164.0,28.0,0.0
571505,-0.960557,1.27013,-2.806063,0.420605,-0.082901,0.071927,0.0,18.0,78.0,164.0,28.0,0.0
571506,-0.956269,1.275473,-2.828221,0.478538,0.06152100000000001,0.181975,0.0,18.0,78.0,164.0,28.0,0.0
571507,-0.992256,1.277555,-2.811932,0.418773,0.527365,0.360057,0.0,18.0,78.0,164.0,28.0,0.0
571508,-1.06015,1.278565,-2.759433,0.408302,0.769325,0.273375,0.0,18.0,78.0,164.0,28.0,0.0
571509,-1.126454,1.277859,-2.699028,0.385874,0.8560200000000001,0.172644,0.0,18.0,78.0,164.0,28.0,0.0
571510,-1.157778,1.272146,-2.665338,0.241669,0.621903,0.029984,0.0,18.0,78.0,164.0,28.0,0.0
571511,-1.159668,1.261408,-2.655905,0.160374,0.015783000000000002,0.074891,0.0,18.0,78.0,164.0,28.0,0.0
571512,-1.1364610000000002,1.252171,-2.668417,-0.08248,-1.227213,-0.257132,0.0,18.0,78.0,164.0,28.0,0.0
571513,-1.050866,1.247173,-2.746691,-0.831594,-2.061539,-0.4960560000000001,0.0,18.0,78.0,164.0,28.0,0.0
571514,-0.984749,1.24274,-2.818906,-0.384103,-1.423203,-0.088974,0.0,18.0,78.0,164.0,28.0,0.0
571515,-0.977173,1.236009,-2.8416,-0.046918,-0.362298,0.095325,0.0,18.0,78.0,164.0,28.0,0.0
571516,-1.0339040000000002,1.231423,-2.806037,0.038256,0.435761,0.065963,0.0,18.0,78.0,164.0,28.0,0.0
571517,-1.134993,1.228594,-2.717542,-0.188891,0.6666880000000001,-0.026963,0.0,18.0,78.0,164.0,28.0,0.0
571518,-1.187147,1.222056,-2.65726,-0.254479,0.643417,-0.211258,0.0,18.0,78.0,164.0,28.0,0.0
571519,-1.177634,1.2119719999999998,-2.646387,-0.130624,0.660248,-0.215551,0.0,18.0,78.0,164.0,28.0,0.0
571520,-1.133171,1.208322,-2.669635,-0.016551,0.54455,-0.173192,0.0,18.0,78.0,164.0,28.0,0.0
571521,-1.080526,1.211665,-2.705476,0.061815,0.446807,-0.123245,0.0,18.0,78.0,164.0,28.0,0.0
571522,-1.0306959999999998,1.221091,-2.742627,0.152586,0.362493,-0.054492999999999986,0.0,18.0,78.0,164.0,28.0,0.0
571523,-0.998519,1.234518,-2.765181,0.218852,0.15968800000000002,0.014198,0.0,18.0,78.0,164.0,28.0,0.0
571524,-0.999432,1.2500870000000002,-2.756782,0.281968,-0.084008,0.063058,0.0,18.0,78.0,164.0,28.0,0.0
571525,-1.045166,1.263098,-2.703944,0.364137,-0.16735899999999998,0.180902,0.0,18.0,78.0,164.0,28.0,0.0
571526,-1.121024,1.269986,-2.620405,0.408318,-0.120923,0.365915,0.0,18.0,78.0,164.0,28.0,0.0
571527,-1.196006,1.27357,-2.541736,0.338498,-0.022882,0.491101,0.0,18.0,78.0,164.0,28.0,0.0
571528,-1.221919,1.282418,-2.51549,0.14240999999999998,-0.124195,0.419477,0.0,18.0,78.0,164.0,28.0,0.0
571529,-1.179022,1.295002,-2.560425,-0.187048,-0.386637,0.208398,0.0,18.0,78.0,164.0,28.0,0.0
571530,-1.096354,1.304837,-2.650277,-0.330945,-0.476977,0.204459,0.0,18.0,78.0,164.0,28.0,0.0
571531,-1.011062,1.303832,-2.7444040000000003,-0.450407,-0.5872430000000001,0.102628,0.0,18.0,78.0,164.0,28.0,0.0
571532,-0.949301,1.294309,-2.815762,-0.13691,-0.366379,-0.192069,0.0,18.0,78.0,164.0,28.0,0.0
571533,-0.963176,1.2838,-2.812141,-0.055973,-0.038948,-0.139579,0.0,18.0,78.0,164.0,28.0,0.0
571534,-1.019185,1.274091,-2.75668,0.017574,0.137442,-0.115392,0.0,18.0,78.0,164.0,28.0,0.0
571535,-1.088445,1.262686,-2.6819330000000003,0.026498,0.464871,-0.008981999999999999,0.0,18.0,78.0,164.0,28.0,0.0
571536,-1.153432,1.248681,-2.606766,-0.100375,0.407949,-0.044414,0.0,18.0,78.0,164.0,28.0,0.0
571537,-1.19297,1.235388,-2.555773,-0.228793,0.328019,-0.033992,0.0,18.0,78.0,164.0,28.0,0.0
571538,-1.207575,1.227218,-2.538383,-0.326342,0.194134,0.180527,0.0,18.0,78.0,164.0,28.0,0.0
571539,-1.204974,1.224183,-2.543331,-0.268201,0.025139,0.225428,0.0,18.0,78.0,164.0,28.0,0.0
571540,-1.189125,1.227599,-2.561197,-0.15198,-0.100721,0.198434,0.0,18.0,78.0,164.0,28.0,0.0
571541,-1.159604,1.237208,-2.595744,0.062041,-0.044629,0.171152,0.0,18.0,78.0,164.0,28.0,0.0
571542,-1.115131,1.247499,-2.648826,0.185118,0.049435,0.036173,0.0,18.0,78.0,164.0,28.0,0.0
571543,-1.075844,1.252732,-2.6975860000000003,0.199055,0.157423,0.016133,0.0,18.0,78.0,164.0,28.0,0.0
571544,-1.067573,1.253183,-2.716087,0.239663,0.330385,0.107293,0.0,18.0,78.0,164.0,28.0,0.0
571545,-1.095873,1.252212,-2.697321,0.316519,0.413226,0.175674,0.0,18.0,78.0,164.0,28.0,0.0
571546,-1.15467,1.25334,-2.646626,0.381303,0.585088,0.163401,0.0,18.0,78.0,164.0,28.0,0.0
571547,-1.215601,1.254792,-2.593116,0.286791,0.463073,0.083199,0.0,18.0,78.0,164.0,28.0,0.0
571548,-1.243513,1.251975,-2.569322,0.230536,0.321096,0.026676,0.0,18.0,78.0,164.0,28.0,0.0
571549,-1.227511,1.243319,-2.57785,0.061994000000000014,-0.675763,-0.17841,0.0,18.0,78.0,164.0,28.0,0.0
571550,-1.151509,1.230054,-2.637317,-0.466246,-1.615797,-0.5282479999999999,0.0,18.0,78.0,164.0,28.0,0.0
571551,-1.0712,1.2148139999999998,-2.711291,-0.709893,-1.7915009999999998,-0.402581,0.0,18.0,78.0,164.0,28.0,0.0
571552,-1.082029,1.206103,-2.711465,-0.090783,-0.728441,0.064111,0.0,18.0,78.0,164.0,28.0,0.0
571553,-1.144383,1.201282,-2.672029,0.059184,0.07798,0.12338699999999997,0.0,18.0,78.0,164.0,28.0,0.0
571554,-1.226605,1.200668,-2.6145150000000004,0.052829,0.35437,0.087938,0.0,18.0,78.0,164.0,28.0,0.0
571555,-1.27778,1.2066,-2.574302,-0.06897400000000001,0.558312,-0.171244,0.0,18.0,78.0,164.0,28.0,0.0
571556,-1.274184,1.211074,-2.576249,-0.06584,0.608358,-0.292641,0.0,18.0,78.0,164.0,28.0,0.0
571557,-1.227308,1.212276,-2.614501,-0.067192,0.556244,-0.260818,0.0,18.0,78.0,164.0,28.0,0.0
571558,-1.162207,1.213254,-2.6701900000000003,-0.054905,0.533088,-0.204906,0.0,18.0,78.0,164.0,28.0,0.0
571559,-1.100236,1.215457,-2.72273,0.031806,0.513029,-0.153504,0.0,18.0,78.0,164.0,28.0,0.0
571560,-1.058011,1.2200959999999998,-2.753756,0.121481,0.463074,-0.051429,0.0,18.0,78.0,164.0,28.0,0.0
571561,-1.052924,1.227025,-2.746179,0.078627,0.228035,-0.0087,0.0,18.0,78.0,164.0,28.0,0.0
571562,-1.089137,1.235888,-2.695812,-0.010151,-0.169939,0.048677,0.0,18.0,78.0,164.0,28.0,0.0
571563,-1.152853,1.243765,-2.617485,0.084139,-0.330725,0.218418,0.0,18.0,78.0,164.0,28.0,0.0
571564,-1.221675,1.247482,-2.537081,0.18645,-0.289514,0.257935,0.0,18.0,78.0,164.0,28.0,0.0
571565,-1.267696,1.251142,-2.482994,0.456267,-0.08268400000000001,0.417671,0.0,18.0,78.0,164.0,28.0,0.0
571566,-1.283323,1.260636,-2.465896,0.466799,-0.024232,0.397505,0.0,18.0,78.0,164.0,28.0,0.0
571567,-1.255147,1.273976,-2.494382,0.17808,0.119678,0.215942,0.0,18.0,78.0,164.0,28.0,0.0
571568,-1.186034,1.287192,-2.565159,0.039475,-0.014831,0.23188000000000006,0.0,18.0,78.0,164.0,28.0,0.0
571569,-1.107726,1.298094,-2.644342,-0.324817,-0.441326,0.123276,0.0,18.0,78.0,164.0,28.0,0.0
571570,-1.0163950000000002,1.298271,-2.729984,-0.52282,-0.968562,-0.214547,0.0,18.0,78.0,164.0,28.0,0.0
571571,-0.986696,1.285513,-2.758848,-0.215946,-0.773221,-0.236236,0.0,18.0,78.0,164.0,28.0,0.0
571572,-1.033817,1.275376,-2.710277,-0.253422,-0.103806,-0.252171,0.0,18.0,78.0,164.0,28.0,0.0
571573,-1.097718,1.269903,-2.638773,-0.125219,0.199579,-0.25263800000000003,0.0,18.0,78.0,164.0,28.0,0.0
571574,-1.160348,1.266703,-2.571678,-0.05174,0.32466300000000003,-0.074501,0.0,18.0,78.0,164.0,28.0,0.0
571575,-1.2142620000000002,1.268072,-2.515997,-0.114033,0.343856,0.026043,0.0,18.0,78.0,164.0,28.0,0.0
571576,-1.245131,1.271587,-2.486557,-0.09781,0.359455,0.099427,0.0,18.0,78.0,164.0,28.0,0.0
571577,-1.246142,1.2751,-2.489853,-0.03141,0.29185,0.143559,0.0,18.0,78.0,164.0,28.0,0.0
571578,-1.2257129999999998,1.27756,-2.510226,-0.065322,0.150886,0.101372,0.0,18.0,78.0,164.0,28.0,0.0
571579,-1.19003,1.279874,-2.540994,-0.073405,0.016909,0.024496,0.0,18.0,78.0,164.0,28.0,0.0
571580,-1.14466,1.283823,-2.583968,-0.007481,-0.118868,-0.011366,0.0,18.0,78.0,164.0,28.0,0.0
571581,-1.096432,1.287588,-2.636902,0.105129,-0.122172,-0.013713,0.0,18.0,78.0,164.0,28.0,0.0
571582,-1.065302,1.288809,-2.679255,0.300236,0.156824,0.13505599999999998,0.0,18.0,78.0,164.0,28.0,0.0
571583,-1.075143,1.28791,-2.684005,0.263126,0.444522,0.270836,0.0,18.0,78.0,164.0,28.0,0.0
571584,-1.1355030000000002,1.288288,-2.639317,0.294496,0.6683060000000001,0.29953,0.0,18.0,78.0,164.0,28.0,0.0
571585,-1.221841,1.290277,-2.564808,0.276884,0.7620899999999999,0.142016,0.0,18.0,78.0,164.0,28.0,0.0
571586,-1.281217,1.291998,-2.508201,0.221375,0.590766,-0.016578,0.0,18.0,78.0,164.0,28.0,0.0
571587,-1.284674,1.289517,-2.499469,0.108531,0.193413,-0.031099,0.0,18.0,78.0,164.0,28.0,0.0
571588,-1.246456,1.281406,-2.523425,-2.5e-05,-0.603823,-0.056389,0.0,18.0,78.0,164.0,28.0,0.0
571589,-1.184028,1.269052,-2.565103,-0.524699,-1.451018,-0.375963,0.0,18.0,78.0,164.0,28.0,0.0
571590,-1.108696,1.253163,-2.621608,-0.690396,-1.626439,-0.385579,0.0,18.0,78.0,164.0,28.0,0.0
571591,-1.070589,1.236854,-2.646959,-0.220781,-0.874868,0.016796000000000002,0.0,18.0,78.0,164.0,28.0,0.0
571592,-1.076132,1.228437,-2.639226,-0.027104000000000003,-0.220236,0.027987,0.0,18.0,78.0,164.0,28.0,0.0
571593,-1.14302,1.226473,-2.586227,0.015972999999999998,0.2842,-0.038789,0.0,18.0,78.0,164.0,28.0,0.0
571594,-1.229812,1.228722,-2.510942,-0.051702,0.5511,-0.150617,0.0,18.0,78.0,164.0,28.0,0.0
571595,-1.269551,1.228897,-2.471668,-0.015244,0.608822,-0.249189,0.0,18.0,78.0,164.0,28.0,0.0
571596,-1.246583,1.225468,-2.4862580000000003,-0.006221,0.517334,-0.241765,0.0,18.0,78.0,164.0,28.0,0.0
571597,-1.18738,1.221124,-2.53252,-0.012503,0.518083,-0.164679,0.0,18.0,78.0,164.0,28.0,0.0
571598,-1.131764,1.220748,-2.57321,0.07505099999999999,0.530604,-0.086367,0.0,18.0,78.0,164.0,28.0,0.0
571599,-1.100502,1.225325,-2.590939,0.15773900000000002,0.431013,0.004382,0.0,18.0,78.0,164.0,28.0,0.0
571600,-1.102465,1.234278,-2.580042,0.151319,0.132936,0.06780599999999999,0.0,18.0,78.0,164.0,28.0,0.0
571601,-1.140421,1.244759,-2.536791,0.153661,-0.169762,0.132507,0.0,18.0,78.0,164.0,28.0,0.0
571602,-1.20248,1.250381,-2.468298,0.258205,-0.292,0.235509,0.0,18.0,78.0,164.0,28.0,0.0
571603,-1.263696,1.251061,-2.399742,0.36656,-0.28704,0.307488,0.0,18.0,78.0,164.0,28.0,0.0
571604,-1.291462,1.253321,-2.367759,0.360092,-0.213181,0.336018,0.0,18.0,78.0,164.0,28.0,0.0
571605,-1.26625,1.259033,-2.394492,0.191298,-0.013324,0.289299,0.0,18.0,78.0,164.0,28.0,0.0
571606,-1.205194,1.263126,-2.460543,-0.083299,0.158867,0.265488,0.0,18.0,78.0,164.0,28.0,0.0
571607,-1.145262,1.26814,-2.524507,-0.42964,-0.251751,0.374633,0.0,18.0,78.0,164.0,28.0,0.0
571608,-1.101618,1.27518,-2.565248,-0.576307,-0.459515,0.244509,0.0,18.0,78.0,164.0,28.0,0.0
571609,-1.070154,1.281403,-2.586119,-0.642204,-0.525103,-0.041213,0.0,18.0,78.0,164.0,28.0,0.0
571610,-1.057857,1.286799,-2.594635,-0.003001,-0.128939,-0.223486,0.0,18.0,78.0,164.0,28.0,0.0
571611,-1.070966,1.28993,-2.580418,-0.003859000000000001,-0.128067,-0.228139,0.0,18.0,78.0,164.0,28.0,0.0
571612,-1.09105,1.291239,-2.553259,0.159021,0.142879,-0.230733,0.0,18.0,78.0,164.0,28.0,0.0
571613,-1.118019,1.288125,-2.515512,0.014559,0.299379,-0.098115,0.0,18.0,78.0,164.0,28.0,0.0
571614,-1.1498959999999998,1.281807,-2.4740330000000004,0.023853,0.29759800000000003,-0.103693,0.0,18.0,78.0,164.0,28.0,0.0
571615,-1.17552,1.276742,-2.443975,-0.129173,0.28688,0.094109,0.0,18.0,78.0,164.0,28.0,0.0
571616,-1.183154,1.2744719999999998,-2.4346400000000004,-0.168783,-0.00919,0.101568,0.0,18.0,78.0,164.0,28.0,0.0
571617,-1.166607,1.273378,-2.446752,-0.177206,-0.089436,0.077201,0.0,18.0,78.0,164.0,28.0,0.0
571618,-1.117538,1.271813,-2.491245,-0.169005,-0.168982,0.040533,0.0,18.0,78.0,164.0,28.0,0.0
571619,-1.040436,1.270467,-2.570656,-0.07900700000000001,-0.096595,0.019646,0.0,18.0,78.0,164.0,28.0,0.0
571620,-0.9691,1.269778,-2.651127,0.080923,0.037371,0.023346,0.0,18.0,78.0,164.0,28.0,0.0
571621,-0.934625,1.2714,-2.6949110000000003,0.118379,0.213693,0.094471,0.0,18.0,78.0,164.0,28.0,0.0
571622,-0.943924,1.276289,-2.6914580000000004,0.158203,0.420782,0.315253,0.0,18.0,78.0,164.0,28.0,0.0
571623,-0.99902,1.287598,-2.64228,0.230235,0.5376350000000001,0.370372,0.0,18.0,78.0,164.0,28.0,0.0
571624,-1.083524,1.301635,-2.5619490000000003,0.240462,0.5384720000000001,0.233004,0.0,18.0,78.0,164.0,28.0,0.0
571625,-1.147366,1.307552,-2.492075,0.147231,0.390706,0.001579,0.0,18.0,78.0,164.0,28.0,0.0
571626,-1.166711,1.300758,-2.455804,0.12604500000000002,0.139084,-0.197582,0.0,18.0,78.0,164.0,28.0,0.0
571627,-1.161571,1.288172,-2.444617,0.261307,-0.477066,-0.141638,0.0,18.0,78.0,164.0,28.0,0.0
571628,-1.120321,1.276949,-2.476885,-0.092273,-1.308855,-0.35425,0.0,18.0,78.0,164.0,28.0,0.0
571629,-1.073354,1.263545,-2.518343,-0.334328,-1.483782,-0.30198,0.0,18.0,78.0,164.0,28.0,0.0
571630,-1.063502,1.251212,-2.531094,-0.100318,-0.421087,0.06488200000000001,0.0,18.0,78.0,164.0,28.0,0.0
571631,-1.0951110000000002,1.247005,-2.51786,-0.038937,-0.082741,0.08546799999999999,0.0,18.0,78.0,164.0,28.0,0.0
571632,-1.16667,1.250948,-2.470884,-0.019989,0.584598,0.039385,0.0,18.0,78.0,164.0,28.0,0.0
571633,-1.234747,1.253685,-2.416586,-0.086358,0.712896,-0.090432,0.0,18.0,78.0,164.0,28.0,0.0
571634,-1.2491139999999998,1.248381,-2.402647,-0.10406,0.6198899999999999,-0.185609,0.0,18.0,78.0,164.0,28.0,0.0
571635,-1.209771,1.23911,-2.434084,-0.109662,0.463882,-0.177842,0.0,18.0,78.0,164.0,28.0,0.0
571636,-1.158571,1.232344,-2.472928,-0.105149,0.450304,-0.143347,0.0,18.0,78.0,164.0,28.0,0.0
571637,-1.12236,1.233353,-2.493942,0.032869,0.455323,-0.08595900000000001,0.0,18.0,78.0,164.0,28.0,0.0
571638,-1.114768,1.243421,-2.4879330000000004,0.14485399999999998,0.329458,-0.006759,0.0,18.0,78.0,164.0,28.0,0.0
571639,-1.144091,1.261366,-2.4496,0.15776500000000002,0.005348,0.049638,0.0,18.0,78.0,164.0,28.0,0.0
571640,-1.195957,1.2793219999999998,-2.391487,0.267074,-0.248447,0.17063299999999998,0.0,18.0,78.0,164.0,28.0,0.0
571641,-1.261399,1.2911290000000002,-2.3216,0.380005,-0.351002,0.305829,0.0,18.0,78.0,164.0,28.0,0.0
571642,-1.318926,1.298757,-2.26012,0.395102,-0.265901,0.414126,0.0,18.0,78.0,164.0,28.0,0.0
571643,-1.331599,1.306402,-2.246252,0.272571,-0.112111,0.366398,0.0,18.0,78.0,164.0,28.0,0.0
571644,-1.282539,1.311903,-2.295633,0.005834000000000001,0.01509,0.221867,0.0,18.0,78.0,164.0,28.0,0.0
571645,-1.209731,1.314496,-2.368641,-0.261947,-0.114193,0.203867,0.0,18.0,78.0,164.0,28.0,0.0
571646,-1.13499,1.314165,-2.4392080000000003,-0.6097640000000001,-0.617604,0.123788,0.0,18.0,78.0,164.0,28.0,0.0
571647,-1.06862,1.31166,-2.497107,-0.7434270000000001,-0.7824270000000001,-0.072761,0.0,18.0,78.0,164.0,28.0,0.0
571648,-1.04934,1.310507,-2.515151,-0.227546,-0.347771,-0.143323,0.0,18.0,78.0,164.0,28.0,0.0
571649,-1.082011,1.311883,-2.479959,-0.027325,-0.008291,-0.160094,0.0,18.0,78.0,164.0,28.0,0.0
571650,-1.12671,1.316794,-2.42785,0.078984,0.116703,-0.214515,0.0,18.0,78.0,164.0,28.0,0.0
571651,-1.190359,1.319898,-2.358981,0.246372,0.396592,-0.140285,0.0,18.0,78.0,164.0,28.0,0.0
571652,-1.263787,1.317277,-2.282709,0.137639,0.410846,-0.069061,0.0,18.0,78.0,164.0,28.0,0.0
571653,-1.306583,1.309937,-2.23737,0.054651,0.35011,-0.040882,0.0,18.0,78.0,164.0,28.0,0.0
571654,-1.297432,1.3026209999999998,-2.243078,-0.118925,0.14286,0.058285,0.0,18.0,78.0,164.0,28.0,0.0
571655,-1.261167,1.297129,-2.274317,-0.151298,0.08174400000000001,0.1083,0.0,18.0,78.0,164.0,28.0,0.0
571656,-1.222685,1.296047,-2.310312,-0.17423,0.05371,0.145643,0.0,18.0,78.0,164.0,28.0,0.0
571657,-1.1824709999999998,1.301244,-2.354162,-0.141316,0.01963,0.113199,0.0,18.0,78.0,164.0,28.0,0.0
571658,-1.127791,1.308685,-2.414154,-0.030818,0.06131900000000001,-0.035388,0.0,18.0,78.0,164.0,28.0,0.0
571659,-1.067228,1.313469,-2.478869,0.030476,0.11371,-0.107135,0.0,18.0,78.0,164.0,28.0,0.0
571660,-1.023674,1.3137299999999998,-2.526701,0.058378,0.223289,-0.061927,0.0,18.0,78.0,164.0,28.0,0.0
571661,-1.023275,1.311335,-2.531655,0.063935,0.370398,0.165852,0.0,18.0,78.0,164.0,28.0,0.0
571662,-1.075625,1.312718,-2.4865310000000003,0.115666,0.398675,0.303414,0.0,18.0,78.0,164.0,28.0,0.0
571663,-1.16308,1.320385,-2.405892,0.200237,0.379409,0.451705,0.0,18.0,78.0,164.0,28.0,0.0
571664,-1.240975,1.329412,-2.326992,0.093775,0.018905,0.014396,0.0,18.0,78.0,164.0,28.0,0.0
571665,-1.250336,1.330936,-2.303319,0.047368,-0.137699,-0.110704,0.0,18.0,78.0,164.0,28.0,0.0
571666,-1.19507,1.322139,-2.340051,0.034338,-0.303766,-0.162004,0.0,18.0,78.0,164.0,28.0,0.0
571667,-1.141438,1.307592,-2.38179,0.013384,-0.991729,-0.106803,0.0,18.0,78.0,164.0,28.0,0.0
571668,-1.120967,1.294353,-2.398582,0.022609,-0.995258,-0.096435,0.0,18.0,78.0,164.0,28.0,0.0
571669,-1.132948,1.281216,-2.382264,-0.27718400000000004,-0.703166,-0.034271,0.0,18.0,78.0,164.0,28.0,0.0
571670,-1.1562629999999998,1.2723719999999998,-2.350712,-0.239188,-0.189157,-0.050824,0.0,18.0,78.0,164.0,28.0,0.0
571671,-1.200758,1.268424,-2.301471,-0.134433,0.180661,-0.037712,0.0,18.0,78.0,164.0,28.0,0.0
571672,-1.258047,1.267228,-2.240223,-0.082914,0.438376,-0.040097,0.0,18.0,78.0,164.0,28.0,0.0
571673,-1.29236,1.268172,-2.199102,-0.001203,0.460417,-0.103547,0.0,18.0,78.0,164.0,28.0,0.0
571674,-1.2815299999999998,1.270957,-2.200935,0.074766,0.33110100000000003,-0.189723,0.0,18.0,78.0,164.0,28.0,0.0
571675,-1.232879,1.275793,-2.239627,0.10656,0.24327,-0.227516,0.0,18.0,78.0,164.0,28.0,0.0
571676,-1.169875,1.283066,-2.292852,0.129849,0.27262600000000003,-0.18093,0.0,18.0,78.0,164.0,28.0,0.0
571677,-1.118048,1.290156,-2.335395,0.114345,0.303835,-0.123998,0.0,18.0,78.0,164.0,28.0,0.0
571678,-1.100271,1.29601,-2.345734,0.098666,0.303105,-0.07285599999999999,0.0,18.0,78.0,164.0,28.0,0.0
571679,-1.124601,1.301486,-2.31549,-0.040883,0.11578,0.051104,0.0,18.0,78.0,164.0,28.0,0.0
571680,-1.182875,1.305791,-2.252305,-0.054011,0.033770999999999995,0.040488,0.0,18.0,78.0,164.0,28.0,0.0
571681,-1.2497,1.306732,-2.181202,-0.047624,-0.044505,0.029956,0.0,18.0,78.0,164.0,28.0,0.0
571682,-1.291689,1.3056709999999998,-2.1349720000000003,0.113216,-0.055769000000000006,0.062189,0.0,18.0,78.0,164.0,28.0,0.0
571683,-1.2903950000000002,1.308247,-2.133265,0.167679,-0.045346,0.107023,0.0,18.0,78.0,164.0,28.0,0.0
571684,-1.255169,1.317635,-2.1692560000000003,0.163979,-0.191146,0.12525799999999998,0.0,18.0,78.0,164.0,28.0,0.0
571685,-1.195623,1.329179,-2.232588,-0.016628999999999998,-0.22375,0.15156,0.0,18.0,78.0,164.0,28.0,0.0
571686,-1.123993,1.339743,-2.310577,-0.161063,-0.028772,0.203555,0.0,18.0,78.0,164.0,28.0,0.0
571687,-1.068853,1.349224,-2.37076,-0.146519,0.006086,0.169919,0.0,18.0,78.0,164.0,28.0,0.0
571688,-1.042348,1.354361,-2.394922,-0.175003,-0.277024,0.236593,0.0,18.0,78.0,164.0,28.0,0.0
571689,-1.024303,1.354592,-2.402083,-0.259272,-0.4704100000000001,0.206753,0.0,18.0,78.0,164.0,28.0,0.0
571690,-0.9952,1.351884,-2.417045,-0.290268,-0.721971,-0.113762,0.0,18.0,78.0,164.0,28.0,0.0
571691,-0.993407,1.345795,-2.413222,-0.028528,-0.308623,-0.256997,0.0,18.0,78.0,164.0,28.0,0.0
571692,-1.011084,1.336736,-2.395126,0.034552,-0.192612,-0.33063400000000004,0.0,18.0,78.0,164.0,28.0,0.0
571693,-1.021343,1.326196,-2.388398,0.20387,0.24847800000000006,-0.288658,0.0,18.0,78.0,164.0,28.0,0.0
571694,-1.030431,1.316473,-2.386686,0.199953,0.44606,-0.129153,0.0,18.0,78.0,164.0,28.0,0.0
571695,-1.042425,1.3091620000000002,-2.384342,0.143905,0.483333,-0.038464,0.0,18.0,78.0,164.0,28.0,0.0
571696,-1.056952,1.305226,-2.380118,-0.121454,0.462563,0.122789,0.0,18.0,78.0,164.0,28.0,0.0
571697,-1.070818,1.30455,-2.3727400000000003,-0.300404,0.378446,0.134507,0.0,18.0,78.0,164.0,28.0,0.0
571698,-1.0719379999999998,1.307477,-2.372737,-0.371928,0.32863000000000003,0.107567,0.0,18.0,78.0,164.0,28.0,0.0
571699,-1.049069,1.314404,-2.394164,-0.452019,0.222377,-0.014599,0.0,18.0,78.0,164.0,28.0,0.0
571700,-0.999482,1.325148,-2.443309,-0.387139,0.201761,-0.083811,0.0,18.0,78.0,164.0,28.0,0.0
571701,-0.930443,1.338249,-2.514078,-0.245298,0.214293,-0.174649,0.0,18.0,78.0,164.0,28.0,0.0
571702,-0.8574940000000001,1.3516860000000002,-2.589579,-0.098126,0.25493000000000005,-0.171124,0.0,18.0,78.0,164.0,28.0,0.0
571703,-0.800446,1.364997,-2.647818,-0.086636,0.284181,-0.097515,0.0,18.0,78.0,164.0,28.0,0.0
571704,-0.768231,1.378235,-2.676944,-0.261567,0.260875,-0.050958,0.0,18.0,78.0,164.0,28.0,0.0
571705,-0.75479,1.390959,-2.67923,-0.443231,0.2641,-0.017703999999999998,0.0,18.0,78.0,164.0,28.0,0.0
571706,-0.75595,1.3998959999999998,-2.6569700000000003,-0.447744,0.204335,-0.061116,0.0,18.0,78.0,164.0,28.0,0.0
571707,-0.777413,1.403593,-2.607002,-0.416681,0.205475,-0.149482,0.0,18.0,78.0,164.0,28.0,0.0
571708,-0.820749,1.405809,-2.532783,-0.39398,0.238282,-0.211697,0.0,18.0,78.0,164.0,28.0,0.0
571709,-0.891847,1.412491,-2.433532,0.019393,-0.04853,0.252347,0.0,18.0,78.0,164.0,28.0,0.0
571710,-1.023333,1.4271049999999998,-2.285367,0.018973,-0.046332,0.227889,0.0,18.0,78.0,164.0,28.0,0.0
571711,-1.18137,1.442482,-2.11742,0.171131,-0.622693,0.852403,0.0,18.0,78.0,164.0,28.0,0.0
571712,-1.244702,1.450084,-2.040921,0.263422,-0.556776,0.701696,0.0,18.0,78.0,164.0,28.0,0.0
571713,-1.201156,1.439766,-2.067165,0.392459,-0.6236689999999999,0.6767380000000001,0.0,18.0,78.0,164.0,28.0,0.0
571714,-1.128818,1.4030200000000002,-2.109808,0.120754,-0.807743,0.178425,0.0,18.0,78.0,164.0,28.0,0.0
571715,-1.053607,1.352856,-2.148126,-0.048818,-1.280964,-0.31101100000000004,0.0,18.0,78.0,164.0,28.0,0.0
571716,-1.021327,1.308739,-2.1472900000000004,-0.393994,-1.1175,-0.232299,0.0,18.0,78.0,164.0,28.0,0.0
571717,-1.022858,1.27849,-2.115817,-0.698954,-0.381163,0.17731,0.0,18.0,78.0,164.0,28.0,0.0
571718,-1.034968,1.253993,-2.064235,-0.6534989999999999,0.208079,0.260303,0.0,18.0,78.0,164.0,28.0,0.0
571719,-1.059824,1.238181,-1.992151,-0.637472,0.508287,0.215913,0.0,18.0,78.0,164.0,28.0,0.0
571720,-1.099615,1.241015,-1.904119,-0.392493,0.633293,0.22741,0.0,18.0,78.0,164.0,28.0,0.0
571721,-1.142441,1.260617,-1.814196,-0.100396,0.622872,0.22280300000000006,0.0,18.0,78.0,164.0,28.0,0.0
571722,-1.182191,1.289501,-1.725414,0.033821,0.5582159999999999,0.219664,0.0,18.0,78.0,164.0,28.0,0.0
571723,-1.202019,1.320215,-1.64872,0.274052,0.30337800000000004,0.213572,0.0,18.0,78.0,164.0,28.0,0.0
571724,-1.188259,1.346523,-1.599923,0.357172,-0.034428,0.022173,0.0,18.0,78.0,164.0,28.0,0.0
571725,-1.141976,1.360935,-1.581008,0.334464,-0.078199,-0.030559,0.0,18.0,78.0,164.0,28.0,0.0
571726,-1.0788950000000002,1.364662,-1.578383,0.298741,-0.049796,-0.06038300000000001,0.0,18.0,78.0,164.0,28.0,0.0
571727,-1.023405,1.366868,-1.571967,0.139113,0.291565,-0.00891,0.0,18.0,78.0,164.0,28.0,0.0
571728,-1.002027,1.371987,-1.541552,0.124203,0.316774,0.037929,0.0,18.0,78.0,164.0,28.0,0.0
571729,-1.0196379999999998,1.379162,-1.481032,-0.021976,0.2665,0.08692899999999999,0.0,18.0,78.0,164.0,28.0,0.0
571730,-1.033901,1.384081,-1.431495,-0.149829,0.000319,-0.032338,0.0,18.0,78.0,164.0,28.0,0.0
571731,-0.991995,1.384715,-1.4457870000000002,-0.184879,-0.135443,-0.114276,0.0,18.0,78.0,164.0,28.0,0.0
571732,-0.8775139999999999,1.378751,-1.536475,-0.240111,-0.22865,-0.232391,0.0,18.0,78.0,164.0,28.0,0.0
571733,-0.759459,1.369982,-1.633608,-0.290819,-0.012619,-0.172145,0.0,18.0,78.0,164.0,28.0,0.0
571734,-0.715496,1.368711,-1.6556349999999995,-0.225569,0.034872,0.007084,0.0,18.0,78.0,164.0,28.0,0.0
571735,-0.746273,1.372816,-1.604752,-0.196587,0.07121,0.197181,0.0,18.0,78.0,164.0,28.0,0.0
571736,-0.747444,1.371874,-1.581482,-0.218708,-0.42742,0.111857,0.0,18.0,78.0,164.0,28.0,0.0
571737,-0.6752819999999999,1.361995,-1.629047,-0.342249,-0.549872,0.107642,0.0,18.0,78.0,164.0,28.0,0.0
571738,-0.5997939999999999,1.345796,-1.680595,-0.211626,-0.415404,0.53605,0.0,18.0,78.0,164.0,28.0,0.0
571739,-0.581665,1.350421,-1.6873479999999998,0.032522,-0.3759,0.840457,0.0,18.0,78.0,164.0,28.0,0.0
571740,-0.606472,1.385626,-1.659475,0.090754,-0.518926,0.8377120000000001,0.0,18.0,78.0,164.0,28.0,0.0
571741,-0.637406,1.41703,-1.611016,0.059518,-0.198551,0.533194,0.0,18.0,78.0,164.0,28.0,0.0
571742,-0.66742,1.422022,-1.540596,-0.054143,0.208741,0.225531,0.0,18.0,78.0,164.0,28.0,0.0
571743,-0.7526579999999999,1.41532,-1.405942,-0.202299,0.236366,0.079877,0.0,18.0,78.0,164.0,28.0,0.0
571744,-0.87513,1.4103450000000002,-1.233732,-0.142989,0.181201,0.034628,0.0,18.0,78.0,164.0,28.0,0.0
571745,-1.004472,1.406796,-1.0571469999999998,-0.020216,0.204066,0.12265,0.0,18.0,78.0,164.0,28.0,0.0
571746,-1.10875,1.406094,-0.907779,0.014772,0.201937,0.125875,0.0,18.0,78.0,164.0,28.0,0.0
571747,-1.189948,1.412829,-0.785563,0.077567,0.09401,0.103311,0.0,18.0,78.0,164.0,28.0,0.0
571748,-1.259833,1.424885,-0.6815760000000001,0.102218,0.074289,0.065887,0.0,18.0,78.0,164.0,28.0,0.0
571749,-1.327675,1.435725,-0.588275,0.082593,0.079408,0.018464,0.0,18.0,78.0,164.0,28.0,0.0
571750,-1.389378,1.439941,-0.508632,-0.0063490000000000005,0.102123,0.023186,0.0,18.0,78.0,164.0,28.0,0.0
571751,-1.44119,1.4367379999999998,-0.443732,-0.167879,0.160171,0.100003,0.0,18.0,78.0,164.0,28.0,0.0
571752,-1.489859,1.428595,-0.382915,-0.325568,0.212669,0.151806,0.0,18.0,78.0,164.0,28.0,0.0
571753,-1.531468,1.420332,-0.324896,-0.350858,0.24949,0.126864,0.0,18.0,78.0,164.0,28.0,0.0
571754,-1.5651,1.415584,-0.269121,-0.252895,0.280001,0.056926,0.0,18.0,78.0,164.0,28.0,0.0
571755,-1.590723,1.413999,-0.218445,-0.168182,0.349854,-0.046522,0.0,18.0,78.0,164.0,28.0,0.0
571756,-1.603257,1.415988,-0.181355,-0.09558,0.355213,-0.104247,0.0,18.0,78.0,164.0,28.0,0.0
571757,-1.591839,1.420191,-0.168632,-0.095003,0.239398,-0.173811,0.0,18.0,78.0,164.0,28.0,0.0
571758,-1.552499,1.423976,-0.186208,-0.12274000000000003,0.043868,-0.196833,0.0,18.0,78.0,164.0,28.0,0.0
571759,-1.514452,1.424705,-0.209274,-0.168208,-0.013674,-0.15449300000000002,0.0,18.0,78.0,164.0,28.0,0.0
571760,-1.506433,1.423567,-0.206832,-0.247829,-0.049393,-0.024563,0.0,18.0,78.0,164.0,28.0,0.0
571761,-1.52731,1.42214,-0.172756,-0.315773,-0.071439,0.015593,0.0,18.0,78.0,164.0,28.0,0.0
571762,-1.543166,1.419216,-0.136302,-0.509835,0.002404,0.012838,0.0,18.0,78.0,164.0,28.0,0.0
571763,-1.556957,1.414529,-0.098733,-0.525576,-0.05198,0.019777,0.0,18.0,78.0,164.0,28.0,0.0
571764,-1.574349,1.409198,-0.057681,-0.5227390000000001,-0.102155,-0.052375,0.0,18.0,78.0,164.0,28.0,0.0
571765,-1.621861,1.402854,0.010039,-0.347323,-0.14793499999999998,0.244277,0.0,18.0,78.0,164.0,28.0,0.0
571766,-1.714971,1.3936620000000002,0.122562,-0.122714,-0.102088,0.503892,0.0,18.0,78.0,164.0,28.0,0.0
571767,-1.802126,1.379748,0.23170900000000005,0.080316,-0.108358,0.5472279999999999,0.0,18.0,78.0,164.0,28.0,0.0
571768,-1.833143,1.358053,0.290227,0.25208600000000003,-0.099785,0.502985,0.0,18.0,78.0,164.0,28.0,0.0
571769,-1.809035,1.328538,0.30101700000000003,0.310053,-0.149822,0.397447,0.0,18.0,78.0,164.0,28.0,0.0
571770,-1.7473439999999998,1.2970620000000002,0.281839,0.315382,-0.23378,0.341547,0.0,18.0,78.0,164.0,28.0,0.0
571771,-1.665007,1.2688620000000002,0.244363,0.336318,-0.394862,0.282697,0.0,18.0,78.0,164.0,28.0,0.0
571772,-1.58071,1.24612,0.204596,-0.010739,-0.692459,-0.128589,0.0,18.0,78.0,164.0,28.0,0.0
571773,-1.535346,1.231202,0.194801,-0.110767,-0.541149,-0.085774,0.0,18.0,78.0,164.0,28.0,0.0
571774,-1.52931,1.225522,0.204242,-0.117567,-0.346249,-0.026323000000000003,0.0,18.0,78.0,164.0,28.0,0.0
571775,-1.528547,1.223644,0.207039,0.003175,0.195747,0.045162,0.0,18.0,78.0,164.0,28.0,0.0
571776,-1.518082,1.224741,0.201668,-0.025063,0.257002,0.037997,0.0,18.0,78.0,164.0,28.0,0.0
571777,-1.508186,1.2280870000000002,0.202756,-0.060626,0.310271,0.039473,0.0,18.0,78.0,164.0,28.0,0.0
571778,-1.5146,1.2324469999999998,0.226345,0.090351,0.183035,0.133389,0.0,18.0,78.0,164.0,28.0,0.0
571779,-1.532427,1.236267,0.269089,0.097022,0.123749,0.097235,0.0,18.0,78.0,164.0,28.0,0.0
571780,-1.533654,1.241136,0.303087,0.07820099999999999,0.076905,0.027737,0.0,18.0,78.0,164.0,28.0,0.0
571781,-1.502228,1.247586,0.30695700000000004,0.018102,0.137994,-0.27043,0.0,18.0,78.0,164.0,28.0,0.0
571782,-1.447622,1.254063,0.282742,0.06318,0.194246,-0.274646,0.0,18.0,78.0,164.0,28.0,0.0
571783,-1.389078,1.258261,0.24848,0.125104,0.361485,-0.17446199999999998,0.0,18.0,78.0,164.0,28.0,0.0
571784,-1.342134,1.258874,0.223326,0.087279,0.508966,-0.094303,0.0,18.0,78.0,164.0,28.0,0.0
571785,-1.313303,1.257047,0.216516,0.046852,0.613445,-0.051307000000000005,0.0,18.0,78.0,164.0,28.0,0.0
571786,-1.295845,1.254116,0.225517,0.022208,0.615985,-0.038273,0.0,18.0,78.0,164.0,28.0,0.0
571787,-1.270765,1.248925,0.23387,0.026259,0.570471,0.004456,0.0,18.0,78.0,164.0,28.0,0.0
571788,-1.233554,1.241444,0.234414,0.028711,0.548532,0.032247000000000005,0.0,18.0,78.0,164.0,28.0,0.0
571789,-1.194676,1.233918,0.234581,0.045844,0.374791,0.002223,0.0,18.0,78.0,164.0,28.0,0.0
571790,-1.15837,1.228504,0.236131,0.059691,0.173967,-0.089327,0.0,18.0,78.0,164.0,28.0,0.0
571791,-1.121987,1.225174,0.233141,0.051162,0.05616,-0.113187,0.0,18.0,78.0,164.0,28.0,0.0
571792,-1.088793,1.221829,0.227696,0.094451,-0.097734,-0.109218,0.0,18.0,78.0,164.0,28.0,0.0
571793,-1.070723,1.218965,0.232367,0.216213,-0.06791,-0.078111,0.0,18.0,78.0,164.0,28.0,0.0
571794,-1.063063,1.21516,0.245629,0.272119,-0.022215,-0.051527,0.0,18.0,78.0,164.0,28.0,0.0
571795,-1.0530700000000002,1.208692,0.256805,0.378962,0.296787,-0.025677,0.0,18.0,78.0,164.0,28.0,0.0
571796,-1.0426879999999998,1.200738,0.26550100000000004,0.357585,0.5653020000000001,0.14998399999999998,0.0,18.0,78.0,164.0,28.0,0.0
571797,-1.050378,1.196929,0.279239,0.353129,0.633208,0.324984,0.0,18.0,78.0,164.0,28.0,0.0
571798,-1.0706870000000002,1.204354,0.305443,0.077667,-0.339433,0.5667949999999999,0.0,18.0,78.0,164.0,28.0,0.0
571799,-1.074723,1.222676,0.324847,-0.882433,-1.620943,0.613034,0.0,18.0,78.0,164.0,28.0,0.0
571800,-0.959881,1.2368290000000002,0.242138,-1.65451,-2.104506,0.33862600000000004,0.0,18.0,78.0,164.0,28.0,0.0
571801,-0.890174,1.244152,0.164752,-0.367016,-1.447483,0.4291100000000001,0.0,18.0,78.0,164.0,28.0,0.0
571802,-0.961895,1.265019,0.217745,0.018727,-0.161606,0.03918,0.0,18.0,78.0,164.0,28.0,0.0
571803,-1.046275,1.276129,0.296063,0.263804,0.290563,-0.223048,0.0,18.0,78.0,164.0,28.0,0.0
571804,-1.082639,1.275316,0.326863,0.418751,0.421903,-0.393478,0.0,18.0,78.0,164.0,28.0,0.0
571805,-1.092885,1.268889,0.346991,0.152292,0.349867,-0.323471,0.0,18.0,78.0,164.0,28.0,0.0
571806,-1.085279,1.261973,0.35482,-0.339001,0.089563,-0.118284,0.0,18.0,78.0,164.0,28.0,0.0
571807,-1.072018,1.262849,0.353814,-0.463663,0.000397,0.014736,0.0,18.0,78.0,164.0,28.0,0.0
571808,-1.076834,1.272951,0.357204,-0.384619,0.052635,0.206024,0.0,18.0,78.0,164.0,28.0,0.0
571809,-1.104981,1.287034,0.377539,-0.241021,0.058779,0.304942,0.0,18.0,78.0,164.0,28.0,0.0
571810,-1.12927,1.2969540000000002,0.405741,-0.184271,0.034806000000000004,0.254197,0.0,18.0,78.0,164.0,28.0,0.0
571811,-1.127278,1.301078,0.415155,-0.206523,0.106073,0.065265,0.0,18.0,78.0,164.0,28.0,0.0
571812,-1.12188,1.303083,0.415958,-0.169625,0.268883,-0.003399,0.0,18.0,78.0,164.0,28.0,0.0
571813,-1.150877,1.308319,0.445828,-0.112906,0.469168,0.031666,0.0,18.0,78.0,164.0,28.0,0.0
571814,-1.2178639999999998,1.317052,0.515791,-0.038949,0.610893,0.054003,0.0,18.0,78.0,164.0,28.0,0.0
571815,-1.298232,1.325444,0.6035659999999999,0.003643,0.6555529999999999,0.027557,0.0,18.0,78.0,164.0,28.0,0.0
571816,-1.34121,1.331843,0.658885,0.092838,0.554014,-0.018376,0.0,18.0,78.0,164.0,28.0,0.0
571817,-1.322992,1.335805,0.6547029999999999,0.104426,0.34377800000000003,-0.09791,0.0,18.0,78.0,164.0,28.0,0.0
571818,-1.275284,1.33651,0.618854,0.075294,0.154351,-0.113046,0.0,18.0,78.0,164.0,28.0,0.0
571819,-1.242343,1.336256,0.5953,-0.047089,0.039775,-0.071799,0.0,18.0,78.0,164.0,28.0,0.0
571820,-1.234896,1.335844,0.598938,-0.189685,0.018485,0.00695,0.0,18.0,78.0,164.0,28.0,0.0
571821,-1.240689,1.335477,0.61793,-0.258167,0.0258,0.04554,0.0,18.0,78.0,164.0,28.0,0.0
571822,-1.253044,1.334732,0.64384,-0.212601,0.039038,0.211737,0.0,18.0,78.0,164.0,28.0,0.0
571823,-1.286166,1.335769,0.686185,-0.054884,0.166874,0.431169,0.0,18.0,78.0,164.0,28.0,0.0
571824,-1.350602,1.339258,0.754275,0.18975,0.267336,0.495796,0.0,18.0,78.0,164.0,28.0,0.0
571825,-1.420092,1.3409,0.82589,0.360008,0.228298,0.336043,0.0,18.0,78.0,164.0,28.0,0.0
571826,-1.439588,1.335878,0.8563879999999999,0.29811,-0.065598,-0.26602800000000004,0.0,18.0,78.0,164.0,28.0,0.0
571827,-1.390566,1.32424,0.826047,0.273204,-0.246016,-0.312973,0.0,18.0,78.0,164.0,28.0,0.0
571828,-1.30842,1.307831,0.761598,0.28074,-0.515563,-0.276133,0.0,18.0,78.0,164.0,28.0,0.0
571829,-1.22734,1.287127,0.689104,-0.188737,-1.78467,-0.271068,0.0,18.0,78.0,164.0,28.0,0.0
571830,-1.222753,1.256674,0.690608,-0.722711,-0.955441,-0.055925,0.0,18.0,78.0,164.0,28.0,0.0
571831,-1.262319,1.2336120000000002,0.732258,-0.361007,-0.062765,-0.017817,0.0,18.0,78.0,164.0,28.0,0.0
571832,-1.338039,1.219963,0.8012100000000001,-0.099515,0.558395,0.049669,0.0,18.0,78.0,164.0,28.0,0.0
571833,-1.412118,1.217164,0.8733129999999999,-0.064948,0.7437090000000001,0.016648,0.0,18.0,78.0,164.0,28.0,0.0
571834,-1.437451,1.221471,0.909023,-0.07877200000000001,0.566679,-0.16026300000000002,0.0,18.0,78.0,164.0,28.0,0.0
571835,-1.399127,1.227345,0.888702,-0.042294,0.309594,-0.292866,0.0,18.0,78.0,164.0,28.0,0.0
571836,-1.318045,1.234348,0.823549,0.126199,0.185251,-0.212018,0.0,18.0,78.0,164.0,28.0,0.0
571837,-1.238356,1.243809,0.753798,0.156864,0.233437,-0.161846,0.0,18.0,78.0,164.0,28.0,0.0
571838,-1.1781780000000002,1.252748,0.70428,0.23527,0.26485,-0.04549,0.0,18.0,78.0,164.0,28.0,0.0
571839,-1.149833,1.255948,0.693928,0.187545,0.256919,0.009992,0.0,18.0,78.0,164.0,28.0,0.0
571840,-1.168913,1.250843,0.735625,0.051015,0.179993,0.037785,0.0,18.0,78.0,164.0,28.0,0.0
571841,-1.224541,1.242759,0.810183,0.00239,0.049521,0.052864,0.0,18.0,78.0,164.0,28.0,0.0
571842,-1.286035,1.237539,0.8817010000000001,0.059662,0.032644,0.022771,0.0,18.0,78.0,164.0,28.0,0.0
571843,-1.324164,1.237953,0.921878,0.368419,0.055759,0.112098,0.0,18.0,78.0,164.0,28.0,0.0
571844,-1.335316,1.246032,0.929695,0.433112,0.069629,0.280359,0.0,18.0,78.0,164.0,28.0,0.0
571845,-1.330894,1.259038,0.915988,0.395374,0.107374,0.35533400000000004,0.0,18.0,78.0,164.0,28.0,0.0
571846,-1.297852,1.276198,0.87303,0.028110000000000003,0.035181,0.319416,0.0,18.0,78.0,164.0,28.0,0.0
571847,-1.226216,1.294395,0.794798,-0.223022,-0.182259,0.304443,0.0,18.0,78.0,164.0,28.0,0.0
571848,-1.163569,1.307181,0.730642,-0.32124,-0.33615100000000003,0.305924,0.0,18.0,78.0,164.0,28.0,0.0
571849,-1.136206,1.3106520000000002,0.709001,-0.6226189999999999,-0.791155,-0.217163,0.0,18.0,78.0,164.0,28.0,0.0
571850,-1.113029,1.304597,0.690105,-0.314008,-0.692708,-0.493107,0.0,18.0,78.0,164.0,28.0,0.0
571851,-1.125609,1.2986719999999998,0.698693,-0.198828,-0.420938,-0.422458,0.0,18.0,78.0,164.0,28.0,0.0
571852,-1.177871,1.299206,0.751069,-0.032152,0.185575,-0.244292,0.0,18.0,78.0,164.0,28.0,0.0
571853,-1.24202,1.302999,0.816884,0.053058,0.296067,-0.183703,0.0,18.0,78.0,164.0,28.0,0.0
571854,-1.287081,1.307191,0.861585,0.045292,0.27881100000000003,-0.19901,0.0,18.0,78.0,164.0,28.0,0.0
571855,-1.288352,1.308654,0.8575219999999999,-0.046442,0.144319,-0.15956099999999998,0.0,18.0,78.0,164.0,28.0,0.0
571856,-1.252222,1.304887,0.8144819999999999,-0.096403,-0.027303,-0.073643,0.0,18.0,78.0,164.0,28.0,0.0
571857,-1.215492,1.299272,0.775385,-0.182836,-0.176743,-0.007323,0.0,18.0,78.0,164.0,28.0,0.0
571858,-1.192376,1.297259,0.751676,-0.268814,-0.229821,0.049091,0.0,18.0,78.0,164.0,28.0,0.0
571859,-1.183258,1.300369,0.73327,0.023391,-0.10523699999999997,0.203304,0.0,18.0,78.0,164.0,28.0,0.0
571860,-1.190995,1.304846,0.7226859999999999,0.147078,-0.022828,0.221562,0.0,18.0,78.0,164.0,28.0,0.0
571861,-1.22164,1.306561,0.730015,0.249864,0.251608,0.255204,0.0,18.0,78.0,164.0,28.0,0.0
571862,-1.275974,1.304674,0.760479,0.309395,0.564697,0.247157,0.0,18.0,78.0,164.0,28.0,0.0
571863,-1.331599,1.298011,0.7996939999999999,0.312154,0.7039449999999999,0.176313,0.0,18.0,78.0,164.0,28.0,0.0
571864,-1.36751,1.287966,0.830868,0.350852,1.06406,-0.001279,0.0,18.0,78.0,164.0,28.0,0.0
571865,-1.374013,1.277996,0.842931,0.418115,1.050991,-0.061674,0.0,18.0,78.0,164.0,28.0,0.0
571866,-1.364936,1.273242,0.84131,0.40915,0.948687,0.027012,0.0,18.0,78.0,164.0,28.0,0.0
571867,-1.360423,1.276423,0.8459620000000001,0.315569,0.043929,0.158118,0.0,18.0,78.0,164.0,28.0,0.0
571868,-1.31558,1.283703,0.825583,-0.7602359999999999,-0.894307,-0.644552,0.0,18.0,78.0,164.0,28.0,0.0
571869,-1.230378,1.292104,0.766145,-0.982559,-1.170649,-0.751617,0.0,18.0,78.0,164.0,28.0,0.0
571870,-1.197216,1.297792,0.7354729999999999,-0.320096,-1.510698,-0.252224,0.0,18.0,78.0,164.0,28.0,0.0
571871,-1.255038,1.296438,0.787053,-0.048958,-0.680162,0.161993,0.0,18.0,78.0,164.0,28.0,0.0
571872,-1.351822,1.290716,0.8758670000000001,0.019749,-0.36877,-0.023864,0.0,18.0,78.0,164.0,28.0,0.0
571873,-1.434867,1.278492,0.957552,0.076435,0.114626,-0.197511,0.0,18.0,78.0,164.0,28.0,0.0
571874,-1.458135,1.262602,0.989744,0.054446,0.632799,-0.183124,0.0,18.0,78.0,164.0,28.0,0.0
571875,-1.435775,1.25385,0.974878,0.077318,0.853634,-0.08813,0.0,18.0,78.0,164.0,28.0,0.0
571876,-1.405597,1.252915,0.946525,0.050972,0.763987,-0.015407,0.0,18.0,78.0,164.0,28.0,0.0
571877,-1.380323,1.261441,0.921259,0.088119,0.655533,0.030474,0.0,18.0,78.0,164.0,28.0,0.0
571878,-1.35861,1.275687,0.90503,0.18953,0.52484,-0.007311,0.0,18.0,78.0,164.0,28.0,0.0
571879,-1.352305,1.29269,0.910767,0.324888,0.27978400000000003,0.036065,0.0,18.0,78.0,164.0,28.0,0.0
571880,-1.356596,1.310863,0.928429,0.31719,-0.230156,0.125444,0.0,18.0,78.0,164.0,28.0,0.0
571881,-1.361748,1.328078,0.942026,0.249794,-0.373214,0.184303,0.0,18.0,78.0,164.0,28.0,0.0
571882,-1.337309,1.339943,0.923294,0.096658,-0.504876,0.338029,0.0,18.0,78.0,164.0,28.0,0.0
571883,-1.292001,1.345366,0.884968,-0.152091,-0.808322,0.554243,0.0,18.0,78.0,164.0,28.0,0.0
571884,-1.252024,1.348911,0.854548,-0.846617,-1.050074,-0.252603,0.0,18.0,78.0,164.0,28.0,0.0
571885,-1.207606,1.350224,0.8094210000000001,-0.188744,-0.695187,-0.421338,0.0,18.0,78.0,164.0,28.0,0.0
571886,-1.2471,1.351292,0.8236290000000001,-0.004039,-0.003273,-0.19253,0.0,18.0,78.0,164.0,28.0,0.0
571887,-1.292433,1.351001,0.855108,0.097045,0.367483,-0.274814,0.0,18.0,78.0,164.0,28.0,0.0
571888,-1.302685,1.345084,0.867284,0.15475799999999998,0.495326,-0.267396,0.0,18.0,78.0,164.0,28.0,0.0
571889,-1.320964,1.333979,0.894843,-0.040293,0.366362,-0.146545,0.0,18.0,78.0,164.0,28.0,0.0
571890,-1.351701,1.325748,0.933396,-0.158226,0.27109,-0.112438,0.0,18.0,78.0,164.0,28.0,0.0
571891,-1.3760059999999998,1.323807,0.955585,-0.25253400000000004,0.07406900000000001,0.115631,0.0,18.0,78.0,164.0,28.0,0.0
571892,-1.383201,1.32409,0.956871,-0.201826,0.022563,0.164787,0.0,18.0,78.0,164.0,28.0,0.0
571893,-1.368416,1.324042,0.94111,-0.169597,0.016265,0.167469,0.0,18.0,78.0,164.0,28.0,0.0
571894,-1.341989,1.324398,0.914632,0.006848999999999999,-0.023092,0.17111600000000002,0.0,18.0,78.0,164.0,28.0,0.0
571895,-1.333639,1.326285,0.901035,0.193198,0.094218,0.159225,0.0,18.0,78.0,164.0,28.0,0.0
571896,-1.356569,1.33221,0.907809,0.263403,0.19468,0.166905,0.0,18.0,78.0,164.0,28.0,0.0
571897,-1.400686,1.338327,0.929599,0.320535,0.501787,0.12528499999999998,0.0,18.0,78.0,164.0,28.0,0.0
571898,-1.443108,1.341482,0.95305,0.29083000000000003,0.6712100000000001,-0.015643999999999998,0.0,18.0,78.0,164.0,28.0,0.0
571899,-1.466692,1.3411540000000002,0.967296,0.33870300000000003,0.8767020000000001,-0.133804,0.0,18.0,78.0,164.0,28.0,0.0
571900,-1.465698,1.337534,0.96659,0.380896,0.963106,-0.157059,0.0,18.0,78.0,164.0,28.0,0.0
571901,-1.451134,1.332651,0.95322,0.359995,0.671515,-0.040491,0.0,18.0,78.0,164.0,28.0,0.0
571902,-1.42457,1.329598,0.929922,-0.003059,-0.28447100000000003,0.157862,0.0,18.0,78.0,164.0,28.0,0.0
571903,-1.326956,1.332021,0.8568819999999999,-0.80356,-1.355673,-0.365314,0.0,18.0,78.0,164.0,28.0,0.0
571904,-1.196912,1.341232,0.7419899999999999,-0.595444,-1.654393,-0.441238,0.0,18.0,78.0,164.0,28.0,0.0
571905,-1.151439,1.341678,0.686481,-0.030301,-1.412928,-0.024889,0.0,18.0,78.0,164.0,28.0,0.0
571906,-1.21133,1.33011,0.731981,0.00082,-0.71219,0.134976,0.0,18.0,78.0,164.0,28.0,0.0
571907,-1.32895,1.313561,0.8360569999999999,0.06680499999999999,-0.041768,-0.235417,0.0,18.0,78.0,164.0,28.0,0.0
571908,-1.44518,1.291281,0.949654,0.180736,0.557045,-0.221007,0.0,18.0,78.0,164.0,28.0,0.0
571909,-1.481011,1.273141,0.991253,0.186714,0.8459190000000001,-0.146648,0.0,18.0,78.0,164.0,28.0,0.0
571910,-1.454097,1.2682639999999998,0.968084,0.152563,0.789363,-0.136028,0.0,18.0,78.0,164.0,28.0,0.0
571911,-1.3944530000000002,1.27091,0.906934,0.059179,0.7182029999999999,-0.05937000000000001,0.0,18.0,78.0,164.0,28.0,0.0
571912,-1.332145,1.28024,0.8377709999999999,0.015388999999999996,0.626938,-0.01912,0.0,18.0,78.0,164.0,28.0,0.0
571913,-1.28616,1.296467,0.789667,0.096893,0.56565,-0.06543,0.0,18.0,78.0,164.0,28.0,0.0
571914,-1.281568,1.317079,0.786979,0.286635,0.39363,0.094714,0.0,18.0,78.0,164.0,28.0,0.0
571915,-1.312799,1.339327,0.819106,0.283829,0.128466,0.21700300000000006,0.0,18.0,78.0,164.0,28.0,0.0
571916,-1.353292,1.3595620000000002,0.8605709999999999,0.213653,-0.212108,0.32908200000000004,0.0,18.0,78.0,164.0,28.0,0.0
571917,-1.347272,1.37008,0.864613,-0.038332,-0.546291,0.33657600000000004,0.0,18.0,78.0,164.0,28.0,0.0
571918,-1.2830290000000002,1.370094,0.8159689999999999,-0.17610499999999998,-1.000603,0.442481,0.0,18.0,78.0,164.0,28.0,0.0
571919,-1.191558,1.364073,0.740495,-0.671938,-1.355428,-0.244748,0.0,18.0,78.0,164.0,28.0,0.0
571920,-1.157697,1.360774,0.7057640000000001,-0.563355,-0.961656,-0.451199,0.0,18.0,78.0,164.0,28.0,0.0
571921,-1.244316,1.363844,0.771734,-0.302506,-0.117515,-0.262694,0.0,18.0,78.0,164.0,28.0,0.0
571922,-1.356065,1.369659,0.87795,-0.09187,0.268017,-0.185525,0.0,18.0,78.0,164.0,28.0,0.0
571923,-1.44784,1.374087,0.974624,0.141993,0.369082,-0.16206900000000002,0.0,18.0,78.0,164.0,28.0,0.0
571924,-1.51074,1.374941,1.047174,0.046332,0.208024,-0.143534,0.0,18.0,78.0,164.0,28.0,0.0
571925,-1.508603,1.37344,1.05369,-0.082001,-0.16809300000000002,-0.14875,0.0,18.0,78.0,164.0,28.0,0.0
571926,-1.441458,1.366082,0.985169,-0.079845,-0.384681,-0.120238,0.0,18.0,78.0,164.0,28.0,0.0
571927,-1.382188,1.353365,0.912114,0.059111,-0.400407,0.130742,0.0,18.0,78.0,164.0,28.0,0.0
571928,-1.392207,1.342353,0.901402,0.195381,-0.038401,0.482027,0.0,18.0,78.0,164.0,28.0,0.0
571929,-1.458507,1.33453,0.94368,0.202176,0.125798,0.44955,0.0,18.0,78.0,164.0,28.0,0.0
571930,-1.530348,1.326106,0.98884,0.20364,0.655332,0.026366000000000004,0.0,18.0,78.0,164.0,28.0,0.0
571931,-1.58171,1.317683,1.01351,0.20898000000000005,0.994078,-0.288697,0.0,18.0,78.0,164.0,28.0,0.0
571932,-1.6174389999999998,1.309634,1.024034,0.237495,1.159831,-0.343596,0.0,18.0,78.0,164.0,28.0,0.0
571933,-1.629791,1.300264,1.013935,0.398147,1.525381,-0.082604,0.0,18.0,78.0,164.0,28.0,0.0
571934,-1.602661,1.294027,0.974443,0.32510300000000003,1.475585,0.062539,0.0,18.0,78.0,164.0,28.0,0.0
571935,-1.527423,1.296625,0.903495,0.319039,1.235965,0.057713,0.0,18.0,78.0,164.0,28.0,0.0
571936,-1.425778,1.305697,0.819465,-0.267092,-0.4405270000000001,-0.222792,0.0,18.0,78.0,164.0,28.0,0.0
571937,-1.291994,1.312325,0.7224520000000001,-1.269076,-0.828399,-0.552955,0.0,18.0,78.0,164.0,28.0,0.0
571938,-1.162395,1.318447,0.6369319999999999,-0.954105,-1.025049,-0.516574,0.0,18.0,78.0,164.0,28.0,0.0
571939,-1.133398,1.327772,0.621404,0.021337,-1.42352,-0.097756,0.0,18.0,78.0,164.0,28.0,0.0
571940,-1.220448,1.329149,0.695523,0.204889,-1.246432,0.096484,0.0,18.0,78.0,164.0,28.0,0.0
571941,-1.322153,1.314092,0.783931,0.338454,-0.5109630000000001,-0.246531,0.0,18.0,78.0,164.0,28.0,0.0
571942,-1.415785,1.287864,0.864293,0.402739,0.283987,-0.157631,0.0,18.0,78.0,164.0,28.0,0.0
571943,-1.458058,1.264063,0.901926,0.333149,0.83304,0.159577,0.0,18.0,78.0,164.0,28.0,0.0
571944,-1.451166,1.25274,0.8998959999999999,0.391321,0.962662,0.24097800000000005,0.0,18.0,78.0,164.0,28.0,0.0
571945,-1.441416,1.254151,0.895998,0.257854,0.817976,0.183146,0.0,18.0,78.0,164.0,28.0,0.0
571946,-1.426793,1.273523,0.8855040000000001,-0.039897,0.25200700000000004,0.222849,0.0,18.0,78.0,164.0,28.0,0.0
571947,-1.375655,1.307468,0.8417950000000001,-0.202631,-0.05414,0.226921,0.0,18.0,78.0,164.0,28.0,0.0
571948,-1.268636,1.341744,0.74144,-0.413706,-0.923335,0.160699,0.0,18.0,78.0,164.0,28.0,0.0
571949,-1.116411,1.361505,0.58834,-0.244799,-1.747941,-0.090188,0.0,18.0,78.0,164.0,28.0,0.0
571950,-1.072585,1.362157,0.535071,0.109034,-1.555393,0.065868,0.0,18.0,78.0,164.0,28.0,0.0
571951,-1.178446,1.355443,0.6351829999999999,0.129405,-0.656751,-0.172591,0.0,18.0,78.0,164.0,28.0,0.0
571952,-1.326732,1.3381040000000002,0.770019,0.17439000000000002,0.171047,-0.343895,0.0,18.0,78.0,164.0,28.0,0.0
571953,-1.408458,1.313225,0.8415889999999999,0.22049,0.781968,-0.276765,0.0,18.0,78.0,164.0,28.0,0.0
571954,-1.4203290000000002,1.292193,0.8537290000000001,0.042466,0.844299,-0.131341,0.0,18.0,78.0,164.0,28.0,0.0
571955,-1.4071,1.280022,0.844081,-0.210142,0.651107,0.003383,0.0,18.0,78.0,164.0,28.0,0.0
571956,-1.388536,1.277632,0.830521,-0.343222,0.482221,0.070579,0.0,18.0,78.0,164.0,28.0,0.0
571957,-1.3703040000000002,1.28459,0.815561,-0.29131,0.24785,0.107473,0.0,18.0,78.0,164.0,28.0,0.0
571958,-1.3484969999999998,1.295452,0.793539,-0.117312,-0.00593,0.05964700000000001,0.0,18.0,78.0,164.0,28.0,0.0
571959,-1.314252,1.303604,0.7571180000000001,0.057713,-0.17713099999999998,0.037156,0.0,18.0,78.0,164.0,28.0,0.0
571960,-1.2749780000000002,1.307177,0.71268,0.200422,-0.175752,0.011305,0.0,18.0,78.0,164.0,28.0,0.0
571961,-1.248666,1.308427,0.681713,0.246417,0.023502,-0.02759,0.0,18.0,78.0,164.0,28.0,0.0
571962,-1.261775,1.307267,0.688094,0.211369,0.24694,0.025396,0.0,18.0,78.0,164.0,28.0,0.0
571963,-1.317948,1.304692,0.733392,0.199642,0.525334,0.219101,0.0,18.0,78.0,164.0,28.0,0.0
571964,-1.3974799999999998,1.3030620000000002,0.80193,0.273606,0.696734,0.257668,0.0,18.0,78.0,164.0,28.0,0.0
571965,-1.4475870000000002,1.30269,0.8476540000000001,0.30662,0.691096,0.17014200000000002,0.0,18.0,78.0,164.0,28.0,0.0
571966,-1.434768,1.300139,0.8394209999999999,0.219643,0.356036,-0.065339,0.0,18.0,78.0,164.0,28.0,0.0
571967,-1.370633,1.294403,0.790669,0.06803,-0.170462,-0.193198,0.0,18.0,78.0,164.0,28.0,0.0
571968,-1.255999,1.286948,0.693405,-0.212307,-1.209739,-0.39172,0.0,18.0,78.0,164.0,28.0,0.0
571969,-1.132542,1.2775459999999998,0.5803,-0.655614,-1.781277,-0.489798,0.0,18.0,78.0,164.0,28.0,0.0
571970,-1.093381,1.265643,0.540944,-0.307359,-1.306453,-0.101951,0.0,18.0,78.0,164.0,28.0,0.0
571971,-1.1336620000000002,1.256387,0.5749529999999999,-0.115639,-0.39065,-0.04232,0.0,18.0,78.0,164.0,28.0,0.0
571972,-1.245318,1.25519,0.672981,-0.043186,0.33639600000000003,0.000232,0.0,18.0,78.0,164.0,28.0,0.0
571973,-1.332474,1.259379,0.753269,-0.112459,0.663586,-0.052121,0.0,18.0,78.0,164.0,28.0,0.0
571974,-1.3360379999999998,1.261775,0.760351,-0.041378,0.649089,-0.214678,0.0,18.0,78.0,164.0,28.0,0.0
571975,-1.274356,1.263623,0.710869,0.079334,0.594244,-0.226713,0.0,18.0,78.0,164.0,28.0,0.0
571976,-1.203017,1.263664,0.658862,0.08645900000000001,0.648593,-0.196529,0.0,18.0,78.0,164.0,28.0,0.0
571977,-1.166353,1.267617,0.644594,0.084159,0.647233,-0.182954,0.0,18.0,78.0,164.0,28.0,0.0
571978,-1.169751,1.281616,0.666248,0.173059,0.467343,0.081164,0.0,18.0,78.0,164.0,28.0,0.0
571979,-1.187432,1.30267,0.698813,0.156166,0.14536,0.140467,0.0,18.0,78.0,164.0,28.0,0.0
571980,-1.19825,1.322454,0.7249220000000001,0.148317,-0.045602,0.124691,0.0,18.0,78.0,164.0,28.0,0.0
571981,-1.2233459999999998,1.333974,0.763944,0.334433,-0.470737,0.221159,0.0,18.0,78.0,164.0,28.0,0.0
571982,-1.258599,1.336003,0.8091619999999999,0.389172,-0.355974,0.384452,0.0,18.0,78.0,164.0,28.0,0.0
571983,-1.256801,1.336384,0.811766,0.344533,-0.257543,0.356537,0.0,18.0,78.0,164.0,28.0,0.0
571984,-1.199981,1.33799,0.756458,0.13775,-0.049942,0.160728,0.0,18.0,78.0,164.0,28.0,0.0
571985,-1.136219,1.341461,0.691619,-0.118026,0.08064400000000001,0.035811,0.0,18.0,78.0,164.0,28.0,0.0
571986,-1.098692,1.343699,0.652511,-0.24347,0.055562,0.13018,0.0,18.0,78.0,164.0,28.0,0.0
571987,-1.071027,1.346287,0.6250180000000001,-0.598903,-0.5798909999999999,-0.055402,0.0,18.0,78.0,164.0,28.0,0.0
571988,-1.041099,1.349011,0.596268,-0.415053,-0.613239,-0.206052,0.0,18.0,78.0,164.0,28.0,0.0
571989,-1.057409,1.350393,0.614557,-0.208249,-0.046011,-0.200562,0.0,18.0,78.0,164.0,28.0,0.0
571990,-1.100642,1.352745,0.664411,-0.010995,0.153781,-0.301135,0.0,18.0,78.0,164.0,28.0,0.0
571991,-1.1637620000000002,1.354299,0.7334189999999999,0.118011,0.154055,-0.228233,0.0,18.0,78.0,164.0,28.0,0.0
571992,-1.241686,1.353308,0.81357,0.04342,0.13505799999999998,-0.083879,0.0,18.0,78.0,164.0,28.0,0.0
571993,-1.301403,1.35115,0.873252,-0.12368,0.112449,-0.017503,0.0,18.0,78.0,164.0,28.0,0.0
571994,-1.321788,1.347119,0.893193,-0.191088,-0.0056700000000000006,0.06808600000000001,0.0,18.0,78.0,164.0,28.0,0.0
571995,-1.314609,1.340765,0.88707,-0.240688,-0.088398,0.130553,0.0,18.0,78.0,164.0,28.0,0.0
571996,-1.2854290000000002,1.334205,0.862296,-0.317626,-0.067484,0.101254,0.0,18.0,78.0,164.0,28.0,0.0
571997,-1.242847,1.330618,0.823451,-0.174942,0.083005,0.042753,0.0,18.0,78.0,164.0,28.0,0.0
571998,-1.21953,1.331618,0.796485,-0.052975,0.15617899999999998,0.048899,0.0,18.0,78.0,164.0,28.0,0.0
571999,-1.246641,1.337038,0.809316,0.213551,0.307001,0.141747,0.0,18.0,78.0,164.0,28.0,0.0
572000,-1.324319,1.343062,0.867441,0.391071,0.533964,0.172007,0.0,18.0,78.0,164.0,28.0,0.0
572001,-1.409907,1.346286,0.942342,0.426224,0.644184,0.13765,0.0,18.0,78.0,164.0,28.0,0.0
572002,-1.445076,1.347087,0.980701,0.353065,0.839675,-0.160571,0.0,18.0,78.0,164.0,28.0,0.0
572003,-1.401641,1.345819,0.948569,0.264627,0.804633,-0.221878,0.0,18.0,78.0,164.0,28.0,0.0
572004,-1.324647,1.340653,0.8822049999999999,0.167078,0.524217,0.034492,0.0,18.0,78.0,164.0,28.0,0.0
572005,-1.2484620000000002,1.334836,0.822039,-0.145794,-0.245422,0.175336,0.0,18.0,78.0,164.0,28.0,0.0
572006,-1.137778,1.326856,0.750658,-0.898429,-0.994221,-0.265787,0.0,18.0,78.0,164.0,28.0,0.0
572007,-1.042014,1.327965,0.68813,-0.765216,-1.637097,-0.561233,0.0,18.0,78.0,164.0,28.0,0.0
572008,-1.05587,1.337738,0.704728,-0.27376100000000003,-1.486813,-0.219052,0.0,18.0,78.0,164.0,28.0,0.0
572009,-1.176778,1.3454270000000002,0.815662,0.033042,-0.51003,-0.040242,0.0,18.0,78.0,164.0,28.0,0.0
572010,-1.339856,1.345868,0.971625,0.208165,0.263522,-0.073771,0.0,18.0,78.0,164.0,28.0,0.0
572011,-1.425342,1.340067,1.064811,0.255149,0.565709,-0.156204,0.0,18.0,78.0,164.0,28.0,0.0
572012,-1.4118620000000002,1.333909,1.071651,0.190697,0.65527,-0.251421,0.0,18.0,78.0,164.0,28.0,0.0
572013,-1.367876,1.329077,1.047272,0.109575,0.566936,-0.27439600000000003,0.0,18.0,78.0,164.0,28.0,0.0
572014,-1.341677,1.326302,1.028033,0.076126,0.515426,-0.126729,0.0,18.0,78.0,164.0,28.0,0.0
572015,-1.334878,1.329381,1.018422,0.043407,0.4437640000000001,-0.01018,0.0,18.0,78.0,164.0,28.0,0.0
572016,-1.331597,1.338464,1.01365,0.042762,0.300265,0.06773,0.0,18.0,78.0,164.0,28.0,0.0
572017,-1.326115,1.347834,1.012567,0.085299,0.198452,0.08925,0.0,18.0,78.0,164.0,28.0,0.0
572018,-1.337997,1.351681,1.034391,0.218239,-0.043151,0.21219,0.0,18.0,78.0,164.0,28.0,0.0
572019,-1.377892,1.350319,1.085125,0.1846,-0.104087,0.337652,0.0,18.0,78.0,164.0,28.0,0.0
572020,-1.39922,1.349507,1.117591,0.034356,-0.159715,0.247034,0.0,18.0,78.0,164.0,28.0,0.0
572021,-1.364865,1.354598,1.091445,-0.11013699999999997,-0.31087800000000004,0.17565,0.0,18.0,78.0,164.0,28.0,0.0
572022,-1.29784,1.364676,1.029297,-0.208729,-0.40369,0.173483,0.0,18.0,78.0,164.0,28.0,0.0
572023,-1.19383,1.373618,0.933035,-0.908955,-1.0803969999999998,0.206502,0.0,18.0,78.0,164.0,28.0,0.0
572024,-1.073524,1.374528,0.816037,-0.327791,-1.043643,-0.14723599999999998,0.0,18.0,78.0,164.0,28.0,0.0
572025,-1.040352,1.365047,0.772131,0.047742,-0.478367,-0.15704400000000002,0.0,18.0,78.0,164.0,28.0,0.0
572026,-1.044192,1.344962,0.775911,0.25933,-0.04558,-0.336061,0.0,18.0,78.0,164.0,28.0,0.0
572027,-1.027623,1.315189,0.769544,0.439771,0.376354,-0.478462,0.0,18.0,78.0,164.0,28.0,0.0
572028,-1.012034,1.280599,0.764964,0.494303,0.555569,-0.492037,0.0,18.0,78.0,164.0,28.0,0.0
572029,-1.0403950000000002,1.252795,0.797087,0.05668400000000001,0.782763,-0.263588,0.0,18.0,78.0,164.0,28.0,0.0
572030,-1.106318,1.243569,0.856136,-0.33578600000000003,0.6958989999999999,0.015038,0.0,18.0,78.0,164.0,28.0,0.0
572031,-1.169608,1.252102,0.907321,-0.41933,0.603942,0.108894,0.0,18.0,78.0,164.0,28.0,0.0
572032,-1.191192,1.2680049999999998,0.916994,-0.449788,0.240122,0.249632,0.0,18.0,78.0,164.0,28.0,0.0
572033,-1.148459,1.28294,0.8681120000000001,-0.416494,0.201012,0.113827,0.0,18.0,78.0,164.0,28.0,0.0
572034,-1.062098,1.294153,0.7843600000000001,-0.233319,0.18265,-0.109157,0.0,18.0,78.0,164.0,28.0,0.0
572035,-0.981488,1.305335,0.7116210000000001,-0.006843000000000001,0.262869,-0.292399,0.0,18.0,78.0,164.0,28.0,0.0
572036,-0.940355,1.32082,0.6763359999999999,0.114269,0.234635,-0.194711,0.0,18.0,78.0,164.0,28.0,0.0
572037,-0.933484,1.335332,0.674559,0.037625,0.181436,-0.114917,0.0,18.0,78.0,164.0,28.0,0.0
572038,-0.929651,1.345545,0.681329,-0.366615,0.231055,-0.07711799999999999,0.0,18.0,78.0,164.0,28.0,0.0
572039,-0.930237,1.354112,0.7024060000000001,-0.5027560000000001,0.246467,-0.12775,0.0,18.0,78.0,164.0,28.0,0.0
572040,-0.944581,1.36415,0.747401,-0.47533,0.34019,-0.152819,0.0,18.0,78.0,164.0,28.0,0.0
572041,-0.948003,1.375734,0.788192,-0.316936,0.368105,-0.206047,0.0,18.0,78.0,164.0,28.0,0.0
572042,-0.971133,1.3949790000000002,0.8424280000000001,-0.190255,0.073543,0.058323,0.0,18.0,78.0,164.0,28.0,0.0
572043,-1.060986,1.4234440000000002,0.948184,-0.093211,-0.281818,0.208686,0.0,18.0,78.0,164.0,28.0,0.0
572044,-1.247764,1.448303,1.139529,0.325649,-1.061341,0.90947,0.0,18.0,78.0,164.0,28.0,0.0
572045,-1.329143,1.4466139999999998,1.231681,0.283062,-0.917567,0.723417,0.0,18.0,78.0,164.0,28.0,0.0
572046,-1.217766,1.409048,1.145651,0.178852,-0.569678,0.434407,0.0,18.0,78.0,164.0,28.0,0.0
572047,-1.110638,1.358149,1.071975,0.168458,-0.667834,-0.271552,0.0,18.0,78.0,164.0,28.0,0.0
572048,-1.105746,1.319256,1.098185,-0.211713,-0.854727,-0.217809,0.0,18.0,78.0,164.0,28.0,0.0
572049,-1.100033,1.296194,1.125115,-0.5438109999999999,-0.905097,-0.020008,0.0,18.0,78.0,164.0,28.0,0.0
572050,-1.061191,1.279928,1.124659,-0.833944,-0.14416199999999998,0.327853,0.0,18.0,78.0,164.0,28.0,0.0
572051,-1.028799,1.267823,1.135652,-0.657806,0.380311,0.03862,0.0,18.0,78.0,164.0,28.0,0.0
572052,-1.030194,1.2752629999999998,1.185869,-0.452413,0.396802,-0.044634,0.0,18.0,78.0,164.0,28.0,0.0
572053,-1.058844,1.297862,1.263578,-0.357333,0.353792,0.06194400000000001,0.0,18.0,78.0,164.0,28.0,0.0
572054,-1.095083,1.327846,1.3596469999999998,-0.0222,0.162985,0.386607,0.0,18.0,78.0,164.0,28.0,0.0
572055,-1.133316,1.356453,1.472297,-0.019568,0.044484,0.376054,0.0,18.0,78.0,164.0,28.0,0.0
572056,-1.170928,1.3779709999999998,1.591512,-0.0073170000000000015,-0.05924400000000001,0.379569,0.0,18.0,78.0,164.0,28.0,0.0
572057,-1.180517,1.389206,1.687382,0.149623,0.083518,0.14988800000000002,0.0,18.0,78.0,164.0,28.0,0.0
572058,-1.160593,1.393551,1.751668,0.242765,0.173481,0.071265,0.0,18.0,78.0,164.0,28.0,0.0
572059,-1.13902,1.399067,1.805829,0.273356,0.274933,0.006285,0.0,18.0,78.0,164.0,28.0,0.0
572060,-1.1169790000000002,1.411291,1.846354,0.256218,0.5882729999999999,-0.008005,0.0,18.0,78.0,164.0,28.0,0.0
572061,-1.063192,1.428153,1.846481,0.260402,0.551321,0.002021,0.0,18.0,78.0,164.0,28.0,0.0
572062,-0.966765,1.44019,1.7987400000000002,0.224573,0.507093,0.007921,0.0,18.0,78.0,164.0,28.0,0.0
572063,-0.883117,1.441865,1.759877,0.034744,0.151032,-0.0909,0.0,18.0,78.0,164.0,28.0,0.0
572064,-0.822768,1.433439,1.745569,-0.146147,-0.006412999999999999,-0.277571,0.0,18.0,78.0,164.0,28.0,0.0
572065,-0.776679,1.417367,1.745214,-0.34920300000000004,-0.140638,-0.294249,0.0,18.0,78.0,164.0,28.0,0.0
572066,-0.764648,1.405351,1.774502,-0.479208,-0.285429,0.016163,0.0,18.0,78.0,164.0,28.0,0.0
572067,-0.7933020000000001,1.410355,1.828143,-0.352555,-0.414012,0.183517,0.0,18.0,78.0,164.0,28.0,0.0
572068,-0.825066,1.419527,1.869559,-0.153471,-0.364538,0.301244,0.0,18.0,78.0,164.0,28.0,0.0
572069,-0.7611640000000001,1.417912,1.812739,-0.208638,-0.618003,0.153773,0.0,18.0,78.0,164.0,28.0,0.0
572070,-0.633475,1.392976,1.69986,-0.293197,-0.586447,0.12700999999999998,0.0,18.0,78.0,164.0,28.0,0.0
572071,-0.586252,1.367641,1.670678,-0.065117,0.110325,0.8349219999999999,0.0,18.0,78.0,164.0,28.0,0.0
572072,-0.645249,1.389545,1.7454889999999998,0.020227,-0.302605,0.8299270000000001,0.0,18.0,78.0,164.0,28.0,0.0
572073,-0.7792140000000001,1.433725,1.909637,-0.103345,-0.404353,0.679847,0.0,18.0,78.0,164.0,28.0,0.0
572074,-0.8712979999999999,1.462818,2.04505,-0.139424,-0.189265,0.259936,0.0,18.0,78.0,164.0,28.0,0.0
572075,-0.8520530000000001,1.469941,2.066803,0.001962,-0.11818,0.082403,0.0,18.0,78.0,164.0,28.0,0.0
572076,-0.847834,1.467401,2.09439,0.022119,-0.128647,-0.014603,0.0,18.0,78.0,164.0,28.0,0.0
572077,-0.885531,1.46249,2.159432,0.277658,-0.046188,-0.058754,0.0,18.0,78.0,164.0,28.0,0.0
572078,-0.92894,1.452233,2.233395,0.339646,0.08772100000000001,-0.021205,0.0,18.0,78.0,164.0,28.0,0.0
572079,-0.963396,1.435151,2.3045880000000003,0.293918,0.145081,-0.02094,0.0,18.0,78.0,164.0,28.0,0.0
572080,-0.987662,1.417768,2.364016,0.031297000000000005,0.261034,-0.019293,0.0,18.0,78.0,164.0,28.0,0.0
572081,-1.029979,1.403567,2.433727,-0.107772,0.446697,0.058534,0.0,18.0,78.0,164.0,28.0,0.0
