index,attitude.roll,attitude.pitch,attitude.yaw,userAcceleration.x,userAcceleration.y,userAcceleration.z,act,id,weight,height,age,gender
605723,1.172703,-1.217849,0.633634,0.59717,0.081509,-0.071948,0.0,19.0,88.0,180.0,25.0,1.0
605724,1.230989,-1.218272,0.7026100000000001,0.140922,2.183841,-0.698596,0.0,19.0,88.0,180.0,25.0,1.0
605725,1.220374,-1.217347,0.695971,0.09145,-0.11831400000000003,0.17743499999999998,0.0,19.0,88.0,180.0,25.0,1.0
605726,1.196626,-1.215197,0.6741189999999999,-0.00102,0.07602,0.182624,0.0,19.0,88.0,180.0,25.0,1.0
605727,1.183103,-1.2205700000000002,0.669148,0.015118,-0.019785,0.194854,0.0,19.0,88.0,180.0,25.0,1.0
605728,1.179797,-1.229517,0.679817,-0.103819,-0.08678200000000001,0.207496,0.0,19.0,88.0,180.0,25.0,1.0
605729,1.175061,-1.239113,0.686515,-0.133811,-0.066879,0.209878,0.0,19.0,88.0,180.0,25.0,1.0
605730,1.165542,-1.247507,0.679504,0.09304,-0.173202,-0.054378,0.0,19.0,88.0,180.0,25.0,1.0
605731,1.153902,-1.252258,0.6662020000000001,0.11109,-0.244448,-0.10219,0.0,19.0,88.0,180.0,25.0,1.0
605732,1.147991,-1.255187,0.65603,0.104756,-0.278382,-0.133091,0.0,19.0,88.0,180.0,25.0,1.0
605733,1.141925,-1.258031,0.641897,0.052328,-0.277857,-0.031609,0.0,19.0,88.0,180.0,25.0,1.0
605734,1.130225,-1.259833,0.620292,0.048667,-0.225874,-0.059197,0.0,19.0,88.0,180.0,25.0,1.0
605735,1.1060290000000002,-1.260467,0.5897020000000001,0.03128,-0.207802,-0.07022,0.0,19.0,88.0,180.0,25.0,1.0
605736,1.058742,-1.258142,0.538295,0.077828,-0.26901,-0.224598,0.0,19.0,88.0,180.0,25.0,1.0
605737,0.993254,-1.251978,0.4718350000000001,0.132581,-0.25289,-0.14314000000000002,0.0,19.0,88.0,180.0,25.0,1.0
605738,0.917156,-1.239911,0.399042,0.156606,-0.21138,-0.135042,0.0,19.0,88.0,180.0,25.0,1.0
605739,0.823577,-1.217735,0.320914,0.078197,-0.195063,-0.125334,0.0,19.0,88.0,180.0,25.0,1.0
605740,0.712626,-1.182795,0.237888,-0.00788,0.016472,-0.043412,0.0,19.0,88.0,180.0,25.0,1.0
605741,0.600494,-1.137989,0.160588,-0.168527,0.079787,0.185493,0.0,19.0,88.0,180.0,25.0,1.0
605742,0.507676,-1.087406,0.101353,-0.278764,0.323377,0.12502,0.0,19.0,88.0,180.0,25.0,1.0
605743,0.443657,-1.034553,0.055441,-0.35018,0.535904,0.210319,0.0,19.0,88.0,180.0,25.0,1.0
605744,0.412105,-0.986895,0.022505,-0.091828,0.588961,0.274722,0.0,19.0,88.0,180.0,25.0,1.0
605745,0.406119,-0.948618,0.004769,0.134632,0.190105,0.245592,0.0,19.0,88.0,180.0,25.0,1.0
605746,0.405609,-0.921001,-0.0031620000000000003,0.109568,0.092342,0.036585,0.0,19.0,88.0,180.0,25.0,1.0
605747,0.415145,-0.90424,0.001523,0.133003,0.159632,0.030578,0.0,19.0,88.0,180.0,25.0,1.0
605748,0.434638,-0.898991,0.020164,0.055729,0.133774,0.102083,0.0,19.0,88.0,180.0,25.0,1.0
605749,0.469949,-0.902994,0.053838,-0.08004800000000001,-0.07244600000000001,0.185734,0.0,19.0,88.0,180.0,25.0,1.0
605750,0.523674,-0.913221,0.096044,-0.158102,-0.115542,0.165247,0.0,19.0,88.0,180.0,25.0,1.0
605751,0.590016,-0.93208,0.14061300000000002,-0.11349,-0.28397100000000003,0.045696,0.0,19.0,88.0,180.0,25.0,1.0
605752,0.658666,-0.961125,0.187522,-0.016649,-0.293149,-0.0017280000000000002,0.0,19.0,88.0,180.0,25.0,1.0
605753,0.724472,-0.999381,0.238809,-0.00378,-0.383479,-0.027363,0.0,19.0,88.0,180.0,25.0,1.0
605754,0.780277,-1.044368,0.29093800000000003,-0.103964,-0.435881,-0.043642,0.0,19.0,88.0,180.0,25.0,1.0
605755,0.8226049999999999,-1.093244,0.339266,-0.123446,-0.25679,0.05929,0.0,19.0,88.0,180.0,25.0,1.0
605756,0.8534200000000001,-1.140511,0.383783,-0.004019,0.000196,0.067866,0.0,19.0,88.0,180.0,25.0,1.0
605757,0.8654040000000001,-1.17832,0.418072,0.037976,0.08751,-0.098753,0.0,19.0,88.0,180.0,25.0,1.0
605758,0.8685440000000001,-1.204913,0.447302,0.057201,-0.113358,-0.302195,0.0,19.0,88.0,180.0,25.0,1.0
605759,0.878302,-1.222295,0.479235,0.023624000000000003,-0.28333,-0.168524,0.0,19.0,88.0,180.0,25.0,1.0
605760,0.920187,-1.228818,0.520967,-0.101088,-0.321182,0.226673,0.0,19.0,88.0,180.0,25.0,1.0
605761,1.00115,-1.237345,0.583973,-0.229235,0.096646,0.298155,0.0,19.0,88.0,180.0,25.0,1.0
605762,1.108273,-1.25637,0.689413,-0.057293,0.541854,0.027357,0.0,19.0,88.0,180.0,25.0,1.0
605763,1.147069,-1.274895,0.762417,0.6323340000000001,0.506748,0.06713,0.0,19.0,88.0,180.0,25.0,1.0
605764,1.158265,-1.285605,0.8066220000000001,0.466778,-0.060041,0.086126,0.0,19.0,88.0,180.0,25.0,1.0
605765,1.212183,-1.287634,0.874373,0.049705,0.201597,-0.023537,0.0,19.0,88.0,180.0,25.0,1.0
605766,1.253424,-1.295385,0.940351,0.183747,1.512677,-0.187062,0.0,19.0,88.0,180.0,25.0,1.0
605767,1.281784,-1.313464,0.989748,0.122326,0.201446,0.134744,0.0,19.0,88.0,180.0,25.0,1.0
605768,1.267115,-1.329008,0.984304,0.15551900000000002,-0.032404,0.191687,0.0,19.0,88.0,180.0,25.0,1.0
605769,1.266776,-1.345454,0.987548,0.177508,-0.22661,0.270014,0.0,19.0,88.0,180.0,25.0,1.0
605770,1.28456,-1.365959,1.013215,-0.130404,-0.413664,0.301587,0.0,19.0,88.0,180.0,25.0,1.0
605771,1.333766,-1.387991,1.076678,-0.200311,-0.403122,0.220345,0.0,19.0,88.0,180.0,25.0,1.0
605772,1.419187,-1.406288,1.171498,0.134681,-0.14075,-0.07498300000000001,0.0,19.0,88.0,180.0,25.0,1.0
605773,1.531918,-1.420852,1.282797,0.139761,-0.180216,-0.112251,0.0,19.0,88.0,180.0,25.0,1.0
605774,1.660896,-1.433446,1.399714,0.157429,-0.189526,-0.14852,0.0,19.0,88.0,180.0,25.0,1.0
605775,1.7963330000000002,-1.447765,1.517904,0.160156,-0.207666,-0.14573,0.0,19.0,88.0,180.0,25.0,1.0
605776,1.91784,-1.464816,1.6276540000000002,0.275052,-0.239354,-0.11569000000000003,0.0,19.0,88.0,180.0,25.0,1.0
605777,1.993932,-1.482938,1.7003689999999998,0.357939,-0.199314,-0.139239,0.0,19.0,88.0,180.0,25.0,1.0
605778,2.025338,-1.502094,1.73114,0.247667,-0.12435,-0.220537,0.0,19.0,88.0,180.0,25.0,1.0
605779,2.033245,-1.518172,1.7461380000000002,0.214696,-0.129307,-0.248897,0.0,19.0,88.0,180.0,25.0,1.0
605780,2.009646,-1.532463,1.739024,0.228178,-0.1443,-0.251556,0.0,19.0,88.0,180.0,25.0,1.0
605781,1.834583,-1.549899,1.587059,0.263739,0.012364,-0.295985,0.0,19.0,88.0,180.0,25.0,1.0
605782,0.194513,-1.560999,-0.019099,0.441245,0.14541800000000002,-0.05389,0.0,19.0,88.0,180.0,25.0,1.0
605783,-0.489113,-1.527076,-0.665719,0.5544979999999999,0.228251,0.003496,0.0,19.0,88.0,180.0,25.0,1.0
605784,-0.366878,-1.480013,-0.509867,0.213107,0.104658,-0.092621,0.0,19.0,88.0,180.0,25.0,1.0
605785,-0.196721,-1.427053,-0.305306,-0.011888,0.338148,0.190413,0.0,19.0,88.0,180.0,25.0,1.0
605786,-0.04322,-1.369723,-0.121977,0.021767,0.524343,0.421626,0.0,19.0,88.0,180.0,25.0,1.0
605787,0.083108,-1.310196,0.019266,-0.054058,1.181622,0.492092,0.0,19.0,88.0,180.0,25.0,1.0
605788,0.199832,-1.253468,0.134267,0.081341,1.2762,-0.08759700000000001,0.0,19.0,88.0,180.0,25.0,1.0
605789,0.287239,-1.208087,0.234011,0.444769,0.778837,-0.124511,0.0,19.0,88.0,180.0,25.0,1.0
605790,0.350968,-1.176568,0.334222,0.597529,0.227509,0.146539,0.0,19.0,88.0,180.0,25.0,1.0
605791,0.413355,-1.143725,0.4471,0.54883,0.056736,0.260425,0.0,19.0,88.0,180.0,25.0,1.0
605792,0.464955,-1.108371,0.557439,0.311915,0.125291,0.37659,0.0,19.0,88.0,180.0,25.0,1.0
605793,0.507202,-1.080927,0.660563,0.000766,0.236014,0.5004029999999999,0.0,19.0,88.0,180.0,25.0,1.0
605794,0.5411229999999999,-1.065119,0.7547119999999999,-0.142061,0.14314300000000002,0.5156729999999999,0.0,19.0,88.0,180.0,25.0,1.0
605795,0.568405,-1.061176,0.845281,-0.267408,-0.187032,0.484105,0.0,19.0,88.0,180.0,25.0,1.0
605796,0.5891529999999999,-1.066627,0.936158,-0.393793,-0.365322,0.421108,0.0,19.0,88.0,180.0,25.0,1.0
605797,0.59943,-1.081072,1.0198040000000002,-0.502452,-0.632875,0.381904,0.0,19.0,88.0,180.0,25.0,1.0
605798,0.600333,-1.104181,1.085055,-0.6545890000000001,-0.5705399999999999,0.200918,0.0,19.0,88.0,180.0,25.0,1.0
605799,0.605118,-1.133581,1.133238,-0.538504,-0.375447,0.004286,0.0,19.0,88.0,180.0,25.0,1.0
605800,0.6026729999999999,-1.164184,1.162884,-0.34551,-0.122201,-0.113738,0.0,19.0,88.0,180.0,25.0,1.0
605801,0.5768,-1.19195,1.167929,-0.059376,0.097428,-0.130449,0.0,19.0,88.0,180.0,25.0,1.0
605802,0.507724,-1.209063,1.135699,0.266996,0.290606,-0.28796,0.0,19.0,88.0,180.0,25.0,1.0
605803,0.406204,-1.207362,1.08129,0.496929,0.33129400000000003,-0.515848,0.0,19.0,88.0,180.0,25.0,1.0
605804,0.314096,-1.188719,1.034566,0.532099,-0.08179199999999999,-0.155571,0.0,19.0,88.0,180.0,25.0,1.0
605805,0.271776,-1.165692,1.013376,0.391334,-0.168375,0.116526,0.0,19.0,88.0,180.0,25.0,1.0
605806,0.291598,-1.144881,1.032159,0.233276,0.403441,0.597877,0.0,19.0,88.0,180.0,25.0,1.0
605807,0.372455,-1.146827,1.0992959999999998,0.180848,0.796026,0.718091,0.0,19.0,88.0,180.0,25.0,1.0
605808,0.45643,-1.173538,1.183693,-0.350224,0.348932,0.084499,0.0,19.0,88.0,180.0,25.0,1.0
605809,0.477036,-1.193344,1.237256,-0.172868,0.042043,0.168747,0.0,19.0,88.0,180.0,25.0,1.0
605810,0.467415,-1.213447,1.267101,0.205581,-0.125212,0.591584,0.0,19.0,88.0,180.0,25.0,1.0
605811,0.476688,-1.238387,1.301856,0.290075,0.199806,0.772364,0.0,19.0,88.0,180.0,25.0,1.0
605812,0.500297,-1.269596,1.35221,0.068493,0.304342,0.53817,0.0,19.0,88.0,180.0,25.0,1.0
605813,0.540154,-1.3083049999999998,1.43079,-0.037788,0.298566,0.383981,0.0,19.0,88.0,180.0,25.0,1.0
605814,0.580387,-1.345081,1.509411,-0.149516,0.27365700000000004,0.087591,0.0,19.0,88.0,180.0,25.0,1.0
605815,0.61459,-1.374144,1.5718370000000002,-0.113656,0.036562,-0.005819,0.0,19.0,88.0,180.0,25.0,1.0
605816,0.667995,-1.398075,1.640016,-0.057213,-0.034239,0.04836,0.0,19.0,88.0,180.0,25.0,1.0
605817,0.735304,-1.419397,1.7093349999999998,0.181329,-0.193502,0.186971,0.0,19.0,88.0,180.0,25.0,1.0
605818,0.795587,-1.43925,1.767438,0.25493000000000005,-0.282635,0.129044,0.0,19.0,88.0,180.0,25.0,1.0
605819,0.857643,-1.458724,1.829316,0.257826,-0.336744,0.030532,0.0,19.0,88.0,180.0,25.0,1.0
605820,0.948983,-1.478831,1.923101,0.16733,-0.392838,0.035732,0.0,19.0,88.0,180.0,25.0,1.0
605821,1.0863040000000002,-1.498797,2.063961,0.106387,-0.391239,0.042492,0.0,19.0,88.0,180.0,25.0,1.0
605822,1.318,-1.515539,2.301627,0.055291,-0.227996,0.117634,0.0,19.0,88.0,180.0,25.0,1.0
605823,1.7312040000000002,-1.528241,2.726659,0.178649,-0.12765,0.128459,0.0,19.0,88.0,180.0,25.0,1.0
605824,2.34998,-1.530679,-2.922806,0.248917,-0.118031,0.06746100000000001,0.0,19.0,88.0,180.0,25.0,1.0
605825,2.84011,-1.518777,-2.422108,0.254108,-0.093786,0.008916,0.0,19.0,88.0,180.0,25.0,1.0
605826,3.10149,-1.501223,-2.158704,0.08666,0.098351,-0.13551400000000002,0.0,19.0,88.0,180.0,25.0,1.0
605827,-3.011406,-1.486609,-1.995946,0.02117,0.21505900000000006,-0.207719,0.0,19.0,88.0,180.0,25.0,1.0
605828,-2.879375,-1.478359,-1.872237,0.032076,0.290661,-0.247811,0.0,19.0,88.0,180.0,25.0,1.0
605829,-2.764032,-1.4755280000000002,-1.7580369999999998,0.268832,0.233279,-0.276395,0.0,19.0,88.0,180.0,25.0,1.0
605830,-2.638575,-1.476793,-1.6275309999999998,0.416403,0.061193,-0.140127,0.0,19.0,88.0,180.0,25.0,1.0
605831,-2.4780290000000003,-1.485007,-1.456995,0.495157,0.077896,-0.052547,0.0,19.0,88.0,180.0,25.0,1.0
605832,-2.205191,-1.502111,-1.167925,0.453514,0.363213,0.036321,0.0,19.0,88.0,180.0,25.0,1.0
605833,-1.565886,-1.515554,-0.508552,0.337661,0.30632,0.141415,0.0,19.0,88.0,180.0,25.0,1.0
605834,-0.736953,-1.495131,0.351095,0.361788,0.298546,0.208639,0.0,19.0,88.0,180.0,25.0,1.0
605835,-0.320328,-1.444203,0.80791,0.208654,0.292426,0.115574,0.0,19.0,88.0,180.0,25.0,1.0
605836,-0.100619,-1.383923,1.059854,0.087189,0.4704430000000001,0.086031,0.0,19.0,88.0,180.0,25.0,1.0
605837,0.033555,-1.323585,1.21238,0.065552,0.58605,0.181162,0.0,19.0,88.0,180.0,25.0,1.0
605838,0.120538,-1.268864,1.313028,0.286066,0.5267270000000001,0.18536,0.0,19.0,88.0,180.0,25.0,1.0
605839,0.172693,-1.223329,1.381016,0.416279,0.139123,0.171604,0.0,19.0,88.0,180.0,25.0,1.0
605840,0.213538,-1.18859,1.445612,0.5920880000000001,-0.008334000000000001,0.189952,0.0,19.0,88.0,180.0,25.0,1.0
605841,0.260741,-1.158758,1.527944,0.474059,-0.021943,0.231423,0.0,19.0,88.0,180.0,25.0,1.0
605842,0.307679,-1.130047,1.622529,0.289898,0.009996,0.287366,0.0,19.0,88.0,180.0,25.0,1.0
605843,0.35184,-1.103832,1.722746,0.139352,0.013052,0.446785,0.0,19.0,88.0,180.0,25.0,1.0
605844,0.387171,-1.083417,1.818167,-0.025438,-0.108417,0.538003,0.0,19.0,88.0,180.0,25.0,1.0
605845,0.403214,-1.068615,1.898919,-0.088601,-0.184793,0.465595,0.0,19.0,88.0,180.0,25.0,1.0
605846,0.405542,-1.058577,1.9695,-0.11862,-0.211854,0.457561,0.0,19.0,88.0,180.0,25.0,1.0
605847,0.397991,-1.052286,2.030853,-0.07957,-0.208356,0.4457430000000001,0.0,19.0,88.0,180.0,25.0,1.0
605848,0.391861,-1.050763,2.088767,-0.075333,-0.14244600000000002,0.429793,0.0,19.0,88.0,180.0,25.0,1.0
605849,0.398939,-1.0540459999999998,2.149443,-0.12828299999999998,-0.049193,0.364715,0.0,19.0,88.0,180.0,25.0,1.0
605850,0.4219100000000001,-1.061701,2.214294,-0.198229,-0.083025,0.328466,0.0,19.0,88.0,180.0,25.0,1.0
605851,0.456536,-1.07382,2.279679,-0.212773,-0.123062,0.32795,0.0,19.0,88.0,180.0,25.0,1.0
605852,0.4986890000000001,-1.088709,2.340679,-0.129777,-0.133969,0.243117,0.0,19.0,88.0,180.0,25.0,1.0
605853,0.5385810000000001,-1.105259,2.395078,-0.024211,-0.049952,0.107492,0.0,19.0,88.0,180.0,25.0,1.0
605854,0.569094,-1.123725,2.444597,0.047825,-0.016051,-0.035899,0.0,19.0,88.0,180.0,25.0,1.0
605855,0.587156,-1.144637,2.491833,0.093684,-0.06266000000000001,-0.159274,0.0,19.0,88.0,180.0,25.0,1.0
605856,0.5917560000000001,-1.166379,2.532171,0.160848,0.005656,-0.148492,0.0,19.0,88.0,180.0,25.0,1.0
605857,0.587062,-1.184475,2.559921,0.391849,-0.047914,-0.234382,0.0,19.0,88.0,180.0,25.0,1.0
605858,0.583205,-1.195723,2.581243,0.524269,-0.06514,-0.233033,0.0,19.0,88.0,180.0,25.0,1.0
605859,0.594835,-1.198536,2.610292,0.62397,-0.058278,-0.16802,0.0,19.0,88.0,180.0,25.0,1.0
605860,0.6248739999999999,-1.19412,2.656294,0.426743,-0.034797,-0.118881,0.0,19.0,88.0,180.0,25.0,1.0
605861,0.668668,-1.187874,2.723496,0.369978,-0.045237,-0.162991,0.0,19.0,88.0,180.0,25.0,1.0
605862,0.728597,-1.18252,2.809731,0.37213,0.837254,0.336061,0.0,19.0,88.0,180.0,25.0,1.0
605863,0.809763,-1.177932,2.902035,0.044115,1.360394,0.499595,0.0,19.0,88.0,180.0,25.0,1.0
605864,0.850187,-1.171449,2.968637,-0.8584579999999999,-0.042576,0.056897,0.0,19.0,88.0,180.0,25.0,1.0
605865,0.8383430000000001,-1.165335,3.011892,-0.8292780000000001,-0.13278800000000002,0.244627,0.0,19.0,88.0,180.0,25.0,1.0
605866,0.7973720000000001,-1.176176,3.022698,-0.585559,-0.190827,0.444237,0.0,19.0,88.0,180.0,25.0,1.0
605867,0.7588550000000001,-1.197945,3.013596,0.093876,-0.15697,0.805875,0.0,19.0,88.0,180.0,25.0,1.0
605868,0.761138,-1.217743,3.025398,0.302084,0.402056,0.605683,0.0,19.0,88.0,180.0,25.0,1.0
605869,0.78654,-1.231998,3.057633,0.22624,0.4354770000000001,0.131225,0.0,19.0,88.0,180.0,25.0,1.0
605870,0.844827,-1.2442,3.134003,0.120607,0.040668,-0.031649000000000004,0.0,19.0,88.0,180.0,25.0,1.0
605871,0.913357,-1.255935,-3.0581720000000003,-0.034485,0.005276,0.041052,0.0,19.0,88.0,180.0,25.0,1.0
605872,0.966022,-1.267844,-2.986437,-0.035369,0.011177,0.126629,0.0,19.0,88.0,180.0,25.0,1.0
605873,1.001087,-1.2818200000000002,-2.93546,0.034819,-0.011774,0.107551,0.0,19.0,88.0,180.0,25.0,1.0
605874,1.036776,-1.298309,-2.887518,0.092197,-0.114716,0.055717,0.0,19.0,88.0,180.0,25.0,1.0
605875,1.084504,-1.316017,-2.830487,0.12434,-0.13330699999999998,0.035801,0.0,19.0,88.0,180.0,25.0,1.0
605876,1.142462,-1.331029,-2.763052,0.123427,-0.128482,0.025623000000000003,0.0,19.0,88.0,180.0,25.0,1.0
605877,1.19725,-1.341777,-2.696118,0.012148,-0.089749,0.040317,0.0,19.0,88.0,180.0,25.0,1.0
605878,1.233952,-1.348647,-2.643273,0.037832,-0.093087,-0.00034700000000000003,0.0,19.0,88.0,180.0,25.0,1.0
605879,1.259885,-1.35278,-2.599687,0.069074,-0.06846100000000001,-0.010049,0.0,19.0,88.0,180.0,25.0,1.0
605880,1.273157,-1.354038,-2.56845,0.076239,-0.144767,0.019476,0.0,19.0,88.0,180.0,25.0,1.0
605881,1.266948,-1.35279,-2.558256,0.028398000000000007,-0.243131,-0.0057090000000000005,0.0,19.0,88.0,180.0,25.0,1.0
605882,1.2369450000000002,-1.350276,-2.575739,-0.008752,-0.251769,-0.056757,0.0,19.0,88.0,180.0,25.0,1.0
605883,1.185784,-1.348582,-2.615086,-0.124573,-0.244272,-0.06816900000000001,0.0,19.0,88.0,180.0,25.0,1.0
605884,1.112717,-1.348313,-2.67508,-0.091061,-0.158656,-0.066012,0.0,19.0,88.0,180.0,25.0,1.0
605885,1.032725,-1.349358,-2.742451,-0.016585,-0.068478,-0.031486,0.0,19.0,88.0,180.0,25.0,1.0
605886,0.960162,-1.351027,-2.807727,0.163527,0.123982,-0.047226,0.0,19.0,88.0,180.0,25.0,1.0
605887,0.879518,-1.34815,-2.88565,0.17088499999999998,-0.15723199999999998,0.06965,0.0,19.0,88.0,180.0,25.0,1.0
605888,0.800667,-1.338841,-2.966321,0.168301,-0.233183,0.069563,0.0,19.0,88.0,180.0,25.0,1.0
605889,0.728665,-1.327017,-3.036696,0.068937,-0.349552,0.076929,0.0,19.0,88.0,180.0,25.0,1.0
605890,0.656483,-1.3159809999999998,-3.09904,0.049586,-0.403577,0.103252,0.0,19.0,88.0,180.0,25.0,1.0
605891,0.591179,-1.3079,3.131353,0.049175,-0.425434,0.16258,0.0,19.0,88.0,180.0,25.0,1.0
605892,0.531716,-1.300941,3.084985,-0.021503,-0.145069,0.095494,0.0,19.0,88.0,180.0,25.0,1.0
605893,0.474383,-1.292937,3.041266,-0.082221,0.27329499999999995,0.049428,0.0,19.0,88.0,180.0,25.0,1.0
605894,0.415069,-1.2779969999999998,2.995842,-0.100966,0.371357,0.051951,0.0,19.0,88.0,180.0,25.0,1.0
605895,0.369208,-1.252222,2.959335,-0.137521,0.656472,-0.136682,0.0,19.0,88.0,180.0,25.0,1.0
605896,0.33484400000000003,-1.215506,2.931664,-0.089107,0.607224,-0.180659,0.0,19.0,88.0,180.0,25.0,1.0
605897,0.306973,-1.169123,2.904487,0.147609,0.375139,-0.15811,0.0,19.0,88.0,180.0,25.0,1.0
605898,0.289019,-1.120952,2.880618,0.202867,0.457136,0.006512,0.0,19.0,88.0,180.0,25.0,1.0
605899,0.279152,-1.078666,2.862326,0.218317,0.564717,-0.036662,0.0,19.0,88.0,180.0,25.0,1.0
605900,0.293209,-1.0443209999999998,2.862114,0.198655,0.494547,-0.249837,0.0,19.0,88.0,180.0,25.0,1.0
605901,0.32873,-1.0222440000000002,2.88646,0.244587,0.17543699999999998,-0.320938,0.0,19.0,88.0,180.0,25.0,1.0
605902,0.367075,-1.011684,2.926247,0.222583,-0.06603400000000001,-0.092046,0.0,19.0,88.0,180.0,25.0,1.0
605903,0.400893,-1.007994,2.975331,0.145452,-0.215957,0.13722,0.0,19.0,88.0,180.0,25.0,1.0
605904,0.4260390000000001,-1.010191,3.023691,0.052392,-0.281092,0.215142,0.0,19.0,88.0,180.0,25.0,1.0
605905,0.447981,-1.017648,3.069024,-0.083503,-0.306136,0.255464,0.0,19.0,88.0,180.0,25.0,1.0
605906,0.477871,-1.028623,3.1155,-0.222639,-0.344016,0.280445,0.0,19.0,88.0,180.0,25.0,1.0
605907,0.518713,-1.043304,-3.119552,-0.375451,-0.453901,0.311345,0.0,19.0,88.0,180.0,25.0,1.0
605908,0.5707810000000001,-1.062267,-3.070688,-0.377565,-0.425097,0.337643,0.0,19.0,88.0,180.0,25.0,1.0
605909,0.6300020000000001,-1.085374,-3.023067,-0.305799,-0.429324,0.260631,0.0,19.0,88.0,180.0,25.0,1.0
605910,0.693786,-1.113051,-2.974997,-0.272321,-0.385577,0.11627,0.0,19.0,88.0,180.0,25.0,1.0
605911,0.7565529999999999,-1.146244,-2.9286380000000003,-0.233535,-0.304824,0.033829000000000005,0.0,19.0,88.0,180.0,25.0,1.0
605912,0.8079529999999999,-1.182442,-2.892053,-0.17868,-0.123119,-0.059349,0.0,19.0,88.0,180.0,25.0,1.0
605913,0.8377190000000001,-1.218778,-2.869144,-0.07603,0.082165,-0.11628,0.0,19.0,88.0,180.0,25.0,1.0
605914,0.853284,-1.253571,-2.853895,0.022883,0.272353,-0.132732,0.0,19.0,88.0,180.0,25.0,1.0
605915,0.86431,-1.28125,-2.844901,0.112901,0.27295,-0.196031,0.0,19.0,88.0,180.0,25.0,1.0
605916,0.860532,-1.3000120000000002,-2.856099,0.297927,0.12349,-0.498746,0.0,19.0,88.0,180.0,25.0,1.0
605917,0.853289,-1.310901,-2.876784,0.312301,-0.00461,-0.531474,0.0,19.0,88.0,180.0,25.0,1.0
605918,0.855875,-1.315187,-2.889273,0.214271,-0.24525,-0.332498,0.0,19.0,88.0,180.0,25.0,1.0
605919,0.855237,-1.313841,-2.900268,0.138336,-0.309682,-0.122934,0.0,19.0,88.0,180.0,25.0,1.0
605920,0.8629600000000001,-1.311433,-2.8960630000000003,0.073259,-0.219132,-0.130018,0.0,19.0,88.0,180.0,25.0,1.0
605921,0.909024,-1.315131,-2.849475,0.068608,-0.220074,-0.14136500000000002,0.0,19.0,88.0,180.0,25.0,1.0
605922,1.006023,-1.321738,-2.7532080000000003,0.08674,0.076784,-0.073334,0.0,19.0,88.0,180.0,25.0,1.0
605923,1.125343,-1.325148,-2.63464,0.061477,0.443777,0.072233,0.0,19.0,88.0,180.0,25.0,1.0
605924,1.24534,-1.327351,-2.510143,0.031938,0.632804,0.291428,0.0,19.0,88.0,180.0,25.0,1.0
605925,1.279411,-1.327588,-2.452641,0.131472,0.332866,-0.099566,0.0,19.0,88.0,180.0,25.0,1.0
605926,1.259487,-1.32844,-2.445447,0.105867,0.010106,0.282341,0.0,19.0,88.0,180.0,25.0,1.0
605927,1.261107,-1.328638,-2.430092,0.102727,0.15220899999999998,0.294822,0.0,19.0,88.0,180.0,25.0,1.0
605928,1.287456,-1.332015,-2.390616,-0.053867,0.163642,0.175084,0.0,19.0,88.0,180.0,25.0,1.0
605929,1.318898,-1.337914,-2.349312,-0.030337,0.214342,0.079325,0.0,19.0,88.0,180.0,25.0,1.0
605930,1.366184,-1.343161,-2.306216,0.022748,0.378062,-0.007353,0.0,19.0,88.0,180.0,25.0,1.0
605931,1.427295,-1.345503,-2.260544,0.197104,0.162631,0.022639,0.0,19.0,88.0,180.0,25.0,1.0
605932,1.464846,-1.343917,-2.239653,0.080342,-0.036141,0.016128,0.0,19.0,88.0,180.0,25.0,1.0
605933,1.477875,-1.344398,-2.237724,0.068234,-0.20788,0.047866000000000006,0.0,19.0,88.0,180.0,25.0,1.0
605934,1.4876,-1.3475549999999998,-2.237373,0.073658,-0.2924,-0.020482,0.0,19.0,88.0,180.0,25.0,1.0
605935,1.499378,-1.352116,-2.23482,0.075941,-0.239185,-0.114067,0.0,19.0,88.0,180.0,25.0,1.0
605936,1.510622,-1.357373,-2.230399,0.13228199999999998,-0.13492,-0.161853,0.0,19.0,88.0,180.0,25.0,1.0
605937,1.507088,-1.362085,-2.237679,0.217339,-0.121426,-0.141624,0.0,19.0,88.0,180.0,25.0,1.0
605938,1.4800950000000002,-1.364787,-2.264943,0.141058,-0.254398,-0.155254,0.0,19.0,88.0,180.0,25.0,1.0
605939,1.433154,-1.366522,-2.309493,0.064047,-0.383475,-0.157546,0.0,19.0,88.0,180.0,25.0,1.0
605940,1.364188,-1.368218,-2.377867,0.03105,-0.450071,-0.1438,0.0,19.0,88.0,180.0,25.0,1.0
605941,1.2779200000000002,-1.368919,-2.469262,0.054185,-0.423921,-0.149876,0.0,19.0,88.0,180.0,25.0,1.0
605942,1.1889809999999998,-1.367588,-2.566313,0.07658999999999999,-0.355202,-0.200057,0.0,19.0,88.0,180.0,25.0,1.0
605943,1.098411,-1.364541,-2.6585080000000003,0.175893,-0.182265,-0.084076,0.0,19.0,88.0,180.0,25.0,1.0
605944,0.994039,-1.358599,-2.756009,0.208745,-0.273316,-0.094977,0.0,19.0,88.0,180.0,25.0,1.0
605945,0.8553930000000001,-1.34695,-2.87326,0.177398,-0.321807,-0.014996,0.0,19.0,88.0,180.0,25.0,1.0
605946,0.696542,-1.326506,-2.999858,0.036094,0.147092,-0.053531,0.0,19.0,88.0,180.0,25.0,1.0
605947,0.568054,-1.2959969999999998,-3.0978380000000003,-0.206228,0.432616,-0.029976,0.0,19.0,88.0,180.0,25.0,1.0
605948,0.4711,-1.254175,3.1120240000000003,-0.398197,0.825449,0.052115,0.0,19.0,88.0,180.0,25.0,1.0
605949,0.411943,-1.200097,3.058273,-0.224211,0.899942,0.021292,0.0,19.0,88.0,180.0,25.0,1.0
605950,0.386056,-1.142053,3.019873,-0.05383,0.512005,0.035307,0.0,19.0,88.0,180.0,25.0,1.0
605951,0.373359,-1.093711,2.986014,-0.06478099999999999,0.533157,0.077734,0.0,19.0,88.0,180.0,25.0,1.0
605952,0.379469,-1.055759,2.962874,0.24695300000000006,0.31963600000000003,-0.038293,0.0,19.0,88.0,180.0,25.0,1.0
605953,0.398048,-1.026131,2.958809,0.425307,0.18811,-0.178947,0.0,19.0,88.0,180.0,25.0,1.0
605954,0.423843,-1.004609,2.97345,0.329667,0.08756599999999999,-0.115692,0.0,19.0,88.0,180.0,25.0,1.0
605955,0.454288,-0.993594,3.002281,-0.025636000000000003,-0.107081,0.111856,0.0,19.0,88.0,180.0,25.0,1.0
605956,0.488125,-0.99146,3.036833,-0.129137,-0.256626,0.174526,0.0,19.0,88.0,180.0,25.0,1.0
605957,0.5301319999999999,-0.996431,3.075287,-0.157486,-0.296767,0.187921,0.0,19.0,88.0,180.0,25.0,1.0
605958,0.580227,-1.00919,3.117102,-0.213184,-0.515422,0.19371,0.0,19.0,88.0,180.0,25.0,1.0
605959,0.6372869999999999,-1.029118,-3.12017,-0.254224,-0.571872,0.224997,0.0,19.0,88.0,180.0,25.0,1.0
605960,0.700812,-1.057734,-3.069125,-0.256459,-0.628142,0.216015,0.0,19.0,88.0,180.0,25.0,1.0
605961,0.77298,-1.095844,-3.009973,-0.246669,-0.6090260000000001,0.213425,0.0,19.0,88.0,180.0,25.0,1.0
605962,0.8527819999999999,-1.139904,-2.94088,-0.231799,-0.6002890000000001,0.178552,0.0,19.0,88.0,180.0,25.0,1.0
605963,0.929933,-1.186375,-2.867311,-0.268246,-0.397719,0.077737,0.0,19.0,88.0,180.0,25.0,1.0
605964,0.999107,-1.230736,-2.7925720000000003,-0.23035100000000006,-0.0701,-0.054658000000000005,0.0,19.0,88.0,180.0,25.0,1.0
605965,1.040443,-1.269195,-2.734637,-0.167909,0.20856,-0.336832,0.0,19.0,88.0,180.0,25.0,1.0
605966,1.05185,-1.296839,-2.696672,-0.092788,0.29335,-0.41001,0.0,19.0,88.0,180.0,25.0,1.0
605967,1.040292,-1.308125,-2.687907,0.352659,-0.054842,-0.356047,0.0,19.0,88.0,180.0,25.0,1.0
605968,1.032542,-1.301098,-2.713082,0.348107,-0.178832,-0.335993,0.0,19.0,88.0,180.0,25.0,1.0
605969,1.066819,-1.283218,-2.730966,0.186358,-0.170695,-0.29156,0.0,19.0,88.0,180.0,25.0,1.0
605970,1.158974,-1.279069,-2.685174,-0.063319,0.362274,0.538981,0.0,19.0,88.0,180.0,25.0,1.0
605971,1.226446,-1.281751,-2.622762,0.122765,0.887126,0.051988,0.0,19.0,88.0,180.0,25.0,1.0
605972,1.21626,-1.288551,-2.594435,0.355509,0.839983,-0.039116000000000005,0.0,19.0,88.0,180.0,25.0,1.0
605973,1.2096209999999998,-1.285256,-2.567102,0.033587,0.214364,-0.045773,0.0,19.0,88.0,180.0,25.0,1.0
605974,1.235992,-1.28218,-2.523211,-0.211325,0.56901,-0.040068,0.0,19.0,88.0,180.0,25.0,1.0
605975,1.236318,-1.287747,-2.497591,-0.293713,0.730054,-0.01017,0.0,19.0,88.0,180.0,25.0,1.0
605976,1.2421950000000002,-1.294731,-2.482673,0.279215,0.357475,0.014828,0.0,19.0,88.0,180.0,25.0,1.0
605977,1.256756,-1.2974290000000002,-2.471141,0.273718,0.284737,0.025336,0.0,19.0,88.0,180.0,25.0,1.0
605978,1.263957,-1.297808,-2.464122,-0.007565,0.008909,0.089689,0.0,19.0,88.0,180.0,25.0,1.0
605979,1.256071,-1.299485,-2.463977,-0.116036,-0.22460500000000005,0.069516,0.0,19.0,88.0,180.0,25.0,1.0
605980,1.238792,-1.304717,-2.467582,-0.034967000000000005,-0.352627,0.039151,0.0,19.0,88.0,180.0,25.0,1.0
605981,1.23449,-1.313711,-2.466369,0.041584,-0.354235,0.00656,0.0,19.0,88.0,180.0,25.0,1.0
605982,1.246756,-1.323414,-2.4585220000000003,0.244777,-0.109449,-0.152855,0.0,19.0,88.0,180.0,25.0,1.0
605983,1.246024,-1.328083,-2.462548,0.17385599999999998,-0.121691,-0.214281,0.0,19.0,88.0,180.0,25.0,1.0
605984,1.216789,-1.328902,-2.490285,0.124862,-0.224594,-0.180709,0.0,19.0,88.0,180.0,25.0,1.0
605985,1.161467,-1.32786,-2.540751,0.037699,-0.376749,-0.194332,0.0,19.0,88.0,180.0,25.0,1.0
605986,1.087278,-1.324568,-2.614236,0.041581,-0.399679,-0.057627,0.0,19.0,88.0,180.0,25.0,1.0
605987,1.015926,-1.3184129999999998,-2.691019,0.007344,-0.409055,-0.052771000000000005,0.0,19.0,88.0,180.0,25.0,1.0
605988,0.940512,-1.310119,-2.765344,0.0008640000000000001,-0.302931,-0.211533,0.0,19.0,88.0,180.0,25.0,1.0
605989,0.85195,-1.298088,-2.846295,0.224262,-0.342485,-0.067662,0.0,19.0,88.0,180.0,25.0,1.0
605990,0.757478,-1.279276,-2.931616,0.248831,-0.32316500000000004,0.097935,0.0,19.0,88.0,180.0,25.0,1.0
605991,0.6635939999999999,-1.252889,-3.006877,-0.002332,0.305892,-0.014041,0.0,19.0,88.0,180.0,25.0,1.0
605992,0.588128,-1.218702,-3.056663,-0.134401,0.873558,-0.107307,0.0,19.0,88.0,180.0,25.0,1.0
605993,0.541621,-1.175927,-3.088295,-0.14138499999999998,0.8891629999999999,-0.064599,0.0,19.0,88.0,180.0,25.0,1.0
605994,0.516299,-1.126831,-3.112721,-0.053379,0.390935,0.11473,0.0,19.0,88.0,180.0,25.0,1.0
605995,0.4935479999999999,-1.081141,-3.137843,0.010293,0.35987600000000003,-0.011086,0.0,19.0,88.0,180.0,25.0,1.0
605996,0.474666,-1.044274,3.1216060000000003,0.003432,0.37781,0.021694,0.0,19.0,88.0,180.0,25.0,1.0
605997,0.471552,-1.017724,3.112182,0.106067,0.410865,-0.130354,0.0,19.0,88.0,180.0,25.0,1.0
605998,0.479907,-0.999533,3.115992,0.15176099999999998,0.176222,-0.155698,0.0,19.0,88.0,180.0,25.0,1.0
605999,0.500325,-0.989302,3.130571,0.137906,0.181798,-0.153368,0.0,19.0,88.0,180.0,25.0,1.0
606000,0.529837,-0.983995,-3.130298,0.0731,-0.032301,0.14488099999999998,0.0,19.0,88.0,180.0,25.0,1.0
606001,0.563033,-0.982558,-3.103431,-0.026784,-0.19337,0.195088,0.0,19.0,88.0,180.0,25.0,1.0
606002,0.599295,-0.987412,-3.072899,-0.04132,-0.196053,0.180702,0.0,19.0,88.0,180.0,25.0,1.0
606003,0.638915,-0.999538,-3.037409,-0.222955,-0.358677,0.15924000000000002,0.0,19.0,88.0,180.0,25.0,1.0
606004,0.682724,-1.019919,-2.9958240000000003,-0.258447,-0.40335,0.143049,0.0,19.0,88.0,180.0,25.0,1.0
606005,0.730869,-1.049283,-2.948809,-0.305544,-0.472504,0.152995,0.0,19.0,88.0,180.0,25.0,1.0
606006,0.782184,-1.0847790000000002,-2.898891,-0.249764,-0.4653310000000001,0.158076,0.0,19.0,88.0,180.0,25.0,1.0
606007,0.833024,-1.123438,-2.847228,-0.16178900000000002,-0.329861,0.114323,0.0,19.0,88.0,180.0,25.0,1.0
606008,0.88282,-1.163434,-2.792648,-0.156959,-0.266848,0.058729,0.0,19.0,88.0,180.0,25.0,1.0
606009,0.933759,-1.202402,-2.735431,-0.162347,0.013474000000000002,-0.054245,0.0,19.0,88.0,180.0,25.0,1.0
606010,0.982381,-1.2359870000000002,-2.679488,-0.13053399999999998,0.363144,-0.193917,0.0,19.0,88.0,180.0,25.0,1.0
606011,1.019527,-1.260669,-2.634467,-0.12061,0.279013,-0.246071,0.0,19.0,88.0,180.0,25.0,1.0
606012,1.0356040000000002,-1.2747959999999998,-2.608769,0.15014,-0.118162,-0.286353,0.0,19.0,88.0,180.0,25.0,1.0
606013,1.031112,-1.2772629999999998,-2.613279,0.30859699999999995,-0.308332,-0.18645,0.0,19.0,88.0,180.0,25.0,1.0
606014,1.036811,-1.272255,-2.630721,0.175198,-0.365709,-0.104939,0.0,19.0,88.0,180.0,25.0,1.0
606015,1.065549,-1.265493,-2.638657,-0.200569,-0.311819,0.0339,0.0,19.0,88.0,180.0,25.0,1.0
606016,1.109325,-1.269729,-2.623695,-0.350434,-0.088321,-0.010204,0.0,19.0,88.0,180.0,25.0,1.0
606017,1.175007,-1.2857809999999998,-2.563109,-0.256153,0.081465,-0.095044,0.0,19.0,88.0,180.0,25.0,1.0
606018,1.251756,-1.305856,-2.474231,0.094855,0.352244,0.064827,0.0,19.0,88.0,180.0,25.0,1.0
606019,1.314048,-1.319419,-2.395204,0.340258,0.4294850000000001,0.164634,0.0,19.0,88.0,180.0,25.0,1.0
606020,1.385711,-1.319682,-2.316651,0.422663,0.067893,-0.003481,0.0,19.0,88.0,180.0,25.0,1.0
606021,1.450251,-1.315527,-2.245932,0.025954,0.270717,0.021423,0.0,19.0,88.0,180.0,25.0,1.0
606022,1.489201,-1.317532,-2.187797,-0.086537,0.913935,-0.19459,0.0,19.0,88.0,180.0,25.0,1.0
606023,1.524667,-1.321146,-2.142486,0.030802,1.051112,-0.186605,0.0,19.0,88.0,180.0,25.0,1.0
606024,1.544013,-1.317122,-2.135016,0.425795,0.189108,0.143165,0.0,19.0,88.0,180.0,25.0,1.0
606025,1.542302,-1.308567,-2.150602,0.32237,0.184088,0.105316,0.0,19.0,88.0,180.0,25.0,1.0
606026,1.529474,-1.302381,-2.162769,-0.047507,-0.005025,-0.032195999999999995,0.0,19.0,88.0,180.0,25.0,1.0
606027,1.518456,-1.300374,-2.166374,-0.112687,-0.064229,0.143858,0.0,19.0,88.0,180.0,25.0,1.0
606028,1.535999,-1.303805,-2.15184,-0.122205,-0.048325,0.178017,0.0,19.0,88.0,180.0,25.0,1.0
606029,1.585437,-1.313131,-2.117948,-0.093021,-0.020744,0.149544,0.0,19.0,88.0,180.0,25.0,1.0
606030,1.641766,-1.322828,-2.076983,0.138683,-0.058799,-0.08428300000000001,0.0,19.0,88.0,180.0,25.0,1.0
606031,1.7036639999999998,-1.328463,-2.024206,0.226428,-0.173311,-0.095083,0.0,19.0,88.0,180.0,25.0,1.0
606032,1.761429,-1.330197,-1.971861,0.225294,-0.221684,-0.093703,0.0,19.0,88.0,180.0,25.0,1.0
606033,1.794315,-1.330432,-1.94103,0.038559,-0.32205100000000003,-0.203112,0.0,19.0,88.0,180.0,25.0,1.0
606034,1.801854,-1.331127,-1.931788,0.005182,-0.27334200000000003,-0.300837,0.0,19.0,88.0,180.0,25.0,1.0
606035,1.785253,-1.334939,-1.946673,0.007932,-0.27424,-0.296205,0.0,19.0,88.0,180.0,25.0,1.0
606036,1.749536,-1.340649,-1.986322,0.16836900000000002,-0.080093,-0.208114,0.0,19.0,88.0,180.0,25.0,1.0
606037,1.6924419999999998,-1.346003,-2.051625,0.159422,-0.109514,-0.171381,0.0,19.0,88.0,180.0,25.0,1.0
606038,1.604374,-1.350252,-2.139447,0.16204100000000002,-0.110453,-0.151677,0.0,19.0,88.0,180.0,25.0,1.0
606039,1.493087,-1.354444,-2.239032,0.108521,-0.366442,-0.024,0.0,19.0,88.0,180.0,25.0,1.0
606040,1.369781,-1.356788,-2.350572,0.162749,-0.362655,0.032456,0.0,19.0,88.0,180.0,25.0,1.0
606041,1.242585,-1.353472,-2.462965,0.109111,-0.315864,0.006638,0.0,19.0,88.0,180.0,25.0,1.0
606042,1.092608,-1.343509,-2.592873,0.118806,-0.12278,-0.123436,0.0,19.0,88.0,180.0,25.0,1.0
606043,0.939283,-1.325271,-2.721556,0.10418399999999997,-0.044168,0.038455,0.0,19.0,88.0,180.0,25.0,1.0
606044,0.801708,-1.2962360000000002,-2.83184,0.010325,0.091258,0.099343,0.0,19.0,88.0,180.0,25.0,1.0
606045,0.679751,-1.255916,-2.925297,-0.273399,0.7312960000000001,-0.196696,0.0,19.0,88.0,180.0,25.0,1.0
606046,0.587055,-1.203063,-3.002949,-0.281453,0.786033,0.089686,0.0,19.0,88.0,180.0,25.0,1.0
606047,0.521946,-1.143864,-3.0703970000000003,-0.14999,0.5914229999999999,0.106946,0.0,19.0,88.0,180.0,25.0,1.0
606048,0.474035,-1.093138,-3.133376,0.010462,0.532748,-0.057205,0.0,19.0,88.0,180.0,25.0,1.0
606049,0.455598,-1.050997,3.104649,0.301347,0.812898,-0.116245,0.0,19.0,88.0,180.0,25.0,1.0
606050,0.462096,-1.011762,3.091282,0.250213,0.6477,-0.160389,0.0,19.0,88.0,180.0,25.0,1.0
606051,0.483913,-0.981332,3.100867,0.16101,0.067062,-0.202097,0.0,19.0,88.0,180.0,25.0,1.0
606052,0.512419,-0.961777,3.12223,0.148358,-0.197529,0.048209,0.0,19.0,88.0,180.0,25.0,1.0
606053,0.538953,-0.953013,-3.134841,0.08092200000000001,-0.180262,0.122,0.0,19.0,88.0,180.0,25.0,1.0
606054,0.557508,-0.952328,-3.111313,-0.037844,-0.279047,0.231817,0.0,19.0,88.0,180.0,25.0,1.0
606055,0.5718770000000001,-0.957903,-3.088243,-0.346023,-0.383005,0.29775,0.0,19.0,88.0,180.0,25.0,1.0
606056,0.5906170000000001,-0.970272,-3.063751,-0.392038,-0.464429,0.276387,0.0,19.0,88.0,180.0,25.0,1.0
606057,0.619278,-0.991317,-3.035775,-0.320333,-0.522035,0.201927,0.0,19.0,88.0,180.0,25.0,1.0
606058,0.657602,-1.022925,-3.003311,-0.218514,-0.522962,0.198092,0.0,19.0,88.0,180.0,25.0,1.0
606059,0.706462,-1.061141,-2.961632,-0.176124,-0.495715,0.162873,0.0,19.0,88.0,180.0,25.0,1.0
606060,0.768841,-1.103942,-2.90782,-0.25978,-0.491011,0.124689,0.0,19.0,88.0,180.0,25.0,1.0
606061,0.83972,-1.154567,-2.847021,-0.235686,-0.277093,0.062887,0.0,19.0,88.0,180.0,25.0,1.0
606062,0.896668,-1.208256,-2.794356,-0.109255,0.141249,-0.057201,0.0,19.0,88.0,180.0,25.0,1.0
606063,0.932118,-1.256393,-2.751098,-0.039413,0.410637,-0.230471,0.0,19.0,88.0,180.0,25.0,1.0
606064,0.962759,-1.291851,-2.706469,0.059164,0.383533,-0.440335,0.0,19.0,88.0,180.0,25.0,1.0
606065,0.98321,-1.311241,-2.675492,0.260455,0.011249,-0.589109,0.0,19.0,88.0,180.0,25.0,1.0
606066,0.990573,-1.316524,-2.672089,0.139237,-0.27215300000000003,-0.8679319999999999,0.0,19.0,88.0,180.0,25.0,1.0
606067,0.988358,-1.304596,-2.696045,-0.00996,-0.150584,-0.332364,0.0,19.0,88.0,180.0,25.0,1.0
606068,1.015149,-1.290386,-2.698941,-0.08332,-0.108326,0.229373,0.0,19.0,88.0,180.0,25.0,1.0
606069,1.075327,-1.282793,-2.6641630000000003,0.100507,0.38538,0.448337,0.0,19.0,88.0,180.0,25.0,1.0
606070,1.147565,-1.2808620000000002,-2.590371,-0.036679,0.764958,0.296494,0.0,19.0,88.0,180.0,25.0,1.0
606071,1.141289,-1.27995,-2.56653,0.17710499999999998,0.634329,-0.04062,0.0,19.0,88.0,180.0,25.0,1.0
606072,1.162706,-1.268833,-2.534783,0.289131,-0.15762,0.458813,0.0,19.0,88.0,180.0,25.0,1.0
606073,1.1870379999999998,-1.25613,-2.497703,-0.123778,-0.16788,0.365589,0.0,19.0,88.0,180.0,25.0,1.0
606074,1.216856,-1.256315,-2.452681,-0.317065,0.249681,-0.015577,0.0,19.0,88.0,180.0,25.0,1.0
606075,1.26241,-1.268329,-2.409394,0.203115,0.526475,-0.067105,0.0,19.0,88.0,180.0,25.0,1.0
606076,1.279574,-1.275358,-2.40542,0.132905,0.178396,0.069469,0.0,19.0,88.0,180.0,25.0,1.0
606077,1.286776,-1.278043,-2.414559,0.210613,0.078329,0.095607,0.0,19.0,88.0,180.0,25.0,1.0
606078,1.322865,-1.282328,-2.397359,0.194277,-0.031068,0.052234,0.0,19.0,88.0,180.0,25.0,1.0
606079,1.374771,-1.288171,-2.3587700000000003,0.09623,-0.167266,-0.038792,0.0,19.0,88.0,180.0,25.0,1.0
606080,1.436126,-1.297218,-2.307358,0.102034,-0.16975,-0.056834,0.0,19.0,88.0,180.0,25.0,1.0
606081,1.496718,-1.307927,-2.254225,0.101654,-0.225322,-0.133616,0.0,19.0,88.0,180.0,25.0,1.0
606082,1.557532,-1.316417,-2.197841,0.071451,-0.211502,-0.113239,0.0,19.0,88.0,180.0,25.0,1.0
606083,1.6131,-1.322798,-2.147519,0.077829,-0.213089,-0.126958,0.0,19.0,88.0,180.0,25.0,1.0
606084,1.650828,-1.327901,-2.115151,0.039812,-0.19939,-0.204119,0.0,19.0,88.0,180.0,25.0,1.0
606085,1.66445,-1.332205,-2.106098,0.030937,-0.252571,-0.264594,0.0,19.0,88.0,180.0,25.0,1.0
606086,1.6414349999999998,-1.3370959999999998,-2.133099,0.035233,-0.253715,-0.258838,0.0,19.0,88.0,180.0,25.0,1.0
606087,1.57854,-1.343331,-2.201903,0.065987,-0.368147,-0.194327,0.0,19.0,88.0,180.0,25.0,1.0
606088,1.496892,-1.348205,-2.2934240000000004,0.222595,-0.281481,-0.267803,0.0,19.0,88.0,180.0,25.0,1.0
606089,1.40175,-1.35047,-2.3853880000000003,0.227317,-0.281979,-0.247335,0.0,19.0,88.0,180.0,25.0,1.0
606090,1.293719,-1.352624,-2.475941,0.081377,-0.33625,-0.053326,0.0,19.0,88.0,180.0,25.0,1.0
606091,1.159477,-1.351215,-2.592661,0.146005,-0.28020300000000004,-0.039666,0.0,19.0,88.0,180.0,25.0,1.0
606092,1.0110629999999998,-1.341541,-2.726427,0.134623,-0.233113,-0.047338,0.0,19.0,88.0,180.0,25.0,1.0
606093,0.847778,-1.320934,-2.868445,-0.07470299999999999,-0.078184,-0.097365,0.0,19.0,88.0,180.0,25.0,1.0
606094,0.6737989999999999,-1.285898,-3.009073,-0.119828,0.280483,-0.12152,0.0,19.0,88.0,180.0,25.0,1.0
606095,0.5329619999999999,-1.237685,-3.11479,-0.070754,0.494622,-0.14066900000000002,0.0,19.0,88.0,180.0,25.0,1.0
606096,0.4279689999999999,-1.177514,3.08894,0.008785,1.048268,-0.073689,0.0,19.0,88.0,180.0,25.0,1.0
606097,0.357558,-1.118628,3.031889,-0.035286,1.11562,0.338071,0.0,19.0,88.0,180.0,25.0,1.0
606098,0.310257,-1.065053,2.988542,-0.093509,0.414034,0.263543,0.0,19.0,88.0,180.0,25.0,1.0
606099,0.274208,-1.025228,2.95166,-0.078042,0.237407,-0.041452,0.0,19.0,88.0,180.0,25.0,1.0
606100,0.262707,-0.993898,2.93154,0.037982,0.5264810000000001,-0.046422000000000005,0.0,19.0,88.0,180.0,25.0,1.0
606101,0.275965,-0.972881,2.934457,0.062148,0.421139,0.052882000000000005,0.0,19.0,88.0,180.0,25.0,1.0
606102,0.308728,-0.9637,2.954561,0.026092,-0.114338,0.116968,0.0,19.0,88.0,180.0,25.0,1.0
606103,0.359809,-0.967347,2.990512,0.014561,-0.412479,0.139255,0.0,19.0,88.0,180.0,25.0,1.0
606104,0.426043,-0.979782,3.0369330000000003,-0.022344,-0.462609,0.134027,0.0,19.0,88.0,180.0,25.0,1.0
606105,0.500622,-1.000234,3.08707,-0.001209,-0.6218560000000001,0.036234,0.0,19.0,88.0,180.0,25.0,1.0
606106,0.579691,-1.0318,-3.139001,-0.004634,-0.714395,0.020242,0.0,19.0,88.0,180.0,25.0,1.0
606107,0.659948,-1.072635,-3.072237,-0.10638,-0.796111,0.070338,0.0,19.0,88.0,180.0,25.0,1.0
606108,0.738657,-1.117939,-2.999096,-0.23258,-0.705353,0.055528,0.0,19.0,88.0,180.0,25.0,1.0
606109,0.807318,-1.168167,-2.925661,-0.223295,-0.405919,-0.002764,0.0,19.0,88.0,180.0,25.0,1.0
606110,0.8593709999999999,-1.219463,-2.85564,-0.08746799999999999,-0.036922,-0.07274,0.0,19.0,88.0,180.0,25.0,1.0
606111,0.884792,-1.261175,-2.805094,-0.055137,0.179357,-0.202573,0.0,19.0,88.0,180.0,25.0,1.0
606112,0.877453,-1.288378,-2.788341,-0.107692,0.008717,-0.193048,0.0,19.0,88.0,180.0,25.0,1.0
606113,0.885545,-1.301925,-2.773341,-0.107791,-0.265402,-0.15953499999999998,0.0,19.0,88.0,180.0,25.0,1.0
606114,0.952828,-1.3110879999999998,-2.725695,-0.194336,-0.141758,-0.13223800000000002,0.0,19.0,88.0,180.0,25.0,1.0
606115,1.083693,-1.323452,-2.632566,-0.00566,0.51484,-0.037213,0.0,19.0,88.0,180.0,25.0,1.0
606116,1.242169,-1.333436,-2.510324,0.23576100000000005,0.843025,0.197181,0.0,19.0,88.0,180.0,25.0,1.0
606117,1.293932,-1.330422,-2.466029,0.655692,0.797886,0.157236,0.0,19.0,88.0,180.0,25.0,1.0
606118,1.30894,-1.32132,-2.437377,0.7489779999999999,0.084944,-0.043171,0.0,19.0,88.0,180.0,25.0,1.0
606119,1.332058,-1.306838,-2.398192,0.391975,-0.019488,0.05799,0.0,19.0,88.0,180.0,25.0,1.0
606120,1.32834,-1.30025,-2.375486,-0.095392,0.8380559999999999,-0.070189,0.0,19.0,88.0,180.0,25.0,1.0
606121,1.342293,-1.302732,-2.350821,0.141663,0.529489,0.014526,0.0,19.0,88.0,180.0,25.0,1.0
606122,1.35907,-1.304877,-2.338522,0.187577,0.319649,0.043721,0.0,19.0,88.0,180.0,25.0,1.0
606123,1.392585,-1.30843,-2.312291,0.036215,0.105312,0.067798,0.0,19.0,88.0,180.0,25.0,1.0
606124,1.431096,-1.316215,-2.281022,-0.057599,-0.12878,0.091098,0.0,19.0,88.0,180.0,25.0,1.0
606125,1.469092,-1.326715,-2.254347,-0.048629,-0.13137,0.080566,0.0,19.0,88.0,180.0,25.0,1.0
606126,1.506349,-1.337435,-2.233714,0.103932,0.037741,-0.028579000000000007,0.0,19.0,88.0,180.0,25.0,1.0
606127,1.525107,-1.345318,-2.226166,0.246464,-0.17013699999999998,-0.146558,0.0,19.0,88.0,180.0,25.0,1.0
606128,1.515542,-1.350639,-2.2338400000000003,0.251752,-0.17131300000000002,-0.144708,0.0,19.0,88.0,180.0,25.0,1.0
606129,1.469498,-1.354486,-2.266612,0.040456,-0.491436,-0.140375,0.0,19.0,88.0,180.0,25.0,1.0
606130,1.38551,-1.3568870000000002,-2.333285,-0.000929,-0.40331,-0.231613,0.0,19.0,88.0,180.0,25.0,1.0
606131,1.2811860000000002,-1.356692,-2.426882,0.004094,-0.403269,-0.210044,0.0,19.0,88.0,180.0,25.0,1.0
606132,1.1755719999999998,-1.354303,-2.53042,-0.049259,-0.271884,-0.219207,0.0,19.0,88.0,180.0,25.0,1.0
606133,1.075249,-1.349326,-2.63747,0.06592999999999999,-0.30225100000000005,-0.093759,0.0,19.0,88.0,180.0,25.0,1.0
606134,0.993483,-1.341956,-2.727121,0.134945,-0.321968,0.01547,0.0,19.0,88.0,180.0,25.0,1.0
606135,0.921451,-1.331514,-2.800436,0.213956,-0.26505700000000004,-0.101473,0.0,19.0,88.0,180.0,25.0,1.0
606136,0.8299040000000001,-1.313773,-2.875884,0.239465,-0.001254,-0.161023,0.0,19.0,88.0,180.0,25.0,1.0
606137,0.709693,-1.283245,-2.965818,0.242236,0.006954999999999999,-0.117465,0.0,19.0,88.0,180.0,25.0,1.0
606138,0.58062,-1.2386629999999998,-3.049245,-0.194941,0.5411779999999999,-0.165866,0.0,19.0,88.0,180.0,25.0,1.0
606139,0.4615800000000001,-1.18147,-3.120661,-0.27202600000000005,0.853216,0.046554000000000005,0.0,19.0,88.0,180.0,25.0,1.0
606140,0.37252,-1.12068,3.107164,-0.284341,0.871225,0.299257,0.0,19.0,88.0,180.0,25.0,1.0
606141,0.322815,-1.063557,3.063289,-0.149846,0.411205,0.290447,0.0,19.0,88.0,180.0,25.0,1.0
606142,0.301717,-1.017151,3.028843,0.016318,0.072818,-0.054066,0.0,19.0,88.0,180.0,25.0,1.0
606143,0.294396,-0.983086,3.003932,0.106619,0.191225,-0.061453,0.0,19.0,88.0,180.0,25.0,1.0
606144,0.299761,-0.956933,2.995094,0.148079,0.312714,0.009739,0.0,19.0,88.0,180.0,25.0,1.0
606145,0.323949,-0.941301,3.007128,0.009573,0.043131,0.03927,0.0,19.0,88.0,180.0,25.0,1.0
606146,0.366042,-0.942174,3.036124,0.013224,-0.065263,0.037142,0.0,19.0,88.0,180.0,25.0,1.0
606147,0.421929,-0.956235,3.078985,0.013229,-0.5373939999999999,0.081315,0.0,19.0,88.0,180.0,25.0,1.0
606148,0.482686,-0.98133,3.123701,0.023185,-0.70665,0.080447,0.0,19.0,88.0,180.0,25.0,1.0
606149,0.545525,-1.017723,-3.114162,-0.035915,-0.739952,0.07210599999999999,0.0,19.0,88.0,180.0,25.0,1.0
606150,0.61952,-1.064222,-3.058732,-0.153134,-0.5679850000000001,0.121457,0.0,19.0,88.0,180.0,25.0,1.0
606151,0.708738,-1.118609,-2.988624,-0.186413,-0.555988,0.086108,0.0,19.0,88.0,180.0,25.0,1.0
606152,0.807264,-1.1798879999999998,-2.899966,-0.214859,-0.414416,0.070296,0.0,19.0,88.0,180.0,25.0,1.0
606153,0.909278,-1.241269,-2.800019,-0.030864,0.257525,-0.12848099999999998,0.0,19.0,88.0,180.0,25.0,1.0
606154,0.994815,-1.291269,-2.706052,-0.028794,0.276912,-0.2301,0.0,19.0,88.0,180.0,25.0,1.0
606155,1.044822,-1.322101,-2.633991,-0.072763,0.20560100000000006,-0.332418,0.0,19.0,88.0,180.0,25.0,1.0
606156,1.060592,-1.338409,-2.588953,0.028385000000000007,-0.286672,-0.457066,0.0,19.0,88.0,180.0,25.0,1.0
606157,1.041277,-1.340515,-2.588496,0.202408,-0.298813,-0.229068,0.0,19.0,88.0,180.0,25.0,1.0
606158,1.066345,-1.328118,-2.591585,0.181522,0.100942,0.108729,0.0,19.0,88.0,180.0,25.0,1.0
606159,1.180167,-1.318764,-2.532279,-0.096263,0.542029,0.6172770000000001,0.0,19.0,88.0,180.0,25.0,1.0
606160,1.2430370000000002,-1.310958,-2.4782450000000003,-0.034429,0.972732,0.165183,0.0,19.0,88.0,180.0,25.0,1.0
606161,1.206117,-1.30276,-2.483575,1.131593,0.687425,0.031237,0.0,19.0,88.0,180.0,25.0,1.0
606162,1.219569,-1.286959,-2.461317,0.585904,0.130115,0.154606,0.0,19.0,88.0,180.0,25.0,1.0
606163,1.187667,-1.275416,-2.46463,-0.107688,0.507069,0.0033979999999999995,0.0,19.0,88.0,180.0,25.0,1.0
606164,1.153815,-1.279818,-2.469764,-0.016502,0.6448649999999999,0.160868,0.0,19.0,88.0,180.0,25.0,1.0
606165,1.136556,-1.295886,-2.471293,0.033398000000000004,0.512221,0.082897,0.0,19.0,88.0,180.0,25.0,1.0
606166,1.145037,-1.317762,-2.466879,-0.034267,0.231748,0.163575,0.0,19.0,88.0,180.0,25.0,1.0
606167,1.18658,-1.345401,-2.437635,-0.031522,0.145305,0.163804,0.0,19.0,88.0,180.0,25.0,1.0
606168,1.260636,-1.37174,-2.379335,0.049119,-0.12931700000000002,0.136251,0.0,19.0,88.0,180.0,25.0,1.0
606169,1.383308,-1.391355,-2.274465,0.152026,-0.187831,0.090106,0.0,19.0,88.0,180.0,25.0,1.0
606170,1.536228,-1.402611,-2.139536,0.203053,-0.2058,-0.036665,0.0,19.0,88.0,180.0,25.0,1.0
606171,1.687256,-1.409,-2.002797,0.198765,-0.229844,-0.098522,0.0,19.0,88.0,180.0,25.0,1.0
606172,1.823804,-1.416112,-1.875003,0.141289,-0.27787,-0.097556,0.0,19.0,88.0,180.0,25.0,1.0
606173,1.948208,-1.4255950000000002,-1.753477,0.111051,-0.302602,-0.11222,0.0,19.0,88.0,180.0,25.0,1.0
606174,2.072755,-1.436914,-1.627426,0.128131,-0.32172399999999995,-0.106293,0.0,19.0,88.0,180.0,25.0,1.0
606175,2.202427,-1.44756,-1.495953,0.102909,-0.416793,-0.271145,0.0,19.0,88.0,180.0,25.0,1.0
606176,2.348088,-1.457419,-1.350943,0.10539,-0.425953,-0.318438,0.0,19.0,88.0,180.0,25.0,1.0
606177,2.512861,-1.464148,-1.188977,0.175129,-0.29149899999999995,-0.297287,0.0,19.0,88.0,180.0,25.0,1.0
606178,2.700437,-1.466108,-1.006921,0.405166,-0.120898,-0.123084,0.0,19.0,88.0,180.0,25.0,1.0
606179,2.8929150000000003,-1.465663,-0.818461,0.423957,-0.120852,-0.130301,0.0,19.0,88.0,180.0,25.0,1.0
606180,3.045672,-1.464312,-0.661826,0.369246,-0.16358599999999998,-0.224061,0.0,19.0,88.0,180.0,25.0,1.0
606181,-3.141284,-1.46048,-0.556085,0.532276,-0.106165,-0.264508,0.0,19.0,88.0,180.0,25.0,1.0
606182,-3.066835,-1.457669,-0.4664640000000001,0.542367,-0.048234,-0.30649,0.0,19.0,88.0,180.0,25.0,1.0
606183,-3.002007,-1.458734,-0.381804,0.399408,0.169816,-0.488879,0.0,19.0,88.0,180.0,25.0,1.0
606184,-2.907763,-1.468503,-0.264679,0.381142,0.161477,-0.569408,0.0,19.0,88.0,180.0,25.0,1.0
606185,-2.684284,-1.491319,-0.018277,0.392535,0.159407,-0.541308,0.0,19.0,88.0,180.0,25.0,1.0
606186,-2.011388,-1.520745,0.681347,0.652619,0.007417,-0.060288,0.0,19.0,88.0,180.0,25.0,1.0
606187,-0.7631319999999999,-1.505409,1.97531,0.237357,0.380799,-0.34775900000000004,0.0,19.0,88.0,180.0,25.0,1.0
606188,-0.259751,-1.45206,2.537717,0.080229,0.7820189999999999,-0.292699,0.0,19.0,88.0,180.0,25.0,1.0
606189,-0.017721999999999998,-1.4034950000000002,2.814569,-0.166651,1.208405,0.6069399999999999,0.0,19.0,88.0,180.0,25.0,1.0
606190,0.14586300000000002,-1.345579,2.965549,-0.327731,0.687318,0.067748,0.0,19.0,88.0,180.0,25.0,1.0
606191,0.245346,-1.296764,3.050199,-0.158183,0.739171,-0.218293,0.0,19.0,88.0,180.0,25.0,1.0
606192,0.308925,-1.265713,3.124544,0.557312,0.271031,-0.104182,0.0,19.0,88.0,180.0,25.0,1.0
606193,0.371479,-1.240194,-3.069605,0.534679,-0.031754000000000004,0.07763300000000001,0.0,19.0,88.0,180.0,25.0,1.0
606194,0.420732,-1.210128,-2.984286,0.414261,-0.07709500000000001,0.134303,0.0,19.0,88.0,180.0,25.0,1.0
606195,0.464779,-1.184074,-2.9006380000000003,0.004808,0.073087,0.4315520000000001,0.0,19.0,88.0,180.0,25.0,1.0
606196,0.5241819999999999,-1.16769,-2.804701,-0.116365,0.083037,0.444863,0.0,19.0,88.0,180.0,25.0,1.0
606197,0.5974510000000001,-1.158217,-2.699761,-0.230536,0.022997,0.408265,0.0,19.0,88.0,180.0,25.0,1.0
606198,0.6717380000000001,-1.155808,-2.590942,-0.291597,-0.21813,0.183367,0.0,19.0,88.0,180.0,25.0,1.0
606199,0.733629,-1.158918,-2.48776,-0.281812,-0.384342,0.037106,0.0,19.0,88.0,180.0,25.0,1.0
606200,0.775184,-1.171285,-2.401017,-0.398546,-0.4616560000000001,0.028813,0.0,19.0,88.0,180.0,25.0,1.0
606201,0.7945939999999999,-1.192125,-2.334023,-0.4788270000000001,-0.593967,0.167241,0.0,19.0,88.0,180.0,25.0,1.0
606202,0.797391,-1.216875,-2.293155,-0.377506,-0.5433680000000001,0.032318,0.0,19.0,88.0,180.0,25.0,1.0
606203,0.794825,-1.244418,-2.267774,-0.271422,-0.449315,-0.053897,0.0,19.0,88.0,180.0,25.0,1.0
606204,0.774712,-1.2707959999999998,-2.26473,0.09481,0.007051000000000002,-0.5965689999999999,0.0,19.0,88.0,180.0,25.0,1.0
606205,0.698403,-1.285732,-2.3074790000000003,0.5185649999999999,0.478986,-0.946626,0.0,19.0,88.0,180.0,25.0,1.0
606206,0.554345,-1.272172,-2.405967,0.685605,0.208824,-0.434807,0.0,19.0,88.0,180.0,25.0,1.0
606207,0.444757,-1.236482,-2.489302,0.310688,-0.209055,0.00262,0.0,19.0,88.0,180.0,25.0,1.0
606208,0.39925,-1.2008370000000002,-2.524646,-0.027396,0.295212,0.500193,0.0,19.0,88.0,180.0,25.0,1.0
606209,0.426587,-1.179628,-2.497121,-0.162639,0.780644,0.458687,0.0,19.0,88.0,180.0,25.0,1.0
606210,0.4613020000000001,-1.176867,-2.444389,0.734506,0.260201,0.6008859999999999,0.0,19.0,88.0,180.0,25.0,1.0
606211,0.494655,-1.1662290000000002,-2.393836,0.262127,0.08379400000000001,0.920488,0.0,19.0,88.0,180.0,25.0,1.0
606212,0.5303100000000001,-1.175157,-2.327531,0.163678,0.289515,0.7172729999999999,0.0,19.0,88.0,180.0,25.0,1.0
606213,0.5087119999999999,-1.208867,-2.283329,-0.271941,0.226375,0.464377,0.0,19.0,88.0,180.0,25.0,1.0
606214,0.490246,-1.256279,-2.234642,-0.180752,0.258496,0.501235,0.0,19.0,88.0,180.0,25.0,1.0
606215,0.516558,-1.302642,-2.167622,-0.124615,0.447009,0.313906,0.0,19.0,88.0,180.0,25.0,1.0
606216,0.580963,-1.340121,-2.082993,-0.147421,0.404631,0.137074,0.0,19.0,88.0,180.0,25.0,1.0
606217,0.688886,-1.372066,-1.963153,-0.127768,0.102949,0.032967,0.0,19.0,88.0,180.0,25.0,1.0
606218,0.8439270000000001,-1.401608,-1.809186,-0.075526,0.008236,-0.080569,0.0,19.0,88.0,180.0,25.0,1.0
606219,1.019583,-1.425469,-1.64383,0.07347999999999999,-0.119952,-0.074629,0.0,19.0,88.0,180.0,25.0,1.0
606220,1.170594,-1.445164,-1.50281,0.142318,-0.25705700000000004,-0.068039,0.0,19.0,88.0,180.0,25.0,1.0
606221,1.315681,-1.465981,-1.360712,0.16350499999999998,-0.400304,-0.086014,0.0,19.0,88.0,180.0,25.0,1.0
606222,1.513968,-1.485755,-1.157773,0.186233,-0.472293,-0.07940499999999999,0.0,19.0,88.0,180.0,25.0,1.0
606223,1.76564,-1.49946,-0.897388,0.198319,-0.323339,-0.012559,0.0,19.0,88.0,180.0,25.0,1.0
606224,2.085384,-1.506635,-0.568973,0.193235,-0.284991,-0.004855,0.0,19.0,88.0,180.0,25.0,1.0
606225,2.490508,-1.504883,-0.15929400000000002,0.184618,-0.234096,-0.004105,0.0,19.0,88.0,180.0,25.0,1.0
606226,2.862329,-1.490743,0.213843,0.246289,-0.17421099999999998,-0.098027,0.0,19.0,88.0,180.0,25.0,1.0
606227,3.11015,-1.468343,0.460981,0.265111,-0.17217000000000002,-0.123384,0.0,19.0,88.0,180.0,25.0,1.0
606228,-3.03017,-1.447824,0.6004010000000001,0.39767,0.079817,-0.187192,0.0,19.0,88.0,180.0,25.0,1.0
606229,-2.960862,-1.435961,0.666611,0.12911,0.36955,-0.214178,0.0,19.0,88.0,180.0,25.0,1.0
606230,-2.95249,-1.433078,0.673041,0.130753,0.369942,-0.216775,0.0,19.0,88.0,180.0,25.0,1.0
606231,-2.951894,-1.439912,0.678739,0.221337,0.384972,-0.304466,0.0,19.0,88.0,180.0,25.0,1.0
606232,-2.946817,-1.457182,0.707734,0.325924,0.407936,-0.017362,0.0,19.0,88.0,180.0,25.0,1.0
606233,-2.935744,-1.487168,0.752844,0.32105300000000003,0.404984,0.012104,0.0,19.0,88.0,180.0,25.0,1.0
606234,-2.813648,-1.5343129999999998,0.907222,0.464059,0.372125,0.321853,0.0,19.0,88.0,180.0,25.0,1.0
606235,-0.214283,-1.544718,-2.742401,0.07799099999999999,-0.005657,0.053566,0.0,19.0,88.0,180.0,25.0,1.0
606236,0.05939700000000001,-1.482608,-2.436028,-0.027825,-0.012868,0.018328,0.0,19.0,88.0,180.0,25.0,1.0
606237,0.16302,-1.419149,-2.308061,-0.05848200000000001,0.258272,0.06807200000000001,0.0,19.0,88.0,180.0,25.0,1.0
606238,0.255223,-1.354408,-2.207813,0.018247,0.4763850000000001,0.054648,0.0,19.0,88.0,180.0,25.0,1.0
606239,0.337575,-1.296971,-2.127463,0.292734,0.32667,0.164358,0.0,19.0,88.0,180.0,25.0,1.0
606240,0.381285,-1.2568700000000002,-2.071283,0.436869,-0.045672,0.34533,0.0,19.0,88.0,180.0,25.0,1.0
606241,0.40635,-1.225216,-2.014023,0.456809,-0.052238,0.248745,0.0,19.0,88.0,180.0,25.0,1.0
606242,0.432871,-1.192543,-1.943788,0.447171,-0.05891900000000001,0.186366,0.0,19.0,88.0,180.0,25.0,1.0
606243,0.469471,-1.160976,-1.852666,0.361076,-0.078981,0.39618,0.0,19.0,88.0,180.0,25.0,1.0
606244,0.514954,-1.132874,-1.748289,-0.022809,-0.062922,0.454083,0.0,19.0,88.0,180.0,25.0,1.0
606245,0.5425800000000001,-1.111139,-1.657068,-0.274649,-0.086115,0.430291,0.0,19.0,88.0,180.0,25.0,1.0
606246,0.548834,-1.096715,-1.581215,-0.293521,-0.08874800000000001,0.338552,0.0,19.0,88.0,180.0,25.0,1.0
606247,0.5490229999999999,-1.088525,-1.512851,-0.190807,-0.082187,0.31390300000000004,0.0,19.0,88.0,180.0,25.0,1.0
606248,0.5610569999999999,-1.083545,-1.44236,-0.187366,-0.087404,0.303248,0.0,19.0,88.0,180.0,25.0,1.0
606249,0.585438,-1.081562,-1.367764,-0.208193,-0.038043,0.336755,0.0,19.0,88.0,180.0,25.0,1.0
606250,0.6156689999999999,-1.083515,-1.29445,-0.226486,-0.04668,0.36571,0.0,19.0,88.0,180.0,25.0,1.0
606251,0.6533640000000001,-1.089851,-1.2245629999999998,-0.224305,-0.091926,0.337001,0.0,19.0,88.0,180.0,25.0,1.0
606252,0.696812,-1.102155,-1.1590129999999998,-0.255799,-0.103609,0.224862,0.0,19.0,88.0,180.0,25.0,1.0
606253,0.73841,-1.120287,-1.099815,-0.201412,-0.063205,0.13454100000000002,0.0,19.0,88.0,180.0,25.0,1.0
606254,0.771071,-1.143476,-1.049333,-0.150741,-0.026489,0.093479,0.0,19.0,88.0,180.0,25.0,1.0
606255,0.79077,-1.168468,-1.007571,-0.054495,-0.004792,-0.266046,0.0,19.0,88.0,180.0,25.0,1.0
606256,0.803246,-1.194592,-0.966459,0.25300100000000003,0.208499,-0.5791229999999999,0.0,19.0,88.0,180.0,25.0,1.0
606257,0.801682,-1.216583,-0.934788,0.26816,0.200645,-0.592996,0.0,19.0,88.0,180.0,25.0,1.0
606258,0.7725,-1.220183,-0.934801,0.4558390000000001,0.103044,-0.292638,0.0,19.0,88.0,180.0,25.0,1.0
606259,0.750676,-1.203897,-0.945354,0.375682,-0.096622,-0.33976,0.0,19.0,88.0,180.0,25.0,1.0
606260,0.758686,-1.184431,-0.931952,0.36009800000000003,-0.33139,-0.353707,0.0,19.0,88.0,180.0,25.0,1.0
606261,0.783388,-1.171507,-0.898709,0.403453,-0.4974020000000001,0.185741,0.0,19.0,88.0,180.0,25.0,1.0
606262,0.8172159999999999,-1.175406,-0.8504799999999999,0.090688,-0.151942,0.367326,0.0,19.0,88.0,180.0,25.0,1.0
606263,0.8888020000000001,-1.203419,-0.758718,-0.013705000000000002,0.363114,0.323245,0.0,19.0,88.0,180.0,25.0,1.0
606264,0.998492,-1.224522,-0.630599,-0.124331,1.528518,0.109525,0.0,19.0,88.0,180.0,25.0,1.0
606265,1.027794,-1.217173,-0.562802,-0.486563,-0.240919,-0.24375,0.0,19.0,88.0,180.0,25.0,1.0
606266,1.033923,-1.213393,-0.515349,-0.448875,-0.236949,0.266252,0.0,19.0,88.0,180.0,25.0,1.0
606267,0.990568,-1.222519,-0.508811,-0.329672,-0.211233,0.429905,0.0,19.0,88.0,180.0,25.0,1.0
606268,0.923365,-1.248902,-0.524825,-0.141637,-0.273665,0.77104,0.0,19.0,88.0,180.0,25.0,1.0
606269,0.8964200000000001,-1.27996,-0.517741,0.085989,-0.118268,0.8414020000000001,0.0,19.0,88.0,180.0,25.0,1.0
606270,0.918332,-1.299727,-0.485561,0.058025,0.5544439999999999,0.252213,0.0,19.0,88.0,180.0,25.0,1.0
606271,1.015519,-1.310156,-0.383104,0.151247,-0.010262,0.026995,0.0,19.0,88.0,180.0,25.0,1.0
606272,1.140457,-1.317287,-0.253778,0.041128,-0.08136499999999999,0.024259,0.0,19.0,88.0,180.0,25.0,1.0
606273,1.236859,-1.325175,-0.15066300000000002,-0.01538,-0.021454,0.25340300000000004,0.0,19.0,88.0,180.0,25.0,1.0
606274,1.308448,-1.335808,-0.069852,-0.0976,-0.042982,0.159794,0.0,19.0,88.0,180.0,25.0,1.0
606275,1.384253,-1.349594,0.012508,-0.110502,-0.01456,0.07398500000000001,0.0,19.0,88.0,180.0,25.0,1.0
606276,1.468095,-1.363252,0.102769,-0.062966,-0.066354,-0.018625,0.0,19.0,88.0,180.0,25.0,1.0
606277,1.536911,-1.373568,0.180857,-0.003464,-0.06694800000000001,0.006654,0.0,19.0,88.0,180.0,25.0,1.0
606278,1.59494,-1.380997,0.250073,0.0066370000000000005,-0.049318,0.028115,0.0,19.0,88.0,180.0,25.0,1.0
606279,1.657252,-1.388366,0.324044,0.037772,-0.026435000000000004,0.067969,0.0,19.0,88.0,180.0,25.0,1.0
606280,1.734,-1.397084,0.412817,0.056136,-0.092265,0.069911,0.0,19.0,88.0,180.0,25.0,1.0
606281,1.825684,-1.404753,0.5164890000000001,0.05032,-0.087641,0.052583000000000005,0.0,19.0,88.0,180.0,25.0,1.0
606282,1.937311,-1.409634,0.637495,0.010514,-0.099331,0.053721000000000005,0.0,19.0,88.0,180.0,25.0,1.0
606283,2.071207,-1.413139,0.774413,-0.002731,-0.091525,0.028301,0.0,19.0,88.0,180.0,25.0,1.0
606284,2.209966,-1.414148,0.912605,0.039534,0.000663,-0.025795,0.0,19.0,88.0,180.0,25.0,1.0
606285,2.33938,-1.413798,1.041918,0.104559,0.069626,-0.092667,0.0,19.0,88.0,180.0,25.0,1.0
606286,2.478068,-1.414131,1.180553,0.131804,0.113077,-0.110228,0.0,19.0,88.0,180.0,25.0,1.0
606287,2.592911,-1.414277,1.295049,0.123082,-0.021498,-0.040199,0.0,19.0,88.0,180.0,25.0,1.0
606288,2.64335,-1.415582,1.345219,0.245741,0.026655,-0.064785,0.0,19.0,88.0,180.0,25.0,1.0
606289,2.655348,-1.419515,1.359689,0.384918,-0.026573000000000003,-0.060502,0.0,19.0,88.0,180.0,25.0,1.0
606290,2.696968,-1.421102,1.406755,0.331643,0.124434,-0.116342,0.0,19.0,88.0,180.0,25.0,1.0
606291,2.732416,-1.421728,1.449555,0.231506,0.25445300000000004,-0.18048,0.0,19.0,88.0,180.0,25.0,1.0
606292,2.762814,-1.424473,1.483932,0.245788,0.26177,-0.15626700000000002,0.0,19.0,88.0,180.0,25.0,1.0
606293,2.769822,-1.43421,1.49425,0.315868,0.185369,-0.103409,0.0,19.0,88.0,180.0,25.0,1.0
606294,2.7134560000000003,-1.452195,1.4443780000000002,0.376068,0.098578,0.004478,0.0,19.0,88.0,180.0,25.0,1.0
606295,2.492689,-1.476458,1.23848,0.165576,0.072882,0.118644,0.0,19.0,88.0,180.0,25.0,1.0
606296,1.939381,-1.487858,0.708425,-0.016663999999999998,0.104817,0.114814,0.0,19.0,88.0,180.0,25.0,1.0
606297,1.368149,-1.4600959999999998,0.16837,-0.372877,0.376696,0.007369,0.0,19.0,88.0,180.0,25.0,1.0
606298,1.045544,-1.406845,-0.124095,-0.363405,0.4819310000000001,0.044789,0.0,19.0,88.0,180.0,25.0,1.0
606299,0.8784040000000001,-1.345488,-0.27181,-0.338901,0.644446,0.097997,0.0,19.0,88.0,180.0,25.0,1.0
606300,0.786087,-1.285639,-0.358289,-0.201245,0.596779,0.045697,0.0,19.0,88.0,180.0,25.0,1.0
606301,0.734817,-1.2334379999999998,-0.413586,-0.042836,0.024706,0.167927,0.0,19.0,88.0,180.0,25.0,1.0
606302,0.710232,-1.186964,-0.44562,-0.065083,0.041102,0.206277,0.0,19.0,88.0,180.0,25.0,1.0
606303,0.703646,-1.141311,-0.456594,-0.013063,-0.050385,0.14657,0.0,19.0,88.0,180.0,25.0,1.0
606304,0.70294,-1.09372,-0.445919,-0.091124,0.001673,0.156695,0.0,19.0,88.0,180.0,25.0,1.0
606305,0.697984,-1.045799,-0.423743,-0.116395,0.024689,0.190361,0.0,19.0,88.0,180.0,25.0,1.0
606306,0.693299,-1.000975,-0.395531,-0.14549,0.102628,0.265049,0.0,19.0,88.0,180.0,25.0,1.0
606307,0.687204,-0.963482,-0.367644,-0.371156,-0.12433,0.233783,0.0,19.0,88.0,180.0,25.0,1.0
606308,0.682619,-0.933712,-0.346512,-0.384389,-0.10698,0.254208,0.0,19.0,88.0,180.0,25.0,1.0
606309,0.67879,-0.911659,-0.327885,-0.42686,-0.149667,0.227989,0.0,19.0,88.0,180.0,25.0,1.0
606310,0.673384,-0.8965700000000001,-0.314364,-0.302767,-0.242769,0.23309,0.0,19.0,88.0,180.0,25.0,1.0
606311,0.668888,-0.888517,-0.305082,-0.264586,-0.267928,0.24483600000000005,0.0,19.0,88.0,180.0,25.0,1.0
606312,0.6725220000000001,-0.8885700000000001,-0.29533000000000004,-0.142592,-0.27144,0.229219,0.0,19.0,88.0,180.0,25.0,1.0
606313,0.6884399999999999,-0.896059,-0.278665,-0.122686,-0.347506,0.207996,0.0,19.0,88.0,180.0,25.0,1.0
606314,0.7117479999999999,-0.910079,-0.256867,-0.126631,-0.356188,0.190279,0.0,19.0,88.0,180.0,25.0,1.0
606315,0.7351,-0.929055,-0.234575,-0.172355,-0.416274,0.147305,0.0,19.0,88.0,180.0,25.0,1.0
606316,0.755302,-0.952396,-0.212823,-0.168452,-0.401233,0.166405,0.0,19.0,88.0,180.0,25.0,1.0
606317,0.773846,-0.978973,-0.189152,-0.15274,-0.371276,0.179234,0.0,19.0,88.0,180.0,25.0,1.0
606318,0.792186,-1.00728,-0.16385999999999998,-0.106749,-0.263122,0.170942,0.0,19.0,88.0,180.0,25.0,1.0
606319,0.8084520000000001,-1.03597,-0.138723,-0.043971,0.00773,0.021144,0.0,19.0,88.0,180.0,25.0,1.0
606320,0.821974,-1.062908,-0.112274,-0.001176,0.085165,-0.074847,0.0,19.0,88.0,180.0,25.0,1.0
606321,0.838779,-1.086063,-0.083824,0.13638599999999998,0.039166,-0.146964,0.0,19.0,88.0,180.0,25.0,1.0
606322,0.862191,-1.105185,-0.053921,0.130244,-0.192146,-0.101562,0.0,19.0,88.0,180.0,25.0,1.0
606323,0.884192,-1.117921,-0.026129000000000003,0.016562999999999998,-0.272056,-0.107976,0.0,19.0,88.0,180.0,25.0,1.0
606324,0.901056,-1.125089,0.002065,-0.077792,-0.18377,-0.046731,0.0,19.0,88.0,180.0,25.0,1.0
606325,0.923765,-1.133385,0.042006,-0.15273299999999998,-0.095609,-0.007315,0.0,19.0,88.0,180.0,25.0,1.0
606326,0.957641,-1.14468,0.096128,-0.212322,0.028982,-0.015213999999999997,0.0,19.0,88.0,180.0,25.0,1.0
606327,0.997006,-1.153332,0.15522,-0.086633,0.49773,0.138172,0.0,19.0,88.0,180.0,25.0,1.0
606328,1.0399770000000002,-1.156696,0.216531,0.063894,0.543551,0.595111,0.0,19.0,88.0,180.0,25.0,1.0
606329,1.084557,-1.161623,0.278691,-0.014302,0.6407619999999999,0.6479060000000001,0.0,19.0,88.0,180.0,25.0,1.0
606330,1.072442,-1.167553,0.298955,-0.423789,0.450813,-0.099122,0.0,19.0,88.0,180.0,25.0,1.0
606331,1.047436,-1.177288,0.304687,-0.006389,0.957595,0.093444,0.0,19.0,88.0,180.0,25.0,1.0
606332,1.050174,-1.186691,0.30803,0.192989,1.184331,-0.188635,0.0,19.0,88.0,180.0,25.0,1.0
606333,1.057027,-1.184865,0.302185,0.456496,-0.077251,0.39549,0.0,19.0,88.0,180.0,25.0,1.0
606334,1.054203,-1.17844,0.296591,0.138878,0.05749600000000001,0.270613,0.0,19.0,88.0,180.0,25.0,1.0
606335,1.054196,-1.181945,0.315159,0.066914,0.096475,0.151659,0.0,19.0,88.0,180.0,25.0,1.0
606336,1.066356,-1.193891,0.34970100000000004,-0.167993,0.031358,0.336114,0.0,19.0,88.0,180.0,25.0,1.0
606337,1.099868,-1.211935,0.390184,-0.208069,0.027814,0.20883,0.0,19.0,88.0,180.0,25.0,1.0
606338,1.143808,-1.234182,0.432946,-0.136006,-0.001816,0.106341,0.0,19.0,88.0,180.0,25.0,1.0
606339,1.190193,-1.251111,0.479269,0.22544,-0.171853,-0.038578,0.0,19.0,88.0,180.0,25.0,1.0
606340,1.245285,-1.2615610000000002,0.526972,0.134053,-0.2862,-0.068741,0.0,19.0,88.0,180.0,25.0,1.0
606341,1.290232,-1.267196,0.5602699999999999,0.094697,-0.284405,-0.024536,0.0,19.0,88.0,180.0,25.0,1.0
606342,1.304813,-1.270084,0.5671649999999999,-0.001155,-0.232118,-0.134302,0.0,19.0,88.0,180.0,25.0,1.0
606343,1.291288,-1.270714,0.551942,-0.051163,-0.25842800000000005,-0.20431,0.0,19.0,88.0,180.0,25.0,1.0
606344,1.253124,-1.270536,0.514642,-0.034929,-0.354933,-0.199518,0.0,19.0,88.0,180.0,25.0,1.0
606345,1.199959,-1.269507,0.4612560000000001,0.132714,-0.288878,-0.000127,0.0,19.0,88.0,180.0,25.0,1.0
606346,1.137581,-1.266538,0.401201,0.01365,-0.200499,-0.148272,0.0,19.0,88.0,180.0,25.0,1.0
606347,1.0599610000000002,-1.26149,0.338664,0.020022,-0.198974,-0.12521400000000002,0.0,19.0,88.0,180.0,25.0,1.0
606348,0.971438,-1.253491,0.273284,0.072337,-0.388297,0.173334,0.0,19.0,88.0,180.0,25.0,1.0
606349,0.8783120000000001,-1.235676,0.200392,-0.037213,-0.233342,0.08251599999999999,0.0,19.0,88.0,180.0,25.0,1.0
606350,0.768538,-1.206799,0.12262,-0.031544,-0.223452,0.12848800000000002,0.0,19.0,88.0,180.0,25.0,1.0
606351,0.646914,-1.164364,0.03879,-0.060161,0.515698,-0.060751,0.0,19.0,88.0,180.0,25.0,1.0
606352,0.5563560000000001,-1.113541,-0.028164,-0.197165,0.690379,0.192666,0.0,19.0,88.0,180.0,25.0,1.0
606353,0.490091,-1.0558610000000002,-0.08042,-0.251923,0.8147949999999999,0.205442,0.0,19.0,88.0,180.0,25.0,1.0
606354,0.455701,-0.994714,-0.117319,-0.223623,0.473332,0.240387,0.0,19.0,88.0,180.0,25.0,1.0
606355,0.44181,-0.940852,-0.14338199999999998,-0.132408,0.380722,0.174623,0.0,19.0,88.0,180.0,25.0,1.0
606356,0.44201,-0.9003690000000001,-0.16247,-0.146297,0.405226,0.203697,0.0,19.0,88.0,180.0,25.0,1.0
606357,0.457407,-0.8713989999999999,-0.165406,0.234562,0.581816,-0.14924400000000002,0.0,19.0,88.0,180.0,25.0,1.0
606358,0.476024,-0.8532620000000001,-0.154542,0.286549,0.388279,-0.202866,0.0,19.0,88.0,180.0,25.0,1.0
606359,0.502637,-0.845824,-0.12703,0.316188,0.067248,-0.008839,0.0,19.0,88.0,180.0,25.0,1.0
606360,0.536103,-0.846882,-0.090606,-0.042332,-0.12808,0.206043,0.0,19.0,88.0,180.0,25.0,1.0
606361,0.578396,-0.856233,-0.046357,-0.212237,-0.266961,0.244285,0.0,19.0,88.0,180.0,25.0,1.0
606362,0.632256,-0.8740319999999999,0.002726,-0.271427,-0.328232,0.234607,0.0,19.0,88.0,180.0,25.0,1.0
606363,0.697924,-0.901688,0.058054,-0.267479,-0.342999,0.209211,0.0,19.0,88.0,180.0,25.0,1.0
606364,0.772084,-0.940358,0.124642,-0.368861,-0.51686,0.1756,0.0,19.0,88.0,180.0,25.0,1.0
606365,0.853814,-0.988455,0.20205,-0.374225,-0.560489,0.110558,0.0,19.0,88.0,180.0,25.0,1.0
606366,0.94169,-1.042466,0.287503,-0.4489800000000001,-0.370318,0.105775,0.0,19.0,88.0,180.0,25.0,1.0
606367,1.026804,-1.097214,0.372979,-0.346613,-0.053682000000000014,0.079183,0.0,19.0,88.0,180.0,25.0,1.0
606368,1.082091,-1.143528,0.440973,-0.25801,0.022455000000000003,0.021983000000000003,0.0,19.0,88.0,180.0,25.0,1.0
606369,1.087038,-1.176675,0.474681,-0.255824,0.183767,-0.228247,0.0,19.0,88.0,180.0,25.0,1.0
606370,1.075198,-1.19773,0.498474,0.000215,0.140655,-0.279418,0.0,19.0,88.0,180.0,25.0,1.0
606371,1.070631,-1.204548,0.507626,0.173321,0.039208,-0.216963,0.0,19.0,88.0,180.0,25.0,1.0
606372,1.078502,-1.199366,0.488496,-0.102894,-0.27208000000000004,0.04978,0.0,19.0,88.0,180.0,25.0,1.0
606373,1.101191,-1.187446,0.460902,-0.21026,-0.135974,0.250253,0.0,19.0,88.0,180.0,25.0,1.0
606374,1.135599,-1.1876209999999998,0.457593,-0.280725,-0.058723,0.47242,0.0,19.0,88.0,180.0,25.0,1.0
606375,1.18341,-1.194687,0.501753,0.153341,0.39897,0.198142,0.0,19.0,88.0,180.0,25.0,1.0
606376,1.212217,-1.2015280000000002,0.5541689999999999,0.719845,0.60409,0.26636,0.0,19.0,88.0,180.0,25.0,1.0
606377,1.251767,-1.193624,0.608106,0.963467,0.369118,0.202166,0.0,19.0,88.0,180.0,25.0,1.0
606378,1.272159,-1.182515,0.640089,-0.247975,0.518424,-0.674454,0.0,19.0,88.0,180.0,25.0,1.0
606379,1.264401,-1.185889,0.652045,0.133825,1.898408,-0.255921,0.0,19.0,88.0,180.0,25.0,1.0
606380,1.225527,-1.184617,0.615777,0.501599,0.5207430000000001,0.175374,0.0,19.0,88.0,180.0,25.0,1.0
606381,1.196317,-1.184274,0.5917979999999999,-0.054880999999999985,0.094923,0.22842,0.0,19.0,88.0,180.0,25.0,1.0
606382,1.175824,-1.194672,0.587804,-0.012953,0.116475,0.192178,0.0,19.0,88.0,180.0,25.0,1.0
606383,1.178756,-1.208921,0.60268,-0.05949400000000001,0.067497,0.137033,0.0,19.0,88.0,180.0,25.0,1.0
606384,1.190849,-1.221003,0.621818,-0.07172200000000001,-0.052206,0.113868,0.0,19.0,88.0,180.0,25.0,1.0
606385,1.1995049999999998,-1.232518,0.6333270000000001,0.065938,-0.099074,-0.103106,0.0,19.0,88.0,180.0,25.0,1.0
606386,1.214209,-1.24262,0.646626,0.186124,-0.128303,-0.129737,0.0,19.0,88.0,180.0,25.0,1.0
606387,1.229564,-1.249803,0.657217,0.09693,-0.348306,-0.056054,0.0,19.0,88.0,180.0,25.0,1.0
606388,1.235167,-1.254183,0.657563,0.037344,-0.379739,-0.063639,0.0,19.0,88.0,180.0,25.0,1.0
606389,1.218539,-1.25554,0.634393,-0.014784,-0.394336,0.018625,0.0,19.0,88.0,180.0,25.0,1.0
606390,1.181874,-1.253433,0.5895819999999999,-0.076684,-0.261509,-0.185596,0.0,19.0,88.0,180.0,25.0,1.0
606391,1.120107,-1.249386,0.525566,-0.008018,-0.252166,-0.14563299999999998,0.0,19.0,88.0,180.0,25.0,1.0
606392,1.048337,-1.243693,0.458562,0.050395,-0.308153,-0.034113,0.0,19.0,88.0,180.0,25.0,1.0
606393,0.972052,-1.234138,0.395635,0.014564,-0.330735,-0.037458,0.0,19.0,88.0,180.0,25.0,1.0
606394,0.884228,-1.21886,0.325904,0.089838,0.017271,-0.044967,0.0,19.0,88.0,180.0,25.0,1.0
606395,0.78081,-1.191693,0.242659,0.095961,0.026982,-0.000588,0.0,19.0,88.0,180.0,25.0,1.0
606396,0.6834100000000001,-1.151254,0.170536,-0.207878,0.369592,0.068362,0.0,19.0,88.0,180.0,25.0,1.0
606397,0.601928,-1.100433,0.113493,-0.310941,0.839935,-0.161603,0.0,19.0,88.0,180.0,25.0,1.0
606398,0.542953,-1.042617,0.066915,-0.3147,0.867613,-0.103674,0.0,19.0,88.0,180.0,25.0,1.0
606399,0.510265,-0.984879,0.030679,0.149073,0.17479,0.13302,0.0,19.0,88.0,180.0,25.0,1.0
606400,0.482817,-0.9396,-9.4e-05,0.194777,0.40093,-0.063375,0.0,19.0,88.0,180.0,25.0,1.0
606401,0.470471,-0.908492,-0.015134,0.252436,0.6130800000000001,-0.08298,0.0,19.0,88.0,180.0,25.0,1.0
606402,0.458914,-0.8880379999999999,-0.015307,0.14740799999999998,0.395338,-0.121694,0.0,19.0,88.0,180.0,25.0,1.0
606403,0.458028,-0.877086,0.000371,-0.085491,0.030101,0.126237,0.0,19.0,88.0,180.0,25.0,1.0
606404,0.473573,-0.8765069999999999,0.027005,-0.129151,-0.049087,0.213814,0.0,19.0,88.0,180.0,25.0,1.0
606405,0.502612,-0.884922,0.059662,-0.149409,-0.100571,0.270764,0.0,19.0,88.0,180.0,25.0,1.0
606406,0.539111,-0.900632,0.094403,-0.263,-0.392789,0.360471,0.0,19.0,88.0,180.0,25.0,1.0
606407,0.583353,-0.923724,0.132404,-0.27620300000000003,-0.406922,0.33060500000000004,0.0,19.0,88.0,180.0,25.0,1.0
606408,0.637185,-0.955659,0.176571,-0.389095,-0.466032,0.25971500000000003,0.0,19.0,88.0,180.0,25.0,1.0
606409,0.699294,-0.997287,0.228155,-0.267032,-0.553473,0.2124,0.0,19.0,88.0,180.0,25.0,1.0
606410,0.768945,-1.047773,0.289279,-0.267994,-0.572185,0.156585,0.0,19.0,88.0,180.0,25.0,1.0
606411,0.8471700000000001,-1.104334,0.36104,-0.300133,-0.251869,0.095481,0.0,19.0,88.0,180.0,25.0,1.0
606412,0.926391,-1.161599,0.438855,-0.241831,0.092234,-0.016118,0.0,19.0,88.0,180.0,25.0,1.0
606413,0.989858,-1.20906,0.51185,-0.188476,0.220585,-0.101083,0.0,19.0,88.0,180.0,25.0,1.0
606414,1.021365,-1.2406469999999998,0.56562,-0.104546,0.370626,-0.582987,0.0,19.0,88.0,180.0,25.0,1.0
606415,1.005999,-1.25256,0.586065,0.335407,-0.03533,-0.406626,0.0,19.0,88.0,180.0,25.0,1.0
606416,1.006771,-1.241547,0.584622,0.4456560000000001,-0.015347,-0.21977600000000005,0.0,19.0,88.0,180.0,25.0,1.0
606417,1.072238,-1.216253,0.590555,-0.289472,0.173859,0.7548020000000001,0.0,19.0,88.0,180.0,25.0,1.0
606418,1.172481,-1.208776,0.63275,-0.5217,0.499097,0.280127,0.0,19.0,88.0,180.0,25.0,1.0
606419,1.207315,-1.21229,0.672528,-0.494526,0.709147,-0.043269,0.0,19.0,88.0,180.0,25.0,1.0
606420,1.129384,-1.217819,0.643231,0.944268,0.129707,0.238137,0.0,19.0,88.0,180.0,25.0,1.0
606421,1.160331,-1.206222,0.675493,0.502111,0.358632,-0.17053,0.0,19.0,88.0,180.0,25.0,1.0
606422,1.218394,-1.204102,0.72688,-0.179816,0.655487,-0.390444,0.0,19.0,88.0,180.0,25.0,1.0
606423,1.227115,-1.213059,0.744528,0.16913699999999998,0.6420279999999999,0.029301,0.0,19.0,88.0,180.0,25.0,1.0
606424,1.244497,-1.220204,0.758716,0.21659,0.252313,0.058940999999999986,0.0,19.0,88.0,180.0,25.0,1.0
606425,1.250284,-1.2268629999999998,0.759278,0.149635,0.128099,0.084793,0.0,19.0,88.0,180.0,25.0,1.0
606426,1.249972,-1.233403,0.759015,-0.230728,-0.110399,0.195528,0.0,19.0,88.0,180.0,25.0,1.0
606427,1.233449,-1.239873,0.757505,-0.260012,-0.204745,0.165463,0.0,19.0,88.0,180.0,25.0,1.0
606428,1.2274969999999998,-1.248926,0.7666470000000001,-0.147151,-0.161734,0.055436,0.0,19.0,88.0,180.0,25.0,1.0
606429,1.244874,-1.259489,0.7844939999999999,0.31995,0.003358,0.113421,0.0,19.0,88.0,180.0,25.0,1.0
606430,1.28265,-1.267818,0.807706,0.240158,-0.051132,-0.011146,0.0,19.0,88.0,180.0,25.0,1.0
606431,1.319574,-1.271026,0.8245959999999999,0.152711,-0.131643,-0.067814,0.0,19.0,88.0,180.0,25.0,1.0
606432,1.321496,-1.270645,0.813335,-0.031254000000000004,-0.273743,-0.167455,0.0,19.0,88.0,180.0,25.0,1.0
606433,1.279612,-1.268707,0.764731,-0.053465,-0.289571,-0.11391400000000003,0.0,19.0,88.0,180.0,25.0,1.0
606434,1.195485,-1.264156,0.674045,0.025616000000000003,-0.299926,-0.180063,0.0,19.0,88.0,180.0,25.0,1.0
606435,1.077536,-1.251869,0.552493,0.06474500000000001,-0.263568,-0.246541,0.0,19.0,88.0,180.0,25.0,1.0
606436,0.946274,-1.227856,0.431024,0.023054,-0.277326,-0.150114,0.0,19.0,88.0,180.0,25.0,1.0
606437,0.802453,-1.189997,0.316031,-0.049381,-0.17881,-0.168704,0.0,19.0,88.0,180.0,25.0,1.0
606438,0.65946,-1.138448,0.211591,-0.131795,-0.059138,0.041505,0.0,19.0,88.0,180.0,25.0,1.0
606439,0.546018,-1.081595,0.13545,-0.257146,0.046018,0.348781,0.0,19.0,88.0,180.0,25.0,1.0
606440,0.465588,-1.026059,0.080833,-0.307714,0.08872200000000001,0.324866,0.0,19.0,88.0,180.0,25.0,1.0
606441,0.4182270000000001,-0.977483,0.041517,-0.353924,0.510522,0.235117,0.0,19.0,88.0,180.0,25.0,1.0
606442,0.398237,-0.936643,0.016829,0.081376,0.306045,0.17589000000000002,0.0,19.0,88.0,180.0,25.0,1.0
606443,0.386546,-0.906913,0.008171,0.182089,0.127098,0.08016000000000001,0.0,19.0,88.0,180.0,25.0,1.0
606444,0.385218,-0.88755,0.012911,0.181112,0.456391,0.021586,0.0,19.0,88.0,180.0,25.0,1.0
606445,0.393575,-0.8809950000000001,0.031723,0.173753,0.266698,0.097127,0.0,19.0,88.0,180.0,25.0,1.0
606446,0.41787,-0.883821,0.064689,0.051302,0.113017,0.156093,0.0,19.0,88.0,180.0,25.0,1.0
606447,0.462796,-0.895774,0.105536,-0.26227,-0.24350700000000006,0.200764,0.0,19.0,88.0,180.0,25.0,1.0
606448,0.523278,-0.919319,0.14748499999999998,-0.136569,-0.3825,0.192717,0.0,19.0,88.0,180.0,25.0,1.0
606449,0.588448,-0.952214,0.189011,-0.129491,-0.428196,0.151886,0.0,19.0,88.0,180.0,25.0,1.0
606450,0.658035,-0.991341,0.233387,-0.140277,-0.39978,0.044149,0.0,19.0,88.0,180.0,25.0,1.0
606451,0.735665,-1.038282,0.290428,-0.217523,-0.435767,0.020276,0.0,19.0,88.0,180.0,25.0,1.0
606452,0.819227,-1.093596,0.362528,-0.212383,-0.462518,-0.042527,0.0,19.0,88.0,180.0,25.0,1.0
606453,0.8965299999999999,-1.148518,0.443359,0.025277,-0.009066,0.034192,0.0,19.0,88.0,180.0,25.0,1.0
606454,0.951365,-1.190434,0.524354,0.047362,0.027860000000000003,-0.20625900000000005,0.0,19.0,88.0,180.0,25.0,1.0
606455,0.974084,-1.213352,0.589792,0.083312,0.035832,-0.407459,0.0,19.0,88.0,180.0,25.0,1.0
606456,0.980371,-1.208605,0.628368,0.396521,0.190198,0.083761,0.0,19.0,88.0,180.0,25.0,1.0
606457,1.032201,-1.1920540000000002,0.666929,-0.161626,0.289925,0.387059,0.0,19.0,88.0,180.0,25.0,1.0
606458,1.131781,-1.203132,0.7444529999999999,-0.590454,0.781323,-0.109736,0.0,19.0,88.0,180.0,25.0,1.0
606459,1.086814,-1.213524,0.728845,-1.257487,0.978917,-0.025919,0.0,19.0,88.0,180.0,25.0,1.0
606460,1.088932,-1.212375,0.720431,1.489598,1.7360939999999998,-0.302154,0.0,19.0,88.0,180.0,25.0,1.0
606461,1.136249,-1.189423,0.7418680000000001,0.398607,0.158653,0.228317,0.0,19.0,88.0,180.0,25.0,1.0
606462,1.099897,-1.17138,0.719292,-0.104715,0.02404,0.11138,0.0,19.0,88.0,180.0,25.0,1.0
606463,1.052309,-1.174347,0.713167,-0.140536,0.096804,0.317869,0.0,19.0,88.0,180.0,25.0,1.0
606464,1.033866,-1.191448,0.727612,-0.093272,0.225818,0.403144,0.0,19.0,88.0,180.0,25.0,1.0
606465,1.073833,-1.216218,0.768703,-0.141862,0.215741,0.124968,0.0,19.0,88.0,180.0,25.0,1.0
606466,1.1455540000000002,-1.242312,0.8286040000000001,0.120344,0.126466,0.06944299999999999,0.0,19.0,88.0,180.0,25.0,1.0
606467,1.230748,-1.261507,0.900945,0.238689,-0.045003,0.109225,0.0,19.0,88.0,180.0,25.0,1.0
606468,1.3197450000000002,-1.272075,0.974136,0.146376,-0.105784,-0.008221,0.0,19.0,88.0,180.0,25.0,1.0
606469,1.37773,-1.276691,1.0177,-0.063178,0.000763,-0.193802,0.0,19.0,88.0,180.0,25.0,1.0
606470,1.378329,-1.279323,1.006474,-0.212318,-0.024655,-0.250607,0.0,19.0,88.0,180.0,25.0,1.0
606471,1.301504,-1.279717,0.923659,-0.122827,-0.385654,-0.26060900000000004,0.0,19.0,88.0,180.0,25.0,1.0
606472,1.171527,-1.276229,0.790339,-0.004927,-0.450519,-0.173776,0.0,19.0,88.0,180.0,25.0,1.0
606473,1.044417,-1.266047,0.654605,0.088056,-0.443928,-0.051143,0.0,19.0,88.0,180.0,25.0,1.0
606474,0.927516,-1.242588,0.532717,-0.004209,-0.148068,-0.273036,0.0,19.0,88.0,180.0,25.0,1.0
606475,0.789593,-1.203508,0.416373,-0.04817,-0.140153,-0.273555,0.0,19.0,88.0,180.0,25.0,1.0
606476,0.6538149999999999,-1.155353,0.315273,-0.0398,-0.202657,-0.017791,0.0,19.0,88.0,180.0,25.0,1.0
606477,0.538904,-1.100993,0.233861,-0.022092,-0.328822,0.55586,0.0,19.0,88.0,180.0,25.0,1.0
606478,0.4504260000000001,-1.048717,0.175503,-0.196562,-0.245721,0.426804,0.0,19.0,88.0,180.0,25.0,1.0
606479,0.392147,-1.004925,0.134992,-0.274574,-0.178488,0.4208810000000001,0.0,19.0,88.0,180.0,25.0,1.0
606480,0.3653,-0.969426,0.106312,-0.26339,0.8188409999999999,0.115552,0.0,19.0,88.0,180.0,25.0,1.0
606481,0.370164,-0.938146,0.095056,0.307989,0.582621,0.050181,0.0,19.0,88.0,180.0,25.0,1.0
606482,0.383527,-0.914285,0.096276,0.2251,0.142535,0.12671300000000002,0.0,19.0,88.0,180.0,25.0,1.0
606483,0.419278,-0.903417,0.115326,0.063174,0.16687000000000002,0.167965,0.0,19.0,88.0,180.0,25.0,1.0
606484,0.4754310000000001,-0.909086,0.15343800000000002,-0.03069,0.110197,0.139245,0.0,19.0,88.0,180.0,25.0,1.0
606485,0.554399,-0.927372,0.209274,-0.152801,-0.037534,0.10845,0.0,19.0,88.0,180.0,25.0,1.0
606486,0.658049,-0.955485,0.27736,-0.150661,-0.4514510000000001,0.06856,0.0,19.0,88.0,180.0,25.0,1.0
606487,0.768684,-0.994062,0.350252,-0.16406600000000002,-0.586951,-0.001069,0.0,19.0,88.0,180.0,25.0,1.0
606488,0.864682,-1.042499,0.416538,-0.168523,-0.61237,-0.06596,0.0,19.0,88.0,180.0,25.0,1.0
606489,0.948561,-1.096282,0.4808939999999999,-0.145912,-0.335041,0.027523,0.0,19.0,88.0,180.0,25.0,1.0
606490,1.0209780000000002,-1.146523,0.5462739999999999,-0.181735,0.304314,-0.04454,0.0,19.0,88.0,180.0,25.0,1.0
606491,1.057651,-1.1820700000000002,0.5930270000000001,-0.160942,0.29026,-0.07358200000000001,0.0,19.0,88.0,180.0,25.0,1.0
606492,1.049127,-1.199759,0.61269,-0.161,0.154199,-0.345105,0.0,19.0,88.0,180.0,25.0,1.0
606493,1.021161,-1.19555,0.609931,0.5113800000000001,-0.132825,0.292112,0.0,19.0,88.0,180.0,25.0,1.0
606494,1.086106,-1.1859,0.6511399999999999,0.491685,-0.129245,0.275602,0.0,19.0,88.0,180.0,25.0,1.0
606495,1.21688,-1.19204,0.739306,-0.4240850000000001,1.152158,0.295172,0.0,19.0,88.0,180.0,25.0,1.0
606496,1.221011,-1.20306,0.7580680000000001,0.286612,0.633614,-0.21810900000000005,0.0,19.0,88.0,180.0,25.0,1.0
606497,1.198994,-1.205272,0.756618,0.291331,0.632821,-0.211454,0.0,19.0,88.0,180.0,25.0,1.0
606498,1.253498,-1.195702,0.8038489999999999,0.298172,0.907311,0.001129,0.0,19.0,88.0,180.0,25.0,1.0
606499,1.229393,-1.183947,0.781768,0.086063,0.29199200000000003,0.039689,0.0,19.0,88.0,180.0,25.0,1.0
606500,1.215563,-1.1832200000000002,0.784082,0.041925,0.27426100000000003,0.094297,0.0,19.0,88.0,180.0,25.0,1.0
606501,1.210879,-1.190252,0.798143,-0.139266,0.204838,0.253998,0.0,19.0,88.0,180.0,25.0,1.0
606502,1.226016,-1.201617,0.820836,-0.34478400000000003,0.087716,0.246627,0.0,19.0,88.0,180.0,25.0,1.0
606503,1.254952,-1.217915,0.8474389999999999,-0.335173,-0.05891,0.106083,0.0,19.0,88.0,180.0,25.0,1.0
606504,1.296634,-1.237061,0.880217,-0.070389,-0.011201,0.096774,0.0,19.0,88.0,180.0,25.0,1.0
606505,1.355178,-1.252688,0.919206,0.164827,-0.063842,0.02021,0.0,19.0,88.0,180.0,25.0,1.0
606506,1.4101860000000002,-1.2625879999999998,0.95314,0.058312,-0.237043,-0.13413599999999998,0.0,19.0,88.0,180.0,25.0,1.0
606507,1.44333,-1.269264,0.971766,0.028747,-0.301822,-0.159391,0.0,19.0,88.0,180.0,25.0,1.0
606508,1.449583,-1.275011,0.966246,0.058779,-0.458755,-0.07284700000000001,0.0,19.0,88.0,180.0,25.0,1.0
606509,1.431059,-1.279645,0.936056,0.051576,-0.480085,-0.167126,0.0,19.0,88.0,180.0,25.0,1.0
606510,1.396332,-1.284207,0.892704,0.13631400000000002,-0.346024,-0.212102,0.0,19.0,88.0,180.0,25.0,1.0
606511,1.347723,-1.287905,0.839253,0.218843,-0.200731,-0.187394,0.0,19.0,88.0,180.0,25.0,1.0
606512,1.265661,-1.286727,0.762141,0.191013,-0.180626,-0.15220699999999998,0.0,19.0,88.0,180.0,25.0,1.0
606513,1.142963,-1.279513,0.661875,-0.056553,-0.374884,-0.068105,0.0,19.0,88.0,180.0,25.0,1.0
606514,1.009882,-1.268007,0.559684,-0.070668,-0.436351,-0.113336,0.0,19.0,88.0,180.0,25.0,1.0
606515,0.886101,-1.251789,0.464055,-0.002809,-0.379311,0.022962,0.0,19.0,88.0,180.0,25.0,1.0
606516,0.7689819999999999,-1.225991,0.374415,-0.188043,0.269201,-0.054888,0.0,19.0,88.0,180.0,25.0,1.0
606517,0.6538,-1.186659,0.29605,-0.186091,0.514177,-0.254985,0.0,19.0,88.0,180.0,25.0,1.0
606518,0.549071,-1.134687,0.22830300000000006,-0.054777,0.787049,-0.143582,0.0,19.0,88.0,180.0,25.0,1.0
606519,0.479668,-1.077475,0.178301,-0.02649,0.65462,0.341834,0.0,19.0,88.0,180.0,25.0,1.0
606520,0.442654,-1.026591,0.1402,-0.02972,0.679846,0.38956,0.0,19.0,88.0,180.0,25.0,1.0
606521,0.4240680000000001,-0.993587,0.108924,-0.000993,0.473138,0.258521,0.0,19.0,88.0,180.0,25.0,1.0
606522,0.427463,-0.97354,0.09703,0.047164,0.424141,-0.123603,0.0,19.0,88.0,180.0,25.0,1.0
606523,0.452837,-0.96261,0.113357,0.052974,0.46766,-0.070133,0.0,19.0,88.0,180.0,25.0,1.0
606524,0.500408,-0.96353,0.15508,-0.043765,0.14229,0.060107000000000015,0.0,19.0,88.0,180.0,25.0,1.0
606525,0.565105,-0.971938,0.211464,-0.157912,-0.08716499999999999,0.233752,0.0,19.0,88.0,180.0,25.0,1.0
606526,0.634767,-0.984026,0.267296,-0.216919,-0.409149,0.312127,0.0,19.0,88.0,180.0,25.0,1.0
606527,0.703544,-1.001076,0.317956,-0.234904,-0.544231,0.27815500000000004,0.0,19.0,88.0,180.0,25.0,1.0
606528,0.7663800000000001,-1.02844,0.367616,-0.215102,-0.752354,0.187907,0.0,19.0,88.0,180.0,25.0,1.0
606529,0.8225819999999999,-1.067126,0.422012,-0.152421,-0.677392,0.176379,0.0,19.0,88.0,180.0,25.0,1.0
606530,0.871549,-1.110986,0.479754,-0.160466,-0.647159,0.10912,0.0,19.0,88.0,180.0,25.0,1.0
606531,0.918928,-1.159369,0.542655,-0.355497,-0.21721,0.06807300000000001,0.0,19.0,88.0,180.0,25.0,1.0
606532,0.956594,-1.208018,0.604761,-0.301212,0.154853,-0.086852,0.0,19.0,88.0,180.0,25.0,1.0
606533,0.971285,-1.250851,0.6507310000000001,-0.237448,0.192578,-0.195877,0.0,19.0,88.0,180.0,25.0,1.0
606534,0.968916,-1.281242,0.6795,-0.145459,-0.012921,-0.329916,0.0,19.0,88.0,180.0,25.0,1.0
606535,0.95379,-1.29474,0.686449,0.252397,-0.252497,-0.14690899999999998,0.0,19.0,88.0,180.0,25.0,1.0
606536,0.951848,-1.284906,0.664528,0.245008,-0.24977,-0.140996,0.0,19.0,88.0,180.0,25.0,1.0
606537,1.007511,-1.268261,0.672122,0.058608000000000014,0.278494,0.43567,0.0,19.0,88.0,180.0,25.0,1.0
606538,1.128003,-1.273185,0.768686,-0.058746000000000013,0.584259,0.5699,0.0,19.0,88.0,180.0,25.0,1.0
606539,1.082958,-1.277941,0.770501,0.090817,0.618825,0.576946,0.0,19.0,88.0,180.0,25.0,1.0
606540,1.132275,-1.278938,0.8378530000000001,1.446818,0.961097,-0.16055999999999998,0.0,19.0,88.0,180.0,25.0,1.0
606541,1.2039799999999998,-1.276533,0.917307,0.161057,0.893539,0.081069,0.0,19.0,88.0,180.0,25.0,1.0
606542,1.221349,-1.279376,0.957906,0.165481,1.062183,-0.034795,0.0,19.0,88.0,180.0,25.0,1.0
606543,1.2600129999999998,-1.287483,1.01878,0.26471,0.350611,0.16836900000000002,0.0,19.0,88.0,180.0,25.0,1.0
606544,1.30528,-1.299458,1.080451,-0.005358,0.296322,0.08200199999999999,0.0,19.0,88.0,180.0,25.0,1.0
606545,1.352607,-1.318304,1.13851,-0.16083599999999998,0.252822,0.112012,0.0,19.0,88.0,180.0,25.0,1.0
606546,1.406537,-1.3401040000000002,1.191566,-0.288631,-0.220594,0.110005,0.0,19.0,88.0,180.0,25.0,1.0
606547,1.471067,-1.358848,1.251072,-0.128471,-0.503654,0.008294,0.0,19.0,88.0,180.0,25.0,1.0
606548,1.549688,-1.371833,1.321793,0.103989,-0.48102,-0.033731,0.0,19.0,88.0,180.0,25.0,1.0
606549,1.617145,-1.382012,1.378544,0.134322,-0.509867,-0.138501,0.0,19.0,88.0,180.0,25.0,1.0
606550,1.656593,-1.389751,1.40716,0.113307,-0.473143,-0.305773,0.0,19.0,88.0,180.0,25.0,1.0
606551,1.643032,-1.3949280000000002,1.385198,0.144867,-0.447359,-0.285637,0.0,19.0,88.0,180.0,25.0,1.0
606552,1.567747,-1.398475,1.3028,0.197299,-0.340231,-0.31303000000000003,0.0,19.0,88.0,180.0,25.0,1.0
606553,1.433327,-1.399956,1.165382,0.1741,-0.259124,-0.50983,0.0,19.0,88.0,180.0,25.0,1.0
606554,1.24684,-1.399639,1.003414,0.026364,-0.27233,-0.328704,0.0,19.0,88.0,180.0,25.0,1.0
606555,1.032859,-1.395054,0.830485,0.178275,-0.385491,0.013009,0.0,19.0,88.0,180.0,25.0,1.0
606556,0.811315,-1.37846,0.650576,0.206673,-0.499001,0.335592,0.0,19.0,88.0,180.0,25.0,1.0
606557,0.620102,-1.344128,0.5152869999999999,-0.106103,-0.08980700000000001,0.111811,0.0,19.0,88.0,180.0,25.0,1.0
606558,0.474163,-1.294223,0.432975,-0.297207,0.388971,-0.159733,0.0,19.0,88.0,180.0,25.0,1.0
606559,0.399452,-1.235718,0.39754,-0.376456,1.198102,0.138675,0.0,19.0,88.0,180.0,25.0,1.0
606560,0.393359,-1.183218,0.396458,-0.278775,1.062286,0.308705,0.0,19.0,88.0,180.0,25.0,1.0
606561,0.409612,-1.139337,0.398681,-0.182539,0.414062,-0.084297,0.0,19.0,88.0,180.0,25.0,1.0
606562,0.408255,-1.106044,0.379103,0.180445,0.5960270000000001,-0.169996,0.0,19.0,88.0,180.0,25.0,1.0
606563,0.403774,-1.08174,0.363148,0.501687,0.5796720000000001,-0.053216999999999993,0.0,19.0,88.0,180.0,25.0,1.0
606564,0.406877,-1.064886,0.3723,0.220942,0.132606,0.015138,0.0,19.0,88.0,180.0,25.0,1.0
606565,0.416671,-1.054568,0.393206,-0.148058,-0.160779,0.137465,0.0,19.0,88.0,180.0,25.0,1.0
606566,0.433661,-1.051079,0.417755,-0.189472,-0.240946,0.212105,0.0,19.0,88.0,180.0,25.0,1.0
606567,0.456353,-1.055046,0.440967,-0.187001,-0.45348,0.27258000000000004,0.0,19.0,88.0,180.0,25.0,1.0
606568,0.488996,-1.068904,0.462847,-0.23010300000000006,-0.5115310000000001,0.213154,0.0,19.0,88.0,180.0,25.0,1.0
606569,0.5334399999999999,-1.094533,0.488494,-0.276277,-0.5474359999999999,0.118929,0.0,19.0,88.0,180.0,25.0,1.0
606570,0.5919810000000001,-1.131739,0.529874,-0.31913800000000003,-0.463533,-0.136936,0.0,19.0,88.0,180.0,25.0,1.0
606571,0.652555,-1.176609,0.5853189999999999,-0.27016100000000004,-0.382522,-0.259065,0.0,19.0,88.0,180.0,25.0,1.0
606572,0.692455,-1.222062,0.636704,-0.206282,-0.261156,-0.320952,0.0,19.0,88.0,180.0,25.0,1.0
606573,0.694164,-1.263276,0.66527,0.182272,0.13967100000000002,-0.440803,0.0,19.0,88.0,180.0,25.0,1.0
606574,0.656853,-1.287839,0.663022,0.520574,0.356798,-0.527455,0.0,19.0,88.0,180.0,25.0,1.0
606575,0.6037140000000001,-1.275874,0.6285109999999999,0.6121979999999999,0.336175,-0.481972,0.0,19.0,88.0,180.0,25.0,1.0
606576,0.583397,-1.244205,0.598572,0.08379099999999999,-0.35732800000000003,-0.4309520000000001,0.0,19.0,88.0,180.0,25.0,1.0
606577,0.568779,-1.212513,0.572275,-0.29191,0.195366,0.655805,0.0,19.0,88.0,180.0,25.0,1.0
606578,0.530223,-1.180848,0.531493,-0.295288,0.206938,0.688293,0.0,19.0,88.0,180.0,25.0,1.0
606579,0.603234,-1.190783,0.591336,0.080722,1.227621,1.199749,0.0,19.0,88.0,180.0,25.0,1.0
606580,0.683836,-1.20296,0.660224,0.168007,0.789884,1.658303,0.0,19.0,88.0,180.0,25.0,1.0
606581,0.704647,-1.201388,0.687344,0.362783,0.600113,0.039291,0.0,19.0,88.0,180.0,25.0,1.0
606582,0.777392,-1.22017,0.77018,0.572688,0.638876,0.177218,0.0,19.0,88.0,180.0,25.0,1.0
606583,0.778069,-1.237194,0.8117300000000001,-0.01905,0.381913,0.490888,0.0,19.0,88.0,180.0,25.0,1.0
606584,0.773414,-1.264081,0.8565889999999999,-0.293986,0.365853,0.5221720000000001,0.0,19.0,88.0,180.0,25.0,1.0
606585,0.8210700000000001,-1.295233,0.923875,-0.472292,0.330376,0.262677,0.0,19.0,88.0,180.0,25.0,1.0
606586,0.8914540000000001,-1.32873,0.986561,-0.487829,0.371456,-0.020696,0.0,19.0,88.0,180.0,25.0,1.0
606587,1.003241,-1.358395,1.082969,-0.28733600000000004,0.234066,0.02172,0.0,19.0,88.0,180.0,25.0,1.0
606588,1.148971,-1.385067,1.2010809999999998,0.026084,-0.200285,0.105066,0.0,19.0,88.0,180.0,25.0,1.0
606589,1.30061,-1.405228,1.3307209999999998,0.15983,-0.456616,0.129573,0.0,19.0,88.0,180.0,25.0,1.0
606590,1.422983,-1.422381,1.435441,0.098188,-0.482491,0.066789,0.0,19.0,88.0,180.0,25.0,1.0
606591,1.541093,-1.435712,1.533851,0.040683,-0.5304260000000001,-0.009795,0.0,19.0,88.0,180.0,25.0,1.0
606592,1.6608060000000002,-1.446836,1.632952,0.186585,-0.399309,-0.398594,0.0,19.0,88.0,180.0,25.0,1.0
606593,1.790859,-1.456499,1.735445,0.220372,-0.306418,-0.447468,0.0,19.0,88.0,180.0,25.0,1.0
606594,1.894632,-1.465829,1.80842,0.246289,-0.17837999999999998,-0.438865,0.0,19.0,88.0,180.0,25.0,1.0
606595,1.968866,-1.477978,1.855196,0.452334,-0.001128,-0.090607,0.0,19.0,88.0,180.0,25.0,1.0
606596,2.0165040000000003,-1.489023,1.88395,0.464071,-0.002091,-0.08989,0.0,19.0,88.0,180.0,25.0,1.0
606597,2.059977,-1.495126,1.924721,0.4138520000000001,-0.04174,-0.17064300000000002,0.0,19.0,88.0,180.0,25.0,1.0
606598,2.073982,-1.496796,1.952192,0.325333,0.041845,-0.22710500000000006,0.0,19.0,88.0,180.0,25.0,1.0
606599,1.956879,-1.499973,1.85246,0.331919,0.16254100000000002,-0.20588,0.0,19.0,88.0,180.0,25.0,1.0
606600,1.609338,-1.503953,1.525265,0.264879,0.38233,0.000235,0.0,19.0,88.0,180.0,25.0,1.0
606601,1.030284,-1.491486,0.975092,0.23731,0.205292,0.261352,0.0,19.0,88.0,180.0,25.0,1.0
606602,0.579858,-1.441375,0.570188,0.219731,0.231981,0.355877,0.0,19.0,88.0,180.0,25.0,1.0
606603,0.42318,-1.363016,0.464087,-0.055049,0.731332,0.112447,0.0,19.0,88.0,180.0,25.0,1.0
606604,0.389546,-1.277096,0.464883,-0.296982,0.940862,0.081676,0.0,19.0,88.0,180.0,25.0,1.0
606605,0.378542,-1.199502,0.46378,-0.180792,0.955898,0.422322,0.0,19.0,88.0,180.0,25.0,1.0
606606,0.389985,-1.1382,0.4561310000000001,0.367263,0.14190899999999998,0.357887,0.0,19.0,88.0,180.0,25.0,1.0
606607,0.405762,-1.090711,0.458018,0.390208,-0.063576,0.261875,0.0,19.0,88.0,180.0,25.0,1.0
606608,0.419751,-1.049291,0.478156,0.4934310000000001,-0.156056,0.180156,0.0,19.0,88.0,180.0,25.0,1.0
606609,0.441894,-1.012443,0.52898,0.465284,-0.031799,0.236375,0.0,19.0,88.0,180.0,25.0,1.0
606610,0.469521,-0.981698,0.603384,0.193327,0.047678,0.267228,0.0,19.0,88.0,180.0,25.0,1.0
606611,0.482722,-0.955133,0.677971,0.043652,0.067887,0.312657,0.0,19.0,88.0,180.0,25.0,1.0
606612,0.481047,-0.93837,0.751102,-0.285089,-0.25645500000000004,0.6408699999999999,0.0,19.0,88.0,180.0,25.0,1.0
606613,0.474783,-0.934187,0.823068,-0.274399,-0.323357,0.632523,0.0,19.0,88.0,180.0,25.0,1.0
606614,0.466851,-0.939844,0.8870049999999999,-0.298297,-0.35164,0.5679390000000001,0.0,19.0,88.0,180.0,25.0,1.0
606615,0.461896,-0.950931,0.939249,-0.304602,-0.330604,0.377577,0.0,19.0,88.0,180.0,25.0,1.0
606616,0.463325,-0.964719,0.982851,-0.273983,-0.22435500000000005,0.346488,0.0,19.0,88.0,180.0,25.0,1.0
606617,0.471902,-0.980762,1.023191,-0.262033,-0.134022,0.33015700000000003,0.0,19.0,88.0,180.0,25.0,1.0
606618,0.488963,-1.001899,1.061817,-0.270673,-0.08131100000000001,0.283819,0.0,19.0,88.0,180.0,25.0,1.0
606619,0.510714,-1.02986,1.0962610000000002,-0.238228,-0.033939,0.213587,0.0,19.0,88.0,180.0,25.0,1.0
606620,0.530329,-1.064654,1.119536,-0.199476,-0.037906,0.187727,0.0,19.0,88.0,180.0,25.0,1.0
606621,0.53904,-1.101489,1.126169,0.041559,-0.023092,0.126157,0.0,19.0,88.0,180.0,25.0,1.0
606622,0.532633,-1.133143,1.125092,0.311917,0.242444,-0.228511,0.0,19.0,88.0,180.0,25.0,1.0
606623,0.522122,-1.159638,1.136288,0.400302,0.355314,-0.359821,0.0,19.0,88.0,180.0,25.0,1.0
606624,0.522103,-1.180877,1.166974,0.430174,0.259691,-0.227722,0.0,19.0,88.0,180.0,25.0,1.0
606625,0.526961,-1.188686,1.198632,0.221841,0.026817,-0.052862,0.0,19.0,88.0,180.0,25.0,1.0
606626,0.537042,-1.185819,1.223904,0.197954,-0.116337,-0.062724,0.0,19.0,88.0,180.0,25.0,1.0
606627,0.5515369999999999,-1.179997,1.244691,0.22389,-0.243712,-0.030327,0.0,19.0,88.0,180.0,25.0,1.0
606628,0.5576909999999999,-1.17655,1.255558,0.10773900000000003,0.103539,0.060802,0.0,19.0,88.0,180.0,25.0,1.0
606629,0.550369,-1.184649,1.258721,0.308491,0.941309,0.339359,0.0,19.0,88.0,180.0,25.0,1.0
606630,0.571384,-1.211275,1.291475,0.100112,1.392563,0.412008,0.0,19.0,88.0,180.0,25.0,1.0
606631,0.6016130000000001,-1.233484,1.345616,-0.152501,-0.273832,0.09419,0.0,19.0,88.0,180.0,25.0,1.0
606632,0.610795,-1.246246,1.389865,-0.196446,-0.303233,0.21256,0.0,19.0,88.0,180.0,25.0,1.0
606633,0.61745,-1.260962,1.423837,-0.06861,-0.26612,0.480272,0.0,19.0,88.0,180.0,25.0,1.0
606634,0.610858,-1.283157,1.43823,-0.070228,-0.215798,0.5182220000000001,0.0,19.0,88.0,180.0,25.0,1.0
606635,0.570259,-1.307184,1.430171,-0.03515,-0.113374,0.5455939999999999,0.0,19.0,88.0,180.0,25.0,1.0
606636,0.506285,-1.331496,1.41394,-0.04444,0.12426,0.482916,0.0,19.0,88.0,180.0,25.0,1.0
606637,0.4567520000000001,-1.360199,1.41341,-0.076551,0.148894,0.26502800000000004,0.0,19.0,88.0,180.0,25.0,1.0
606638,0.446649,-1.391846,1.441875,0.040247000000000005,0.088875,0.160111,0.0,19.0,88.0,180.0,25.0,1.0
606639,0.50138,-1.419125,1.519576,0.230702,0.059728,0.088215,0.0,19.0,88.0,180.0,25.0,1.0
606640,0.597212,-1.436595,1.625704,0.328593,0.00774,0.054991,0.0,19.0,88.0,180.0,25.0,1.0
606641,0.69015,-1.442682,1.718706,0.336717,-0.025542,0.011214,0.0,19.0,88.0,180.0,25.0,1.0
606642,0.7471479999999999,-1.444136,1.772911,0.279009,-0.019272,-0.056862,0.0,19.0,88.0,180.0,25.0,1.0
606643,0.755617,-1.446716,1.782822,0.146119,-0.109164,-0.023476,0.0,19.0,88.0,180.0,25.0,1.0
606644,0.746949,-1.452115,1.789346,0.046571,-0.06668099999999999,0.146723,0.0,19.0,88.0,180.0,25.0,1.0
606645,0.748721,-1.463379,1.821934,0.029622,-0.051945000000000005,0.211913,0.0,19.0,88.0,180.0,25.0,1.0
606646,0.77166,-1.480865,1.882055,0.068848,-0.07632699999999999,0.182408,0.0,19.0,88.0,180.0,25.0,1.0
606647,0.8400719999999999,-1.501713,1.983914,0.08008,-0.07798300000000001,0.164101,0.0,19.0,88.0,180.0,25.0,1.0
606648,1.00615,-1.522515,2.174474,0.165332,-0.106531,0.131768,0.0,19.0,88.0,180.0,25.0,1.0
606649,1.401747,-1.539137,2.585164,0.111895,-0.13988,0.107605,0.0,19.0,88.0,180.0,25.0,1.0
606650,2.141717,-1.545226,-2.948592,0.121584,-0.14005399999999998,0.088537,0.0,19.0,88.0,180.0,25.0,1.0
606651,2.757066,-1.537406,-2.327387,0.161672,-0.030342,0.06929099999999999,0.0,19.0,88.0,180.0,25.0,1.0
606652,3.0975080000000004,-1.524692,-1.98321,0.189469,-0.031805,0.0070090000000000005,0.0,19.0,88.0,180.0,25.0,1.0
606653,-2.978384,-1.510306,-1.7717630000000002,0.226796,0.002775,-0.019477,0.0,19.0,88.0,180.0,25.0,1.0
606654,-2.833162,-1.495976,-1.619427,0.262167,0.052206,-0.030065,0.0,19.0,88.0,180.0,25.0,1.0
606655,-2.714668,-1.483872,-1.491495,0.102691,0.064612,-0.064206,0.0,19.0,88.0,180.0,25.0,1.0
606656,-2.63523,-1.47484,-1.405063,0.162083,0.106651,-0.078417,0.0,19.0,88.0,180.0,25.0,1.0
606657,-2.595673,-1.470942,-1.36189,0.265396,0.096503,-0.063932,0.0,19.0,88.0,180.0,25.0,1.0
606658,-2.639959,-1.47665,-1.402283,0.303091,0.131794,-0.143811,0.0,19.0,88.0,180.0,25.0,1.0
606659,-2.544186,-1.472553,-1.296697,0.313058,0.132187,-0.142485,0.0,19.0,88.0,180.0,25.0,1.0
606660,-2.450022,-1.469273,-1.186453,0.5145489999999999,0.140983,-0.127506,0.0,19.0,88.0,180.0,25.0,1.0
606661,-2.313078,-1.471649,-1.034015,0.48895,0.06626699999999999,-0.01191,0.0,19.0,88.0,180.0,25.0,1.0
606662,-2.092494,-1.480745,-0.7978029999999999,0.4794100000000001,-0.026862,0.089646,0.0,19.0,88.0,180.0,25.0,1.0
606663,-1.688278,-1.493502,-0.3723260000000001,0.24020500000000006,0.193797,0.241763,0.0,19.0,88.0,180.0,25.0,1.0
606664,-1.097449,-1.493211,0.249829,0.028197000000000007,0.330279,0.089363,0.0,19.0,88.0,180.0,25.0,1.0
606665,-0.5820000000000001,-1.472327,0.806696,-0.099065,0.4637979999999999,0.078457,0.0,19.0,88.0,180.0,25.0,1.0
606666,-0.23927,-1.43404,1.1901469999999998,-0.124036,0.5280590000000001,0.08306799999999999,0.0,19.0,88.0,180.0,25.0,1.0
606667,-0.046946,-1.382544,1.408807,-0.08377799999999999,0.431257,0.124607,0.0,19.0,88.0,180.0,25.0,1.0
606668,0.06325900000000001,-1.330302,1.527474,-0.045101,0.332613,0.103603,0.0,19.0,88.0,180.0,25.0,1.0
606669,0.128105,-1.288997,1.595518,0.337323,-0.225465,0.093318,0.0,19.0,88.0,180.0,25.0,1.0
606670,0.176815,-1.260091,1.6581290000000002,0.415707,-0.323486,0.281411,0.0,19.0,88.0,180.0,25.0,1.0
606671,0.227176,-1.236314,1.7351880000000002,0.364327,-0.287964,0.324981,0.0,19.0,88.0,180.0,25.0,1.0
606672,0.285984,-1.212676,1.830134,0.29652199999999995,-0.062244000000000015,0.244338,0.0,19.0,88.0,180.0,25.0,1.0
606673,0.339766,-1.185948,1.932659,0.233575,0.060449,0.19282,0.0,19.0,88.0,180.0,25.0,1.0
606674,0.387298,-1.159779,2.038791,0.172464,0.09859,0.23662800000000006,0.0,19.0,88.0,180.0,25.0,1.0
606675,0.437026,-1.14037,2.143353,-0.161327,0.092082,0.334321,0.0,19.0,88.0,180.0,25.0,1.0
606676,0.477188,-1.129665,2.235686,-0.332524,0.012296,0.341085,0.0,19.0,88.0,180.0,25.0,1.0
606677,0.502981,-1.121592,2.308255,-0.300799,0.002772,0.32335,0.0,19.0,88.0,180.0,25.0,1.0
606678,0.521915,-1.114926,2.367923,-0.07368,0.096171,0.24082,0.0,19.0,88.0,180.0,25.0,1.0
606679,0.544111,-1.109651,2.421717,-0.041392,0.093714,0.181629,0.0,19.0,88.0,180.0,25.0,1.0
606680,0.568836,-1.104323,2.471673,-0.058306,0.068373,0.171792,0.0,19.0,88.0,180.0,25.0,1.0
606681,0.590274,-1.099646,2.51573,-0.037689,-0.090555,0.181834,0.0,19.0,88.0,180.0,25.0,1.0
606682,0.602618,-1.096695,2.551594,-0.013632,-0.178034,0.180027,0.0,19.0,88.0,180.0,25.0,1.0
606683,0.605869,-1.09693,2.579229,-0.006372,-0.200159,0.175701,0.0,19.0,88.0,180.0,25.0,1.0
606684,0.6030979999999999,-1.101416,2.600553,-0.000426,-0.146579,0.161883,0.0,19.0,88.0,180.0,25.0,1.0
606685,0.596345,-1.109604,2.618834,0.000957,-0.204483,0.142812,0.0,19.0,88.0,180.0,25.0,1.0
606686,0.587899,-1.121281,2.63738,-0.005184,-0.235466,0.125807,0.0,19.0,88.0,180.0,25.0,1.0
606687,0.584387,-1.1364040000000002,2.660563,-0.041827,-0.224997,-0.07048,0.0,19.0,88.0,180.0,25.0,1.0
606688,0.591979,-1.155118,2.693046,0.038545,-0.037737,-0.191641,0.0,19.0,88.0,180.0,25.0,1.0
606689,0.605371,-1.173878,2.729487,0.105652,0.060379,-0.23395900000000006,0.0,19.0,88.0,180.0,25.0,1.0
606690,0.610757,-1.183874,2.756187,0.233418,0.295376,-0.17994200000000002,0.0,19.0,88.0,180.0,25.0,1.0
606691,0.606921,-1.177454,2.769534,0.21068,0.215481,-0.221494,0.0,19.0,88.0,180.0,25.0,1.0
606692,0.607873,-1.16234,2.7851220000000003,0.214899,0.06667100000000001,-0.277249,0.0,19.0,88.0,180.0,25.0,1.0
606693,0.617892,-1.149828,2.814236,0.273781,-0.19724,-0.163972,0.0,19.0,88.0,180.0,25.0,1.0
606694,0.6210100000000001,-1.145702,2.8423380000000003,0.216035,-0.254567,-0.061966,0.0,19.0,88.0,180.0,25.0,1.0
606695,0.621292,-1.147885,2.871661,0.178616,-0.271624,-0.038963,0.0,19.0,88.0,180.0,25.0,1.0
606696,0.637714,-1.155165,2.913291,0.175021,-0.242086,0.0054670000000000005,0.0,19.0,88.0,180.0,25.0,1.0
606697,0.682678,-1.165345,2.970104,0.169348,0.149694,0.253954,0.0,19.0,88.0,180.0,25.0,1.0
606698,0.762745,-1.17767,3.046251,0.049998,0.31867,0.185799,0.0,19.0,88.0,180.0,25.0,1.0
606699,0.8466530000000001,-1.19091,3.125593,-0.090795,0.691975,0.013741,0.0,19.0,88.0,180.0,25.0,1.0
606700,0.828102,-1.194388,3.132548,-0.293496,-0.278425,0.218692,0.0,19.0,88.0,180.0,25.0,1.0
606701,0.78867,-1.182185,3.1281,-0.394071,-0.567862,0.401046,0.0,19.0,88.0,180.0,25.0,1.0
606702,0.7798470000000001,-1.191258,3.140067,-0.42325,-0.416614,0.486004,0.0,19.0,88.0,180.0,25.0,1.0
606703,0.751034,-1.217332,3.130547,0.077941,-0.22280100000000005,0.8108569999999999,0.0,19.0,88.0,180.0,25.0,1.0
606704,0.727578,-1.247755,3.122272,0.103027,-0.232897,0.794895,0.0,19.0,88.0,180.0,25.0,1.0
606705,0.740844,-1.27036,-3.129643,0.154201,0.30448200000000003,0.167418,0.0,19.0,88.0,180.0,25.0,1.0
606706,0.7964140000000001,-1.2883790000000002,-3.048268,-0.081914,0.014209,0.147977,0.0,19.0,88.0,180.0,25.0,1.0
606707,0.880683,-1.302396,-2.9443650000000003,-0.155628,-0.028054000000000003,0.15605,0.0,19.0,88.0,180.0,25.0,1.0
606708,0.966067,-1.312141,-2.855714,-0.190867,-0.002547,0.165498,0.0,19.0,88.0,180.0,25.0,1.0
606709,1.034118,-1.321083,-2.794036,-0.024206,-0.017552,0.041967,0.0,19.0,88.0,180.0,25.0,1.0
606710,1.086215,-1.331843,-2.751446,0.118406,-0.090788,-0.062429999999999986,0.0,19.0,88.0,180.0,25.0,1.0
606711,1.132334,-1.344285,-2.710449,0.180582,-0.157119,-0.132609,0.0,19.0,88.0,180.0,25.0,1.0
606712,1.175207,-1.357094,-2.669661,0.179445,-0.14796800000000002,-0.143177,0.0,19.0,88.0,180.0,25.0,1.0
606713,1.208474,-1.369047,-2.636813,0.172848,-0.07771,-0.090309,0.0,19.0,88.0,180.0,25.0,1.0
606714,1.231232,-1.377935,-2.612556,0.233468,0.035844,0.017939,0.0,19.0,88.0,180.0,25.0,1.0
606715,1.254935,-1.3845040000000002,-2.584938,0.231974,-0.072679,0.01197,0.0,19.0,88.0,180.0,25.0,1.0
606716,1.288806,-1.388914,-2.543554,0.207023,-0.08845499999999999,-0.01522,0.0,19.0,88.0,180.0,25.0,1.0
606717,1.303213,-1.369872,-2.518819,0.095498,-0.072122,-0.07850499999999999,0.0,19.0,88.0,180.0,25.0,1.0
606718,1.346739,-1.361289,-2.465352,0.048541,-0.049728,-0.15954100000000002,0.0,19.0,88.0,180.0,25.0,1.0
606719,1.372719,-1.348504,-2.427227,0.036842,-0.013587,-0.264692,0.0,19.0,88.0,180.0,25.0,1.0
606720,1.36749,-1.337151,-2.420016,0.078395,-0.122121,-0.17108900000000002,0.0,19.0,88.0,180.0,25.0,1.0
606721,1.34563,-1.335655,-2.4297470000000003,-0.001446,-0.254571,0.048277,0.0,19.0,88.0,180.0,25.0,1.0
606722,1.309575,-1.3401379999999998,-2.448825,-0.035721,-0.31752600000000003,0.187154,0.0,19.0,88.0,180.0,25.0,1.0
606723,1.266011,-1.347665,-2.475628,-0.051304,-0.26325,0.234997,0.0,19.0,88.0,180.0,25.0,1.0
606724,1.228429,-1.353294,-2.503645,-0.08230499999999999,-0.051925,0.009348,0.0,19.0,88.0,180.0,25.0,1.0
606725,1.207828,-1.354826,-2.517663,-0.15574200000000002,0.01165,-0.069623,0.0,19.0,88.0,180.0,25.0,1.0
606726,1.181129,-1.355036,-2.536877,-0.072791,-0.101646,0.054059,0.0,19.0,88.0,180.0,25.0,1.0
606727,1.147436,-1.356263,-2.562469,-0.042815,-0.238215,0.064052,0.0,19.0,88.0,180.0,25.0,1.0
606728,1.099158,-1.358154,-2.603679,-0.036721,-0.238616,0.072477,0.0,19.0,88.0,180.0,25.0,1.0
606729,1.036608,-1.359479,-2.664773,-0.042582,-0.344943,0.037956,0.0,19.0,88.0,180.0,25.0,1.0
606730,0.961126,-1.359466,-2.745343,0.046955,-0.262955,-0.078306,0.0,19.0,88.0,180.0,25.0,1.0
606731,0.8847870000000001,-1.355867,-2.830178,0.153397,-0.13289,-0.137944,0.0,19.0,88.0,180.0,25.0,1.0
606732,0.803078,-1.344495,-2.921616,0.268225,-0.086075,0.04457,0.0,19.0,88.0,180.0,25.0,1.0
606733,0.714199,-1.319734,-3.010744,0.046338,0.07257999999999999,-0.147566,0.0,19.0,88.0,180.0,25.0,1.0
606734,0.620542,-1.279721,-3.089826,-0.096497,0.5507920000000001,-0.155274,0.0,19.0,88.0,180.0,25.0,1.0
606735,0.519031,-1.2298440000000002,3.122968,-0.097888,0.903663,-0.17314300000000002,0.0,19.0,88.0,180.0,25.0,1.0
606736,0.440163,-1.176729,3.069214,0.049969,0.8345790000000001,0.12571300000000002,0.0,19.0,88.0,180.0,25.0,1.0
606737,0.392317,-1.120552,3.027029,0.15724000000000002,0.628621,0.170736,0.0,19.0,88.0,180.0,25.0,1.0
606738,0.358068,-1.076494,2.996557,0.123742,0.517573,-0.004618,0.0,19.0,88.0,180.0,25.0,1.0
606739,0.357679,-1.041705,2.988137,0.0186,0.5119779999999999,-0.23865300000000006,0.0,19.0,88.0,180.0,25.0,1.0
606740,0.379354,-1.011941,3.001786,-0.000381,0.378288,-0.123174,0.0,19.0,88.0,180.0,25.0,1.0
606741,0.408876,-0.986368,3.027133,-0.021156,0.120257,0.022019,0.0,19.0,88.0,180.0,25.0,1.0
606742,0.439107,-0.966534,3.056559,-0.039437,-0.088898,0.123643,0.0,19.0,88.0,180.0,25.0,1.0
606743,0.464193,-0.956188,3.085296,-0.10185,-0.22860500000000006,0.221704,0.0,19.0,88.0,180.0,25.0,1.0
606744,0.483704,-0.954891,3.111541,-0.130847,-0.326535,0.262307,0.0,19.0,88.0,180.0,25.0,1.0
606745,0.501825,-0.961237,3.13414,-0.176024,-0.329361,0.306941,0.0,19.0,88.0,180.0,25.0,1.0
606746,0.525925,-0.972523,-3.124418,-0.20219,-0.354096,0.316844,0.0,19.0,88.0,180.0,25.0,1.0
606747,0.56277,-0.987192,-3.093524,-0.2092,-0.465463,0.310856,0.0,19.0,88.0,180.0,25.0,1.0
606748,0.6120909999999999,-1.005991,-3.055644,-0.260241,-0.561291,0.15120899999999998,0.0,19.0,88.0,180.0,25.0,1.0
606749,0.674007,-1.031849,-3.005861,-0.269796,-0.565876,0.133712,0.0,19.0,88.0,180.0,25.0,1.0
606750,0.747054,-1.064712,-2.944972,-0.353504,-0.750458,0.202066,0.0,19.0,88.0,180.0,25.0,1.0
606751,0.8252799999999999,-1.103255,-2.880345,-0.342369,-0.635446,0.125687,0.0,19.0,88.0,180.0,25.0,1.0
606752,0.901314,-1.148524,-2.816791,-0.263382,-0.43543,0.095229,0.0,19.0,88.0,180.0,25.0,1.0
606753,0.965087,-1.196824,-2.757055,0.069796,0.387766,0.0144,0.0,19.0,88.0,180.0,25.0,1.0
606754,0.990372,-1.237968,-2.713648,0.17762999999999998,0.667884,-0.302406,0.0,19.0,88.0,180.0,25.0,1.0
606755,0.979181,-1.26257,-2.696871,0.175397,0.6143270000000001,-0.444583,0.0,19.0,88.0,180.0,25.0,1.0
606756,0.987407,-1.269197,-2.676136,0.329741,-0.353102,-0.364968,0.0,19.0,88.0,180.0,25.0,1.0
606757,1.032952,-1.257598,-2.660425,-0.012934,-0.460371,-0.108799,0.0,19.0,88.0,180.0,25.0,1.0
606758,1.111903,-1.242445,-2.632305,-0.187338,-0.371822,0.192282,0.0,19.0,88.0,180.0,25.0,1.0
606759,1.212053,-1.247611,-2.564804,-0.30235500000000004,0.6799,-0.033319,0.0,19.0,88.0,180.0,25.0,1.0
606760,1.282683,-1.256218,-2.483699,-0.034891000000000005,0.818803,-0.048558,0.0,19.0,88.0,180.0,25.0,1.0
606761,1.294822,-1.2629709999999998,-2.439737,0.638461,0.777489,0.656242,0.0,19.0,88.0,180.0,25.0,1.0
606762,1.303014,-1.256413,-2.410556,0.154068,0.24675100000000005,-0.106765,0.0,19.0,88.0,180.0,25.0,1.0
606763,1.289131,-1.2468780000000002,-2.410773,-0.39709,0.0051600000000000005,-0.05791,0.0,19.0,88.0,180.0,25.0,1.0
606764,1.267437,-1.243876,-2.420473,-0.372606,0.183305,0.024715,0.0,19.0,88.0,180.0,25.0,1.0
606765,1.268752,-1.244962,-2.419396,0.409424,0.724399,0.023426,0.0,19.0,88.0,180.0,25.0,1.0
606766,1.285519,-1.241954,-2.421881,0.328095,0.339014,0.009966,0.0,19.0,88.0,180.0,25.0,1.0
606767,1.281409,-1.236885,-2.436891,0.029123000000000007,0.12517899999999998,-0.026059,0.0,19.0,88.0,180.0,25.0,1.0
606768,1.2488290000000002,-1.236062,-2.4638560000000003,-0.130342,-0.084634,0.098093,0.0,19.0,88.0,180.0,25.0,1.0
606769,1.212754,-1.241413,-2.484026,-0.117472,-0.222457,-0.042242,0.0,19.0,88.0,180.0,25.0,1.0
606770,1.209275,-1.253337,-2.479793,-0.061609,-0.249012,-0.025031,0.0,19.0,88.0,180.0,25.0,1.0
606771,1.238048,-1.271158,-2.459376,0.094374,-0.42076,-0.075445,0.0,19.0,88.0,180.0,25.0,1.0
606772,1.288237,-1.287959,-2.42706,0.36456,-0.168443,-0.279719,0.0,19.0,88.0,180.0,25.0,1.0
606773,1.344287,-1.295972,-2.3926,0.368129,-0.170648,-0.296585,0.0,19.0,88.0,180.0,25.0,1.0
606774,1.380101,-1.295162,-2.375346,0.27456,-0.427157,-0.14671900000000002,0.0,19.0,88.0,180.0,25.0,1.0
606775,1.352388,-1.2845950000000002,-2.394145,-0.204736,-0.090472,-0.390461,0.0,19.0,88.0,180.0,25.0,1.0
606776,1.2481799999999998,-1.276923,-2.465944,-0.17987899999999998,-0.156623,-0.307869,0.0,19.0,88.0,180.0,25.0,1.0
606777,1.101636,-1.271539,-2.578377,-0.125318,-0.292607,-0.042412,0.0,19.0,88.0,180.0,25.0,1.0
606778,0.949598,-1.259132,-2.701095,-0.361536,-0.228176,-0.116348,0.0,19.0,88.0,180.0,25.0,1.0
606779,0.7892640000000001,-1.236239,-2.823502,-0.315287,-0.033835000000000004,-0.10292,0.0,19.0,88.0,180.0,25.0,1.0
606780,0.64472,-1.202112,-2.936579,-0.087234,0.213743,-0.017192,0.0,19.0,88.0,180.0,25.0,1.0
606781,0.527701,-1.153123,-3.039347,0.023619,0.921689,0.117085,0.0,19.0,88.0,180.0,25.0,1.0
606782,0.447851,-1.09616,-3.114498,-0.025903,1.082816,0.28946,0.0,19.0,88.0,180.0,25.0,1.0
606783,0.411181,-1.032339,3.123435,-0.199458,0.644826,0.22199,0.0,19.0,88.0,180.0,25.0,1.0
606784,0.402805,-0.97426,3.1002400000000003,-0.129153,0.035354000000000003,0.259585,0.0,19.0,88.0,180.0,25.0,1.0
606785,0.38722,-0.926813,3.079059,-0.101257,0.418216,0.031199,0.0,19.0,88.0,180.0,25.0,1.0
606786,0.377334,-0.891177,3.072506,0.171862,0.220143,-0.05053,0.0,19.0,88.0,180.0,25.0,1.0
606787,0.386537,-0.8701129999999999,3.082148,0.119569,-0.135068,-0.022306,0.0,19.0,88.0,180.0,25.0,1.0
606788,0.414954,-0.8677299999999999,3.101676,0.055976,-0.320877,0.11682,0.0,19.0,88.0,180.0,25.0,1.0
606789,0.455436,-0.8781610000000001,3.126561,0.052285000000000005,-0.386967,0.170797,0.0,19.0,88.0,180.0,25.0,1.0
606790,0.496993,-0.8984969999999999,-3.13083,-0.004103,-0.5560579999999999,0.173707,0.0,19.0,88.0,180.0,25.0,1.0
606791,0.542776,-0.929158,-3.1008880000000003,-0.138148,-0.559921,0.186531,0.0,19.0,88.0,180.0,25.0,1.0
606792,0.609718,-0.970111,-3.054842,-0.186115,-0.449659,0.090742,0.0,19.0,88.0,180.0,25.0,1.0
606793,0.6951970000000001,-1.020342,-2.99217,-0.256388,-0.387306,-0.055379,0.0,19.0,88.0,180.0,25.0,1.0
606794,0.786787,-1.075628,-2.913916,-0.231686,-0.169928,-0.022269,0.0,19.0,88.0,180.0,25.0,1.0
606795,0.8753770000000001,-1.139041,-2.827448,-0.204805,0.23762600000000006,-0.018203,0.0,19.0,88.0,180.0,25.0,1.0
606796,0.963353,-1.200949,-2.738168,-0.162301,0.273565,-0.097364,0.0,19.0,88.0,180.0,25.0,1.0
606797,1.032649,-1.243915,-2.655387,-0.134378,0.204014,-0.265847,0.0,19.0,88.0,180.0,25.0,1.0
606798,1.062214,-1.263412,-2.600548,0.278532,-0.100147,-0.194482,0.0,19.0,88.0,180.0,25.0,1.0
606799,1.105342,-1.262469,-2.561303,0.279954,-0.177299,-0.103574,0.0,19.0,88.0,180.0,25.0,1.0
606800,1.18391,-1.25095,-2.530215,0.155783,0.002041,0.002924,0.0,19.0,88.0,180.0,25.0,1.0
606801,1.27547,-1.250874,-2.489052,-0.464906,0.57105,0.160823,0.0,19.0,88.0,180.0,25.0,1.0
606802,1.325615,-1.258914,-2.441924,-0.405047,0.97912,-0.040829,0.0,19.0,88.0,180.0,25.0,1.0
606803,1.268676,-1.266793,-2.456473,0.226823,0.6737529999999999,0.011674,0.0,19.0,88.0,180.0,25.0,1.0
606804,1.286478,-1.253191,-2.439241,0.457421,0.286693,-0.063388,0.0,19.0,88.0,180.0,25.0,1.0
606805,1.289076,-1.233553,-2.438223,-0.052824,0.522425,-0.28144,0.0,19.0,88.0,180.0,25.0,1.0
606806,1.25785,-1.22484,-2.464461,0.12652,0.469801,-0.020499,0.0,19.0,88.0,180.0,25.0,1.0
606807,1.245945,-1.225577,-2.47091,0.052942,0.361641,0.119237,0.0,19.0,88.0,180.0,25.0,1.0
606808,1.239694,-1.232743,-2.462904,-0.123174,0.19765,0.19337,0.0,19.0,88.0,180.0,25.0,1.0
606809,1.251801,-1.245465,-2.439859,-0.215756,0.031626999999999995,0.152589,0.0,19.0,88.0,180.0,25.0,1.0
606810,1.28037,-1.259054,-2.410223,-0.185104,-0.133579,0.101655,0.0,19.0,88.0,180.0,25.0,1.0
606811,1.3122120000000002,-1.270265,-2.384534,-0.000202,-0.170282,0.0184,0.0,19.0,88.0,180.0,25.0,1.0
606812,1.342059,-1.278101,-2.364576,0.097769,-0.184322,-0.07102,0.0,19.0,88.0,180.0,25.0,1.0
606813,1.372506,-1.283615,-2.34538,0.122923,-0.290208,-0.197803,0.0,19.0,88.0,180.0,25.0,1.0
606814,1.39019,-1.288429,-2.33755,0.123291,-0.305674,-0.138413,0.0,19.0,88.0,180.0,25.0,1.0
606815,1.390527,-1.291964,-2.344742,0.06564199999999999,-0.24426,-0.110504,0.0,19.0,88.0,180.0,25.0,1.0
606816,1.372874,-1.293632,-2.362601,0.051114,-0.250043,-0.093291,0.0,19.0,88.0,180.0,25.0,1.0
606817,1.336942,-1.295843,-2.3946400000000003,0.179069,-0.344381,-0.125654,0.0,19.0,88.0,180.0,25.0,1.0
606818,1.287365,-1.298295,-2.43848,0.184777,-0.345044,-0.113304,0.0,19.0,88.0,180.0,25.0,1.0
606819,1.230689,-1.299152,-2.490168,0.057832000000000015,-0.260206,-0.242281,0.0,19.0,88.0,180.0,25.0,1.0
606820,1.152586,-1.294943,-2.562019,0.005794,-0.233464,-0.132413,0.0,19.0,88.0,180.0,25.0,1.0
606821,1.053469,-1.285281,-2.646761,0.009891,-0.230787,-0.103734,0.0,19.0,88.0,180.0,25.0,1.0
606822,0.936375,-1.26789,-2.7446770000000003,0.109115,-0.14943499999999998,-0.040788,0.0,19.0,88.0,180.0,25.0,1.0
606823,0.815767,-1.237752,-2.841024,-0.15833699999999998,0.32229800000000003,-0.13982,0.0,19.0,88.0,180.0,25.0,1.0
606824,0.700922,-1.195161,-2.918443,-0.156855,0.337075,-0.08348799999999999,0.0,19.0,88.0,180.0,25.0,1.0
606825,0.608598,-1.139493,-2.984346,-0.095561,0.764796,-0.020091,0.0,19.0,88.0,180.0,25.0,1.0
606826,0.5461189999999999,-1.078017,-3.033095,-0.150305,0.637579,0.264006,0.0,19.0,88.0,180.0,25.0,1.0
606827,0.509829,-1.02179,-3.068013,-0.128802,0.409179,0.204392,0.0,19.0,88.0,180.0,25.0,1.0
606828,0.482087,-0.977591,-3.102291,-0.105278,0.228937,0.152687,0.0,19.0,88.0,180.0,25.0,1.0
606829,0.463927,-0.947493,-3.1270290000000003,-0.067834,0.17669300000000002,-0.063275,0.0,19.0,88.0,180.0,25.0,1.0
606830,0.4608930000000001,-0.927707,-3.134818,-0.07334299999999999,0.1884,-0.048199,0.0,19.0,88.0,180.0,25.0,1.0
606831,0.468267,-0.917518,-3.128789,-0.025603,0.18709,0.047644,0.0,19.0,88.0,180.0,25.0,1.0
606832,0.491968,-0.919128,-3.10902,-0.05947300000000001,-0.073775,0.126212,0.0,19.0,88.0,180.0,25.0,1.0
606833,0.532205,-0.928885,-3.078143,-0.132275,-0.383427,0.204317,0.0,19.0,88.0,180.0,25.0,1.0
606834,0.582527,-0.945846,-3.044241,-0.160071,-0.404681,0.162897,0.0,19.0,88.0,180.0,25.0,1.0
606835,0.641204,-0.970824,-3.005144,-0.153253,-0.519794,0.148867,0.0,19.0,88.0,180.0,25.0,1.0
606836,0.711936,-1.003772,-2.952295,-0.139492,-0.5522279999999999,0.126076,0.0,19.0,88.0,180.0,25.0,1.0
606837,0.784874,-1.043019,-2.888533,-0.227107,-0.599067,0.043428,0.0,19.0,88.0,180.0,25.0,1.0
606838,0.8575940000000001,-1.089202,-2.8146310000000003,-0.385317,-0.55386,-0.011162,0.0,19.0,88.0,180.0,25.0,1.0
606839,0.933904,-1.143226,-2.729585,-0.285574,-0.038653,0.026551,0.0,19.0,88.0,180.0,25.0,1.0
606840,0.993097,-1.191684,-2.65384,-0.120567,0.272316,-0.067103,0.0,19.0,88.0,180.0,25.0,1.0
606841,1.004386,-1.220521,-2.617796,-0.078963,0.287513,-0.314427,0.0,19.0,88.0,180.0,25.0,1.0
606842,0.995004,-1.227267,-2.60646,0.232786,-0.097303,-0.25203200000000003,0.0,19.0,88.0,180.0,25.0,1.0
606843,1.05372,-1.219305,-2.574748,0.269135,-0.179552,-0.063763,0.0,19.0,88.0,180.0,25.0,1.0
606844,1.158734,-1.206585,-2.529689,-0.008859,0.228086,0.208763,0.0,19.0,88.0,180.0,25.0,1.0
606845,1.267464,-1.206083,-2.458475,-0.382449,0.322763,0.046360000000000005,0.0,19.0,88.0,180.0,25.0,1.0
606846,1.297407,-1.207655,-2.414061,0.420434,0.570875,0.096989,0.0,19.0,88.0,180.0,25.0,1.0
606847,1.287628,-1.203681,-2.405032,1.133002,0.7249439999999999,-0.026731,0.0,19.0,88.0,180.0,25.0,1.0
606848,1.334282,-1.18956,-2.369816,0.116777,0.200334,-0.034981,0.0,19.0,88.0,180.0,25.0,1.0
606849,1.333721,-1.189443,-2.35845,0.237996,1.363174,-0.026498,0.0,19.0,88.0,180.0,25.0,1.0
606850,1.329502,-1.2018950000000002,-2.353399,0.139389,0.497299,-0.039001,0.0,19.0,88.0,180.0,25.0,1.0
606851,1.303782,-1.210406,-2.371658,-0.092431,0.073625,0.133832,0.0,19.0,88.0,180.0,25.0,1.0
606852,1.280047,-1.223783,-2.38826,-0.007793,0.01493,0.178732,0.0,19.0,88.0,180.0,25.0,1.0
606853,1.28329,-1.240267,-2.381959,-0.07217799999999999,-0.143259,0.111071,0.0,19.0,88.0,180.0,25.0,1.0
606854,1.314732,-1.257058,-2.352487,-0.037964,-0.2733,0.144556,0.0,19.0,88.0,180.0,25.0,1.0
606855,1.369799,-1.27466,-2.3026020000000003,0.096494,-0.239369,0.07993,0.0,19.0,88.0,180.0,25.0,1.0
606856,1.444668,-1.289099,-2.235281,0.139154,-0.199248,-0.018452,0.0,19.0,88.0,180.0,25.0,1.0
606857,1.539041,-1.298273,-2.153564,0.101106,-0.241537,-0.074645,0.0,19.0,88.0,180.0,25.0,1.0
606858,1.634593,-1.3029879999999998,-2.072627,-0.03007,-0.322446,-0.124689,0.0,19.0,88.0,180.0,25.0,1.0
606859,1.701084,-1.305409,-2.02007,-0.025730000000000003,-0.318339,-0.100131,0.0,19.0,88.0,180.0,25.0,1.0
606860,1.717083,-1.306828,-2.01927,-0.054436,-0.355041,-0.184883,0.0,19.0,88.0,180.0,25.0,1.0
606861,1.6759849999999998,-1.307185,-2.078774,-0.025087,-0.271165,-0.456817,0.0,19.0,88.0,180.0,25.0,1.0
606862,1.596379,-1.306557,-2.167845,0.1845,-0.041295,-0.439512,0.0,19.0,88.0,180.0,25.0,1.0
606863,1.481488,-1.303181,-2.273629,0.225959,-0.03551,-0.270956,0.0,19.0,88.0,180.0,25.0,1.0
606864,1.300577,-1.2905799999999998,-2.427049,0.017151,-0.13548,-0.211239,0.0,19.0,88.0,180.0,25.0,1.0
606865,1.082628,-1.266563,-2.601081,0.00153,-0.299155,-0.011436,0.0,19.0,88.0,180.0,25.0,1.0
606866,0.87095,-1.228705,-2.759941,0.0032840000000000005,-0.135964,0.13864400000000002,0.0,19.0,88.0,180.0,25.0,1.0
606867,0.685231,-1.177337,-2.89462,-0.08503200000000001,0.192775,0.004485,0.0,19.0,88.0,180.0,25.0,1.0
606868,0.5559310000000001,-1.122163,-2.994761,-0.242202,0.773718,0.192514,0.0,19.0,88.0,180.0,25.0,1.0
606869,0.484894,-1.07081,-3.063179,-0.307873,0.6612140000000001,0.392272,0.0,19.0,88.0,180.0,25.0,1.0
606870,0.454418,-1.027027,-3.1072610000000003,-0.354838,0.6731050000000001,0.396105,0.0,19.0,88.0,180.0,25.0,1.0
606871,0.4521,-0.988432,-3.131035,0.000254,0.079295,0.21865,0.0,19.0,88.0,180.0,25.0,1.0
606872,0.462148,-0.958799,-3.140191,-0.015631,0.095957,0.238144,0.0,19.0,88.0,180.0,25.0,1.0
606873,0.483338,-0.943692,-3.136525,0.105709,0.121911,0.09899,0.0,19.0,88.0,180.0,25.0,1.0
606874,0.5115270000000001,-0.945594,-3.121775,0.065499,-0.150811,0.101792,0.0,19.0,88.0,180.0,25.0,1.0
606875,0.551149,-0.960955,-3.097552,0.052066,-0.159705,0.079374,0.0,19.0,88.0,180.0,25.0,1.0
606876,0.602831,-0.987458,-3.06128,0.088382,-0.425174,0.031284,0.0,19.0,88.0,180.0,25.0,1.0
606877,0.667149,-1.025407,-3.007788,-0.003212,-0.77381,-0.06533,0.0,19.0,88.0,180.0,25.0,1.0
606878,0.745581,-1.071404,-2.936684,-0.068852,-0.8695579999999999,-0.118376,0.0,19.0,88.0,180.0,25.0,1.0
606879,0.8368530000000001,-1.121764,-2.852425,-0.285191,-0.751728,-0.002868,0.0,19.0,88.0,180.0,25.0,1.0
606880,0.929656,-1.177501,-2.767482,-0.261093,0.35241100000000003,0.106581,0.0,19.0,88.0,180.0,25.0,1.0
606881,1.004418,-1.22283,-2.690907,-0.159003,0.646892,-0.004961,0.0,19.0,88.0,180.0,25.0,1.0
606882,1.035257,-1.246761,-2.644035,-0.234144,0.748498,-0.479108,0.0,19.0,88.0,180.0,25.0,1.0
606883,1.055458,-1.247749,-2.611027,0.163973,0.124191,-0.376949,0.0,19.0,88.0,180.0,25.0,1.0
606884,1.139991,-1.240513,-2.551028,0.26971300000000004,-0.363706,0.63081,0.0,19.0,88.0,180.0,25.0,1.0
606885,1.281352,-1.245815,-2.449223,-0.244272,0.06314600000000001,0.21900100000000006,0.0,19.0,88.0,180.0,25.0,1.0
606886,1.325595,-1.262336,-2.39062,-0.5047,0.624865,0.076093,0.0,19.0,88.0,180.0,25.0,1.0
606887,1.289391,-1.282528,-2.393938,0.927543,0.577151,0.194153,0.0,19.0,88.0,180.0,25.0,1.0
606888,1.3445129999999998,-1.283267,-2.355472,0.394758,0.201468,-0.24770100000000006,0.0,19.0,88.0,180.0,25.0,1.0
606889,1.349308,-1.279807,-2.350893,-0.21022,0.8153699999999999,-0.45597,0.0,19.0,88.0,180.0,25.0,1.0
606890,1.307944,-1.276773,-2.384853,0.374446,0.5188050000000001,-0.029648,0.0,19.0,88.0,180.0,25.0,1.0
606891,1.291383,-1.267909,-2.405616,0.272191,0.01868,-0.01338,0.0,19.0,88.0,180.0,25.0,1.0
606892,1.28784,-1.264568,-2.406985,-0.083071,-0.108949,0.052323,0.0,19.0,88.0,180.0,25.0,1.0
606893,1.278241,-1.26959,-2.404806,-0.12621500000000002,-0.168541,0.135746,0.0,19.0,88.0,180.0,25.0,1.0
606894,1.269934,-1.280041,-2.402417,-0.041925,-0.162892,0.159387,0.0,19.0,88.0,180.0,25.0,1.0
606895,1.248583,-1.289018,-2.419098,0.038767,-0.25519400000000003,0.021968,0.0,19.0,88.0,180.0,25.0,1.0
606896,1.214078,-1.290866,-2.458516,0.058564,-0.281952,-0.103425,0.0,19.0,88.0,180.0,25.0,1.0
606897,1.180233,-1.285456,-2.507995,0.12506,-0.17820899999999998,-0.18991,0.0,19.0,88.0,180.0,25.0,1.0
606898,1.126281,-1.274581,-2.578528,0.043854,-0.274014,-0.082271,0.0,19.0,88.0,180.0,25.0,1.0
606899,1.05264,-1.261849,-2.655373,-0.112851,-0.349535,-0.216825,0.0,19.0,88.0,180.0,25.0,1.0
606900,0.94405,-1.244103,-2.749813,-0.097336,-0.281353,-0.200591,0.0,19.0,88.0,180.0,25.0,1.0
606901,0.803365,-1.212389,-2.867678,-0.028610000000000007,-0.246271,-0.025927,0.0,19.0,88.0,180.0,25.0,1.0
606902,0.6656770000000001,-1.167599,-2.982864,-0.079919,-0.248165,0.202038,0.0,19.0,88.0,180.0,25.0,1.0
606903,0.540512,-1.114549,-3.083683,-0.23060300000000006,0.129799,0.13766099999999998,0.0,19.0,88.0,180.0,25.0,1.0
606904,0.453394,-1.059043,3.122923,-0.32447,0.511215,0.157865,0.0,19.0,88.0,180.0,25.0,1.0
606905,0.416625,-1.009127,3.073328,-0.327545,0.8583139999999999,0.29156,0.0,19.0,88.0,180.0,25.0,1.0
606906,0.417527,-0.967883,3.047706,-0.102526,0.619367,0.1238,0.0,19.0,88.0,180.0,25.0,1.0
606907,0.431592,-0.936633,3.036902,0.12626099999999998,0.019948,0.18757,0.0,19.0,88.0,180.0,25.0,1.0
606908,0.452103,-0.914168,3.0360240000000003,0.164793,-0.038576,0.211974,0.0,19.0,88.0,180.0,25.0,1.0
606909,0.476736,-0.907287,3.042884,0.070013,-0.042688,0.108827,0.0,19.0,88.0,180.0,25.0,1.0
606910,0.510182,-0.917057,3.058221,0.08424,-0.184333,0.007306,0.0,19.0,88.0,180.0,25.0,1.0
606911,0.554354,-0.942237,3.082477,0.107545,-0.322425,-0.036637,0.0,19.0,88.0,180.0,25.0,1.0
606912,0.609798,-0.979918,3.120744,0.026810000000000004,-0.373939,-0.030486000000000006,0.0,19.0,88.0,180.0,25.0,1.0
606913,0.678743,-1.024876,-3.106317,-0.083288,-0.44518,-0.04355,0.0,19.0,88.0,180.0,25.0,1.0
606914,0.768205,-1.074607,-3.029233,-0.140522,-0.550668,-0.087237,0.0,19.0,88.0,180.0,25.0,1.0
606915,0.87589,-1.1310440000000002,-2.935748,-0.29425100000000004,-0.321452,0.131691,0.0,19.0,88.0,180.0,25.0,1.0
606916,0.983832,-1.186398,-2.833878,0.095816,0.225884,0.195207,0.0,19.0,88.0,180.0,25.0,1.0
606917,1.064126,-1.223251,-2.73796,0.143927,0.199696,-0.016287,0.0,19.0,88.0,180.0,25.0,1.0
606918,1.12922,-1.244444,-2.6476490000000004,0.1292,0.13626300000000002,-0.223572,0.0,19.0,88.0,180.0,25.0,1.0
606919,1.209794,-1.251363,-2.547666,0.07572100000000001,-0.200314,-0.13993699999999998,0.0,19.0,88.0,180.0,25.0,1.0
606920,1.276917,-1.240719,-2.490653,-0.098015,-0.044635,0.082136,0.0,19.0,88.0,180.0,25.0,1.0
606921,1.332274,-1.236708,-2.454336,-0.315358,0.06469,0.5074810000000001,0.0,19.0,88.0,180.0,25.0,1.0
606922,1.363482,-1.246368,-2.4195290000000003,0.024532,0.716489,0.530486,0.0,19.0,88.0,180.0,25.0,1.0
606923,1.314276,-1.25559,-2.449018,0.900939,0.4189270000000001,0.484798,0.0,19.0,88.0,180.0,25.0,1.0
606924,1.335267,-1.249636,-2.442892,1.51861,0.209852,0.301614,0.0,19.0,88.0,180.0,25.0,1.0
606925,1.349384,-1.241726,-2.428728,-0.024822,0.813285,-0.237915,0.0,19.0,88.0,180.0,25.0,1.0
606926,1.290551,-1.231817,-2.466904,-0.024385,0.675161,-0.026145,0.0,19.0,88.0,180.0,25.0,1.0
606927,1.2249290000000002,-1.227208,-2.5087080000000004,-0.126901,0.447349,0.030645,0.0,19.0,88.0,180.0,25.0,1.0
606928,1.1902780000000002,-1.231448,-2.524849,-0.130504,0.062628,0.207461,0.0,19.0,88.0,180.0,25.0,1.0
606929,1.181068,-1.243989,-2.528242,-0.100674,-0.010823,0.16808,0.0,19.0,88.0,180.0,25.0,1.0
606930,1.188164,-1.260017,-2.522981,-0.05488,-0.07915599999999999,0.061852,0.0,19.0,88.0,180.0,25.0,1.0
606931,1.214204,-1.276496,-2.5019720000000003,0.395047,-0.073567,-0.09352,0.0,19.0,88.0,180.0,25.0,1.0
606932,1.2574299999999998,-1.290375,-2.466658,0.463647,-0.06561399999999999,-0.131223,0.0,19.0,88.0,180.0,25.0,1.0
606933,1.301169,-1.297057,-2.431586,0.207497,-0.257353,-0.16605799999999998,0.0,19.0,88.0,180.0,25.0,1.0
