index,attitude.roll,attitude.pitch,attitude.yaw,userAcceleration.x,userAcceleration.y,userAcceleration.z,act,id,weight,height,age,gender
68112,0.627059,-1.058523,0.278144,0.368047,0.8176220000000001,-0.077808,0.0,2.0,48.0,161.0,28.0,0.0
68113,0.628015,-1.043158,0.27592300000000003,0.325471,0.411316,-0.055757000000000015,0.0,2.0,48.0,161.0,28.0,0.0
68114,0.634446,-1.041952,0.289878,0.142109,-0.089251,-0.066839,0.0,2.0,48.0,161.0,28.0,0.0
68115,0.638048,-1.05255,0.30934,0.080563,-0.158545,-0.055333000000000014,0.0,2.0,48.0,161.0,28.0,0.0
68116,0.645913,-1.068337,0.329102,-0.073994,-0.144986,-0.057924,0.0,2.0,48.0,161.0,28.0,0.0
68117,0.661664,-1.08543,0.350655,-0.137632,-0.122602,0.025411000000000003,0.0,2.0,48.0,161.0,28.0,0.0
68118,0.680398,-1.102012,0.371072,-0.148669,-0.231901,0.115857,0.0,2.0,48.0,161.0,28.0,0.0
68119,0.6995180000000001,-1.120072,0.3897,-0.197263,-0.377473,0.201261,0.0,2.0,48.0,161.0,28.0,0.0
68120,0.7194189999999999,-1.144946,0.407107,-0.166966,-0.649457,0.255119,0.0,2.0,48.0,161.0,28.0,0.0
68121,0.74953,-1.17589,0.4292,-0.137075,-0.6742229999999999,0.167282,0.0,2.0,48.0,161.0,28.0,0.0
68122,0.78998,-1.206009,0.46157,-0.124641,-0.272426,0.051467,0.0,2.0,48.0,161.0,28.0,0.0
68123,0.8365940000000001,-1.2289,0.503069,-0.073903,-0.235639,-0.00459,0.0,2.0,48.0,161.0,28.0,0.0
68124,0.882201,-1.244232,0.5476489999999999,0.027381,-0.215171,-0.041976,0.0,2.0,48.0,161.0,28.0,0.0
68125,0.922659,-1.250875,0.5870310000000001,0.035697,-0.167949,0.003774,0.0,2.0,48.0,161.0,28.0,0.0
68126,0.965049,-1.250273,0.626257,-0.003751,-0.119908,0.017002,0.0,2.0,48.0,161.0,28.0,0.0
68127,1.008296,-1.247247,0.6672100000000001,-0.100896,0.314384,0.011287,0.0,2.0,48.0,161.0,28.0,0.0
68128,1.012752,-1.240185,0.677091,-0.101021,0.642428,0.064318,0.0,2.0,48.0,161.0,28.0,0.0
68129,0.973818,-1.230013,0.64241,-0.038145,0.952969,0.292631,0.0,2.0,48.0,161.0,28.0,0.0
68130,0.934195,-1.224559,0.593734,0.009161,0.0367,0.345274,0.0,2.0,48.0,161.0,28.0,0.0
68131,0.939416,-1.226309,0.584098,0.15263,-0.099986,-0.004584,0.0,2.0,48.0,161.0,28.0,0.0
68132,0.948989,-1.220674,0.586539,0.222218,0.383347,-0.050411,0.0,2.0,48.0,161.0,28.0,0.0
68133,0.92338,-1.209349,0.5647760000000001,0.5596869999999999,0.661904,0.063407,0.0,2.0,48.0,161.0,28.0,0.0
68134,0.9001290000000001,-1.209643,0.551772,0.403392,0.160961,-0.141568,0.0,2.0,48.0,161.0,28.0,0.0
68135,0.894041,-1.2102959999999998,0.551131,0.192565,0.156717,-0.121807,0.0,2.0,48.0,161.0,28.0,0.0
68136,0.906008,-1.207184,0.5638479999999999,0.198866,0.294615,0.031223,0.0,2.0,48.0,161.0,28.0,0.0
68137,0.94161,-1.202382,0.597521,0.147249,0.111443,0.08655,0.0,2.0,48.0,161.0,28.0,0.0
68138,0.986235,-1.202721,0.6414,0.042523000000000005,-0.035332,0.153803,0.0,2.0,48.0,161.0,28.0,0.0
68139,1.0228959999999998,-1.209475,0.6785100000000001,0.024461,-0.111731,0.224177,0.0,2.0,48.0,161.0,28.0,0.0
68140,1.0553,-1.218504,0.709866,-0.037293,-0.162248,0.245213,0.0,2.0,48.0,161.0,28.0,0.0
68141,1.081228,-1.22686,0.7339060000000001,-0.082048,-0.152555,0.205618,0.0,2.0,48.0,161.0,28.0,0.0
68142,1.096604,-1.233016,0.74726,-0.1722,-0.209377,0.085627,0.0,2.0,48.0,161.0,28.0,0.0
68143,1.091167,-1.236613,0.736505,-0.176034,-0.328712,0.003889,0.0,2.0,48.0,161.0,28.0,0.0
68144,1.065225,-1.237592,0.697599,-0.075513,-0.475639,0.074643,0.0,2.0,48.0,161.0,28.0,0.0
68145,1.0281790000000002,-1.236557,0.64369,-0.009695,-0.531254,0.060094000000000015,0.0,2.0,48.0,161.0,28.0,0.0
68146,0.990772,-1.23392,0.591797,0.117633,-0.542959,0.110069,0.0,2.0,48.0,161.0,28.0,0.0
68147,0.957665,-1.229309,0.548135,0.171478,-0.441998,0.08453,0.0,2.0,48.0,161.0,28.0,0.0
68148,0.92391,-1.222433,0.508942,0.172837,-0.41326,0.090758,0.0,2.0,48.0,161.0,28.0,0.0
68149,0.888553,-1.215773,0.473178,0.1777,-0.31602600000000003,0.186033,0.0,2.0,48.0,161.0,28.0,0.0
68150,0.8482879999999999,-1.208704,0.440766,0.034299,-0.02755,0.228223,0.0,2.0,48.0,161.0,28.0,0.0
68151,0.8081149999999999,-1.194374,0.415745,-0.06683099999999999,0.336524,0.226989,0.0,2.0,48.0,161.0,28.0,0.0
68152,0.784262,-1.170288,0.406045,-0.16080899999999998,0.564275,0.13656400000000002,0.0,2.0,48.0,161.0,28.0,0.0
68153,0.771135,-1.138279,0.399021,-0.126248,0.74266,-0.117647,0.0,2.0,48.0,161.0,28.0,0.0
68154,0.752544,-1.105193,0.376118,0.0375,0.755787,-0.160169,0.0,2.0,48.0,161.0,28.0,0.0
68155,0.737421,-1.081808,0.35334,0.236396,0.600758,-0.178567,0.0,2.0,48.0,161.0,28.0,0.0
68156,0.7238319999999999,-1.066299,0.337941,0.329853,0.6052649999999999,-0.144102,0.0,2.0,48.0,161.0,28.0,0.0
68157,0.714696,-1.052285,0.33320700000000003,0.354889,0.780414,-0.092564,0.0,2.0,48.0,161.0,28.0,0.0
68158,0.711388,-1.045658,0.343871,0.104606,0.545115,-0.083799,0.0,2.0,48.0,161.0,28.0,0.0
68159,0.709742,-1.051565,0.361908,0.031847,0.242334,-0.043534,0.0,2.0,48.0,161.0,28.0,0.0
68160,0.708561,-1.066136,0.380209,-0.129975,-0.018176,0.025876,0.0,2.0,48.0,161.0,28.0,0.0
68161,0.713246,-1.084873,0.400186,-0.17130399999999998,-0.263974,0.120055,0.0,2.0,48.0,161.0,28.0,0.0
68162,0.728992,-1.107271,0.4253810000000001,-0.169478,-0.501583,0.093338,0.0,2.0,48.0,161.0,28.0,0.0
68163,0.754876,-1.131673,0.455467,-0.169371,-0.550633,0.080389,0.0,2.0,48.0,161.0,28.0,0.0
68164,0.785812,-1.15601,0.48579,-0.169426,-0.6672779999999999,0.060395,0.0,2.0,48.0,161.0,28.0,0.0
68165,0.81638,-1.179999,0.513405,-0.149587,-0.605498,0.093227,0.0,2.0,48.0,161.0,28.0,0.0
68166,0.8433,-1.20241,0.540859,-0.120592,-0.5513640000000001,0.089046,0.0,2.0,48.0,161.0,28.0,0.0
68167,0.8680180000000001,-1.219715,0.5718880000000001,-0.059229,-0.410361,0.090747,0.0,2.0,48.0,161.0,28.0,0.0
68168,0.8926709999999999,-1.2318360000000002,0.6084149999999999,-0.034184,-0.386109,0.08987300000000001,0.0,2.0,48.0,161.0,28.0,0.0
68169,0.919842,-1.242236,0.649764,-0.077563,-0.285161,0.068735,0.0,2.0,48.0,161.0,28.0,0.0
68170,0.949914,-1.250552,0.693968,-0.226083,0.12741,0.104835,0.0,2.0,48.0,161.0,28.0,0.0
68171,0.981155,-1.253497,0.736784,-0.188995,0.129646,0.087991,0.0,2.0,48.0,161.0,28.0,0.0
68172,1.009445,-1.249059,0.7668159999999999,-0.175027,0.141767,0.00414,0.0,2.0,48.0,161.0,28.0,0.0
68173,0.994657,-1.236244,0.752019,-0.165775,0.706901,0.230785,0.0,2.0,48.0,161.0,28.0,0.0
68174,0.955575,-1.224927,0.708155,-0.135916,0.960907,0.48998,0.0,2.0,48.0,161.0,28.0,0.0
68175,0.940683,-1.224559,0.681659,0.125079,1.010882,0.114005,0.0,2.0,48.0,161.0,28.0,0.0
68176,0.913805,-1.214509,0.6406729999999999,0.4581939999999999,0.801876,0.109044,0.0,2.0,48.0,161.0,28.0,0.0
68177,0.902475,-1.200098,0.611218,0.504617,-0.210929,-0.138435,0.0,2.0,48.0,161.0,28.0,0.0
68178,0.887445,-1.192358,0.587923,0.289714,-0.035566,-0.101577,0.0,2.0,48.0,161.0,28.0,0.0
68179,0.8786229999999999,-1.190586,0.581704,0.190083,0.162173,0.018874,0.0,2.0,48.0,161.0,28.0,0.0
68180,0.891689,-1.195852,0.596951,0.094768,0.27986,0.093803,0.0,2.0,48.0,161.0,28.0,0.0
68181,0.914638,-1.206398,0.614011,0.14081300000000002,0.334873,0.16573800000000002,0.0,2.0,48.0,161.0,28.0,0.0
68182,0.95261,-1.217647,0.638936,0.207753,0.055211,0.13378800000000002,0.0,2.0,48.0,161.0,28.0,0.0
68183,1.003929,-1.227671,0.675245,0.13280799999999998,-0.079312,0.074394,0.0,2.0,48.0,161.0,28.0,0.0
68184,1.052007,-1.235416,0.710959,0.056914,-0.245265,0.054331,0.0,2.0,48.0,161.0,28.0,0.0
68185,1.084751,-1.246459,0.733192,-0.016735,-0.130754,0.027646,0.0,2.0,48.0,161.0,28.0,0.0
68186,1.103085,-1.25942,0.743839,-0.009252,-0.215554,0.047377,0.0,2.0,48.0,161.0,28.0,0.0
68187,1.110767,-1.270384,0.7440899999999999,-0.000402,-0.307723,0.094356,0.0,2.0,48.0,161.0,28.0,0.0
68188,1.114955,-1.277743,0.741271,0.009246,-0.442504,0.123868,0.0,2.0,48.0,161.0,28.0,0.0
68189,1.113548,-1.281987,0.733847,-0.035695,-0.568386,0.071886,0.0,2.0,48.0,161.0,28.0,0.0
68190,1.096184,-1.282484,0.712367,-0.099547,-0.628967,0.035895,0.0,2.0,48.0,161.0,28.0,0.0
68191,1.05873,-1.278928,0.673651,-0.097338,-0.5977680000000001,0.007240000000000002,0.0,2.0,48.0,161.0,28.0,0.0
68192,1.009024,-1.273635,0.6246550000000001,0.002171,-0.45106,0.014826,0.0,2.0,48.0,161.0,28.0,0.0
68193,0.954399,-1.266849,0.569829,0.17511,-0.24884,-0.050421,0.0,2.0,48.0,161.0,28.0,0.0
68194,0.902495,-1.258914,0.516378,0.330961,-0.13004100000000002,0.075145,0.0,2.0,48.0,161.0,28.0,0.0
68195,0.858469,-1.249906,0.475137,0.170897,-0.20640100000000006,0.314666,0.0,2.0,48.0,161.0,28.0,0.0
68196,0.8119970000000001,-1.236441,0.445219,0.054719,-0.07195700000000001,0.35096900000000003,0.0,2.0,48.0,161.0,28.0,0.0
68197,0.766292,-1.216122,0.4280020000000001,-0.145473,0.357223,0.335047,0.0,2.0,48.0,161.0,28.0,0.0
68198,0.734272,-1.189059,0.421641,-0.184013,0.5329189999999999,0.074873,0.0,2.0,48.0,161.0,28.0,0.0
68199,0.7066279999999999,-1.157174,0.41212,-0.031237,0.756876,-0.247614,0.0,2.0,48.0,161.0,28.0,0.0
68200,0.676972,-1.127004,0.384844,0.057311,0.601921,-0.164347,0.0,2.0,48.0,161.0,28.0,0.0
68201,0.657162,-1.104191,0.362522,0.121545,0.685955,-0.215769,0.0,2.0,48.0,161.0,28.0,0.0
68202,0.643968,-1.083751,0.351567,0.480355,0.7769550000000001,-0.087865,0.0,2.0,48.0,161.0,28.0,0.0
68203,0.634505,-1.072506,0.350177,0.234888,0.415544,0.029019,0.0,2.0,48.0,161.0,28.0,0.0
68204,0.630918,-1.077101,0.363128,0.099692,-0.173312,-0.08467999999999999,0.0,2.0,48.0,161.0,28.0,0.0
68205,0.627594,-1.092654,0.382881,-0.028105,-0.12948900000000002,-0.070242,0.0,2.0,48.0,161.0,28.0,0.0
68206,0.62785,-1.108428,0.404676,-0.199155,-0.082346,0.063587,0.0,2.0,48.0,161.0,28.0,0.0
68207,0.638121,-1.124915,0.429704,-0.238716,-0.283136,0.176311,0.0,2.0,48.0,161.0,28.0,0.0
68208,0.6591020000000001,-1.144917,0.458047,-0.22380500000000006,-0.391099,0.177171,0.0,2.0,48.0,161.0,28.0,0.0
68209,0.689654,-1.169612,0.490001,-0.16023900000000002,-0.539068,0.114676,0.0,2.0,48.0,161.0,28.0,0.0
68210,0.725621,-1.2004860000000002,0.5248619999999999,-0.11291199999999997,-0.776515,0.021586,0.0,2.0,48.0,161.0,28.0,0.0
68211,0.757357,-1.234364,0.556926,-0.120573,-0.687743,-0.006093,0.0,2.0,48.0,161.0,28.0,0.0
68212,0.783243,-1.262308,0.586414,-0.04198,-0.100789,0.002652,0.0,2.0,48.0,161.0,28.0,0.0
68213,0.812016,-1.277277,0.6200359999999999,0.063841,0.053648,0.026725,0.0,2.0,48.0,161.0,28.0,0.0
68214,0.8540139999999999,-1.2807389999999998,0.664907,0.015856,-0.095251,-0.021202,0.0,2.0,48.0,161.0,28.0,0.0
68215,0.8981110000000001,-1.280753,0.7142609999999999,-0.121419,0.006841,0.044771,0.0,2.0,48.0,161.0,28.0,0.0
68216,0.9134,-1.275374,0.7434810000000001,-0.082097,0.393449,0.175077,0.0,2.0,48.0,161.0,28.0,0.0
68217,0.891487,-1.263936,0.73543,-0.140369,0.744422,0.320065,0.0,2.0,48.0,161.0,28.0,0.0
68218,0.8780209999999999,-1.255577,0.719429,-0.11416,-0.091384,0.33835,0.0,2.0,48.0,161.0,28.0,0.0
68219,0.8633200000000001,-1.254076,0.700371,-0.122852,0.057291,0.06722,0.0,2.0,48.0,161.0,28.0,0.0
68220,0.77498,-1.238129,0.620686,0.403007,1.774002,0.420712,0.0,2.0,48.0,161.0,28.0,0.0
68221,0.731506,-1.234723,0.5756859999999999,0.6292909999999999,-0.22697,-0.296567,0.0,2.0,48.0,161.0,28.0,0.0
68222,0.711693,-1.224316,0.554616,0.161071,-0.039542,-0.058598,0.0,2.0,48.0,161.0,28.0,0.0
68223,0.724796,-1.213747,0.572004,0.175251,0.025348,-0.011893,0.0,2.0,48.0,161.0,28.0,0.0
68224,0.763439,-1.211124,0.616259,0.12286099999999997,0.189461,0.038794,0.0,2.0,48.0,161.0,28.0,0.0
68225,0.8036409999999999,-1.220275,0.657814,0.336147,0.243927,0.07545,0.0,2.0,48.0,161.0,28.0,0.0
68226,0.8440719999999999,-1.2367780000000002,0.6958270000000001,0.330706,0.137985,0.053591,0.0,2.0,48.0,161.0,28.0,0.0
68227,0.872758,-1.255016,0.721444,0.155153,-0.073693,0.100657,0.0,2.0,48.0,161.0,28.0,0.0
68228,0.8962979999999999,-1.276568,0.744668,0.07589299999999999,-0.132182,0.039348,0.0,2.0,48.0,161.0,28.0,0.0
68229,0.917485,-1.298974,0.7654989999999999,-0.049418,-0.19186,-0.058311,0.0,2.0,48.0,161.0,28.0,0.0
68230,0.92015,-1.318424,0.763753,-0.037711,-0.242432,-0.006142,0.0,2.0,48.0,161.0,28.0,0.0
68231,0.912913,-1.335442,0.747058,0.056078,-0.357518,0.050989,0.0,2.0,48.0,161.0,28.0,0.0
68232,0.91332,-1.35116,0.735912,0.096859,-0.479792,0.112539,0.0,2.0,48.0,161.0,28.0,0.0
68233,0.921184,-1.363842,0.731711,0.058279,-0.521844,0.16573800000000002,0.0,2.0,48.0,161.0,28.0,0.0
68234,0.922752,-1.370868,0.720901,0.022143,-0.537728,0.121854,0.0,2.0,48.0,161.0,28.0,0.0
68235,0.904374,-1.374311,0.690577,0.090946,-0.493744,0.079061,0.0,2.0,48.0,161.0,28.0,0.0
68236,0.861834,-1.373366,0.6393989999999999,0.286721,-0.35925100000000004,0.12604300000000002,0.0,2.0,48.0,161.0,28.0,0.0
68237,0.8138920000000001,-1.368696,0.588562,0.385065,-0.322009,0.057363,0.0,2.0,48.0,161.0,28.0,0.0
68238,0.7716770000000001,-1.3604379999999998,0.549817,0.355925,-0.365194,0.157144,0.0,2.0,48.0,161.0,28.0,0.0
68239,0.734055,-1.348307,0.5274220000000001,0.209112,-0.34849,0.178911,0.0,2.0,48.0,161.0,28.0,0.0
68240,0.697986,-1.328396,0.521424,-0.004765999999999999,0.280304,0.059453999999999986,0.0,2.0,48.0,161.0,28.0,0.0
68241,0.671968,-1.299768,0.530465,0.006331,0.52094,0.04058,0.0,2.0,48.0,161.0,28.0,0.0
68242,0.653357,-1.262235,0.54171,0.155709,1.058734,-0.084701,0.0,2.0,48.0,161.0,28.0,0.0
68243,0.647708,-1.2238870000000002,0.559948,0.352636,1.034151,-0.17739000000000002,0.0,2.0,48.0,161.0,28.0,0.0
68244,0.642861,-1.199966,0.5861069999999999,0.196163,0.933894,-0.15275,0.0,2.0,48.0,161.0,28.0,0.0
68245,0.623727,-1.185736,0.601202,0.001233,0.198697,0.023359,0.0,2.0,48.0,161.0,28.0,0.0
68246,0.592971,-1.1808530000000002,0.607051,0.183158,-0.224461,0.07146,0.0,2.0,48.0,161.0,28.0,0.0
68247,0.5716899999999999,-1.183132,0.62398,0.11113,-0.107573,0.053201,0.0,2.0,48.0,161.0,28.0,0.0
68248,0.565283,-1.192532,0.6561739999999999,0.037610000000000005,0.067733,-0.011955,0.0,2.0,48.0,161.0,28.0,0.0
68249,0.5608029999999999,-1.206994,0.689415,-0.010966,-0.071101,0.12221300000000003,0.0,2.0,48.0,161.0,28.0,0.0
68250,0.557569,-1.221203,0.720288,-0.007798,-0.17819000000000002,0.164747,0.0,2.0,48.0,161.0,28.0,0.0
68251,0.5605680000000001,-1.237905,0.7531939999999999,-0.07252,-0.410708,0.212502,0.0,2.0,48.0,161.0,28.0,0.0
68252,0.570005,-1.261693,0.789818,-0.191056,-0.602692,0.13233699999999998,0.0,2.0,48.0,161.0,28.0,0.0
68253,0.5805,-1.291014,0.824034,-0.160233,-0.645472,0.08225,0.0,2.0,48.0,161.0,28.0,0.0
68254,0.5948439999999999,-1.32025,0.853598,-0.167356,-0.610607,0.01158,0.0,2.0,48.0,161.0,28.0,0.0
68255,0.616685,-1.342313,0.8819940000000001,-0.120547,-0.290616,-0.035448,0.0,2.0,48.0,161.0,28.0,0.0
68256,0.64379,-1.356769,0.912571,-0.0333,-0.099269,-0.025109,0.0,2.0,48.0,161.0,28.0,0.0
68257,0.684137,-1.367701,0.958717,0.073996,0.258911,-0.123792,0.0,2.0,48.0,161.0,28.0,0.0
68258,0.728839,-1.373695,1.010123,-0.016076,0.41284,-0.277199,0.0,2.0,48.0,161.0,28.0,0.0
68259,0.764383,-1.372198,1.045359,-0.000778,0.166949,-0.400663,0.0,2.0,48.0,161.0,28.0,0.0
68260,0.790018,-1.363589,1.062732,0.053667999999999993,0.087614,-0.315327,0.0,2.0,48.0,161.0,28.0,0.0
68261,0.755513,-1.34594,1.026991,0.073219,0.239652,-0.035279000000000005,0.0,2.0,48.0,161.0,28.0,0.0
68262,0.6701600000000001,-1.321375,0.955498,0.288631,0.476517,0.244732,0.0,2.0,48.0,161.0,28.0,0.0
68263,0.579073,-1.29766,0.892489,0.479612,0.693275,0.375943,0.0,2.0,48.0,161.0,28.0,0.0
68264,0.505483,-1.284686,0.847884,0.463213,0.239275,0.296083,0.0,2.0,48.0,161.0,28.0,0.0
68265,0.479094,-1.2845719999999998,0.841619,0.351179,0.075428,0.106631,0.0,2.0,48.0,161.0,28.0,0.0
68266,0.491165,-1.28234,0.8668549999999999,0.170626,0.28330500000000003,0.0872,0.0,2.0,48.0,161.0,28.0,0.0
68267,0.522989,-1.276809,0.906088,0.068362,0.019909,0.238898,0.0,2.0,48.0,161.0,28.0,0.0
68268,0.563909,-1.28477,0.956866,0.044988,0.171807,0.257981,0.0,2.0,48.0,161.0,28.0,0.0
68269,0.6159789999999999,-1.303075,1.010787,0.119081,0.471995,0.24264,0.0,2.0,48.0,161.0,28.0,0.0
68270,0.698362,-1.322208,1.084683,0.238865,0.299889,0.16609000000000002,0.0,2.0,48.0,161.0,28.0,0.0
68271,0.794265,-1.33667,1.167021,0.197967,-0.05972300000000001,0.121039,0.0,2.0,48.0,161.0,28.0,0.0
68272,0.8751129999999999,-1.353169,1.239422,0.120208,-0.183398,0.162251,0.0,2.0,48.0,161.0,28.0,0.0
68273,0.945972,-1.376157,1.304929,0.044255,-0.315621,0.136809,0.0,2.0,48.0,161.0,28.0,0.0
68274,1.020246,-1.401359,1.373571,-0.008165,-0.375054,0.07624500000000001,0.0,2.0,48.0,161.0,28.0,0.0
68275,1.084848,-1.428099,1.432648,0.07664800000000001,-0.359358,0.120029,0.0,2.0,48.0,161.0,28.0,0.0
68276,1.169238,-1.455201,1.512992,0.148335,-0.383356,0.080713,0.0,2.0,48.0,161.0,28.0,0.0
68277,1.295277,-1.479241,1.637481,0.142602,-0.336479,0.006063000000000001,0.0,2.0,48.0,161.0,28.0,0.0
68278,1.4617,-1.499041,1.80236,0.029307,-0.219656,-0.084439,0.0,2.0,48.0,161.0,28.0,0.0
68279,1.6648900000000002,-1.515489,2.000743,0.089348,-0.07955599999999999,-0.009323,0.0,2.0,48.0,161.0,28.0,0.0
68280,1.895048,-1.531831,2.220774,0.32103000000000004,-0.067951,0.0042060000000000005,0.0,2.0,48.0,161.0,28.0,0.0
68281,2.347353,-1.541995,2.66549,0.480785,-0.068616,-0.141018,0.0,2.0,48.0,161.0,28.0,0.0
68282,2.848385,-1.541794,-3.117676,0.509648,0.102899,-0.138548,0.0,2.0,48.0,161.0,28.0,0.0
68283,-3.125064,-1.535207,-2.805963,0.543769,0.157494,-0.094918,0.0,2.0,48.0,161.0,28.0,0.0
68284,-3.012696,-1.5266110000000002,-2.687327,0.615438,0.361282,-0.000276,0.0,2.0,48.0,161.0,28.0,0.0
68285,-3.052028,-1.521357,-2.715269,0.689457,0.28296,0.19521,0.0,2.0,48.0,161.0,28.0,0.0
68286,3.128301,-1.521261,-2.798004,0.6197189999999999,0.29624,0.252808,0.0,2.0,48.0,161.0,28.0,0.0
68287,2.889142,-1.528163,-3.00536,0.22999,0.197274,0.16481500000000002,0.0,2.0,48.0,161.0,28.0,0.0
68288,2.4150270000000003,-1.54003,2.851285,0.07311000000000001,0.199219,0.298344,0.0,2.0,48.0,161.0,28.0,0.0
68289,1.413174,-1.544883,1.900018,0.123643,0.169998,0.362385,0.0,2.0,48.0,161.0,28.0,0.0
68290,0.785513,-1.527924,1.315638,0.177401,0.159687,0.319403,0.0,2.0,48.0,161.0,28.0,0.0
68291,0.597182,-1.505765,1.163987,0.205887,0.198021,0.191972,0.0,2.0,48.0,161.0,28.0,0.0
68292,0.5052949999999999,-1.482627,1.106353,0.229992,0.37069,0.156639,0.0,2.0,48.0,161.0,28.0,0.0
68293,0.435567,-1.460717,1.073697,0.301804,0.306651,0.182309,0.0,2.0,48.0,161.0,28.0,0.0
68294,0.363604,-1.44356,1.046952,0.298339,0.192303,0.238236,0.0,2.0,48.0,161.0,28.0,0.0
68295,0.30457199999999995,-1.4326,1.039981,0.197052,0.097455,0.255833,0.0,2.0,48.0,161.0,28.0,0.0
68296,0.27633800000000003,-1.425364,1.065092,0.146028,0.043485,0.250382,0.0,2.0,48.0,161.0,28.0,0.0
68297,0.282054,-1.419993,1.121233,0.173172,-0.099765,0.184623,0.0,2.0,48.0,161.0,28.0,0.0
68298,0.294931,-1.418339,1.185042,0.17188,-0.153013,0.153304,0.0,2.0,48.0,161.0,28.0,0.0
68299,0.291933,-1.419586,1.237263,0.237002,-0.250781,0.129243,0.0,2.0,48.0,161.0,28.0,0.0
68300,0.267811,-1.422551,1.274534,0.15391300000000002,-0.345828,0.222527,0.0,2.0,48.0,161.0,28.0,0.0
68301,0.232883,-1.427412,1.306256,0.135698,-0.395118,0.244362,0.0,2.0,48.0,161.0,28.0,0.0
68302,0.20465,-1.433214,1.344675,0.08855700000000001,-0.395854,0.28281,0.0,2.0,48.0,161.0,28.0,0.0
68303,0.179395,-1.440107,1.382467,0.069524,-0.362505,0.256865,0.0,2.0,48.0,161.0,28.0,0.0
68304,0.15743,-1.447841,1.415482,0.066072,-0.328739,0.212444,0.0,2.0,48.0,161.0,28.0,0.0
68305,0.147883,-1.457532,1.452413,0.009214,-0.235795,0.084143,0.0,2.0,48.0,161.0,28.0,0.0
68306,0.15776099999999998,-1.470376,1.499359,0.04999,-0.202649,-0.010812,0.0,2.0,48.0,161.0,28.0,0.0
68307,0.160808,-1.483126,1.531861,0.102213,-0.14912899999999998,-0.054629,0.0,2.0,48.0,161.0,28.0,0.0
68308,0.117456,-1.491474,1.51946,0.278118,0.094606,-0.155599,0.0,2.0,48.0,161.0,28.0,0.0
68309,0.056544,-1.490563,1.496107,0.383443,0.194684,-0.164617,0.0,2.0,48.0,161.0,28.0,0.0
68310,0.056004,-1.479483,1.532875,0.428354,0.181519,-0.22454,0.0,2.0,48.0,161.0,28.0,0.0
68311,0.131576,-1.46788,1.638361,0.432875,0.155209,-0.415607,0.0,2.0,48.0,161.0,28.0,0.0
68312,0.294962,-1.458067,1.831364,0.5031180000000001,-0.138871,-0.181302,0.0,2.0,48.0,161.0,28.0,0.0
68313,0.446615,-1.437662,2.020683,0.478046,-0.06804,0.127622,0.0,2.0,48.0,161.0,28.0,0.0
68314,0.5036689999999999,-1.414099,2.126777,0.306448,0.655105,0.475087,0.0,2.0,48.0,161.0,28.0,0.0
68315,0.551988,-1.395216,2.224286,0.088326,1.341943,0.606975,0.0,2.0,48.0,161.0,28.0,0.0
68316,0.6092890000000001,-1.398162,2.318448,-0.265427,0.329836,0.159058,0.0,2.0,48.0,161.0,28.0,0.0
68317,0.6278279999999999,-1.418045,2.366054,-0.246851,-0.617186,0.001851,0.0,2.0,48.0,161.0,28.0,0.0
68318,0.538676,-1.425536,2.301756,-0.093321,-0.632642,0.02545,0.0,2.0,48.0,161.0,28.0,0.0
68319,0.458203,-1.416766,2.246609,0.355742,-0.22047600000000006,0.314523,0.0,2.0,48.0,161.0,28.0,0.0
68320,0.466168,-1.409641,2.2794,0.569656,0.30234,0.34930100000000003,0.0,2.0,48.0,161.0,28.0,0.0
68321,0.570009,-1.415257,2.406083,0.479446,0.499926,0.272985,0.0,2.0,48.0,161.0,28.0,0.0
68322,0.725928,-1.4295950000000002,2.583344,0.010151,0.16905599999999998,-0.00345,0.0,2.0,48.0,161.0,28.0,0.0
68323,0.871917,-1.440999,2.748931,0.194475,0.076848,0.095634,0.0,2.0,48.0,161.0,28.0,0.0
68324,0.993692,-1.449109,2.888719,0.19477,0.027155,0.101647,0.0,2.0,48.0,161.0,28.0,0.0
68325,1.14075,-1.453551,3.054769,0.178533,-0.057618,0.096244,0.0,2.0,48.0,161.0,28.0,0.0
68326,1.308106,-1.454138,-3.04254,-0.015286,-0.314767,0.093909,0.0,2.0,48.0,161.0,28.0,0.0
68327,1.481358,-1.453668,-2.8528860000000003,-0.059529,-0.274536,0.085707,0.0,2.0,48.0,161.0,28.0,0.0
68328,1.6545849999999998,-1.453714,-2.666413,0.034637,-0.12624100000000002,0.002433,0.0,2.0,48.0,161.0,28.0,0.0
68329,1.811328,-1.453953,-2.496624,0.135981,-0.183993,-0.021188,0.0,2.0,48.0,161.0,28.0,0.0
68330,1.956888,-1.454159,-2.336271,0.139152,-0.294139,-0.045811,0.0,2.0,48.0,161.0,28.0,0.0
68331,2.100553,-1.452426,-2.176683,0.114672,-0.26937,-0.06179700000000001,0.0,2.0,48.0,161.0,28.0,0.0
68332,2.237309,-1.447703,-2.0267630000000003,0.094421,-0.19031,-0.08590199999999999,0.0,2.0,48.0,161.0,28.0,0.0
68333,2.356332,-1.44337,-1.899612,0.190568,-0.108363,-0.100473,0.0,2.0,48.0,161.0,28.0,0.0
68334,2.446998,-1.439522,-1.804389,0.354284,-0.101213,-0.123481,0.0,2.0,48.0,161.0,28.0,0.0
68335,2.48579,-1.43455,-1.7585400000000002,0.377855,-0.091242,-0.16580799999999998,0.0,2.0,48.0,161.0,28.0,0.0
68336,2.470788,-1.430561,-1.7595869999999998,0.303496,0.040441000000000005,-0.112886,0.0,2.0,48.0,161.0,28.0,0.0
68337,2.407348,-1.4299110000000002,-1.803566,0.246129,0.016133,-0.003952000000000001,0.0,2.0,48.0,161.0,28.0,0.0
68338,2.290525,-1.430819,-1.899183,0.229195,-0.06718500000000001,0.14877200000000002,0.0,2.0,48.0,161.0,28.0,0.0
68339,2.102326,-1.429602,-2.05662,0.229314,0.070559,0.102972,0.0,2.0,48.0,161.0,28.0,0.0
68340,1.861453,-1.4238110000000002,-2.255712,0.04515,0.21422800000000006,0.107587,0.0,2.0,48.0,161.0,28.0,0.0
68341,1.610561,-1.4105219999999998,-2.469079,-0.115512,0.339019,0.08822999999999999,0.0,2.0,48.0,161.0,28.0,0.0
68342,1.393791,-1.397254,-2.660313,-0.046848,0.5925199999999999,0.056753,0.0,2.0,48.0,161.0,28.0,0.0
68343,1.204008,-1.383102,-2.838338,0.151685,0.556488,0.051285,0.0,2.0,48.0,161.0,28.0,0.0
68344,1.054542,-1.3665889999999998,-2.975362,0.5059939999999999,0.408046,0.010129,0.0,2.0,48.0,161.0,28.0,0.0
68345,0.958739,-1.3466,-3.051931,0.371772,0.393435,-0.021777,0.0,2.0,48.0,161.0,28.0,0.0
68346,0.93151,-1.331308,-3.044328,0.20546,0.288657,-0.032069,0.0,2.0,48.0,161.0,28.0,0.0
68347,0.931682,-1.322676,-2.998994,-0.047779,0.205658,-0.034765,0.0,2.0,48.0,161.0,28.0,0.0
68348,0.931979,-1.317984,-2.951603,-0.102314,0.053287,0.013725,0.0,2.0,48.0,161.0,28.0,0.0
68349,0.93141,-1.315413,-2.907549,-0.08677,-0.114692,0.040165,0.0,2.0,48.0,161.0,28.0,0.0
68350,0.922824,-1.313467,-2.877878,-0.015314,-0.485323,0.140906,0.0,2.0,48.0,161.0,28.0,0.0
68351,0.914306,-1.312866,-2.85448,-0.044564,-0.560563,0.148813,0.0,2.0,48.0,161.0,28.0,0.0
68352,0.919142,-1.315736,-2.821066,-0.137286,-0.702923,0.133486,0.0,2.0,48.0,161.0,28.0,0.0
68353,0.939023,-1.321344,-2.776961,-0.223354,-0.700859,0.105402,0.0,2.0,48.0,161.0,28.0,0.0
68354,0.97764,-1.327164,-2.719416,-0.214007,-0.6727390000000001,0.107051,0.0,2.0,48.0,161.0,28.0,0.0
68355,1.029981,-1.333939,-2.65302,-0.195187,-0.642414,0.049908,0.0,2.0,48.0,161.0,28.0,0.0
68356,1.088449,-1.340833,-2.584622,-0.19924,-0.495174,0.002365,0.0,2.0,48.0,161.0,28.0,0.0
68357,1.148068,-1.347187,-2.518151,-0.150202,-0.434179,-0.019002,0.0,2.0,48.0,161.0,28.0,0.0
68358,1.2138639999999998,-1.350282,-2.446728,-0.100823,-0.39354,-0.044032,0.0,2.0,48.0,161.0,28.0,0.0
68359,1.275232,-1.34874,-2.379757,-0.041928,-0.181547,-0.156373,0.0,2.0,48.0,161.0,28.0,0.0
68360,1.32105,-1.34438,-2.328761,-0.012493,0.087825,-0.14534,0.0,2.0,48.0,161.0,28.0,0.0
68361,1.349329,-1.33767,-2.296733,0.019934,0.134961,-0.121742,0.0,2.0,48.0,161.0,28.0,0.0
68362,1.377029,-1.327867,-2.2681720000000003,-0.041943,0.14182,-0.039773,0.0,2.0,48.0,161.0,28.0,0.0
68363,1.423651,-1.3175290000000002,-2.221393,-0.08845700000000001,0.044978,-0.052025,0.0,2.0,48.0,161.0,28.0,0.0
68364,1.475806,-1.309072,-2.170231,-0.115709,0.108014,-0.011531,0.0,2.0,48.0,161.0,28.0,0.0
68365,1.463471,-1.306398,-2.176745,-0.071125,0.944601,0.066612,0.0,2.0,48.0,161.0,28.0,0.0
68366,1.39302,-1.305259,-2.237409,0.008701,0.8302299999999999,0.165578,0.0,2.0,48.0,161.0,28.0,0.0
68367,1.330294,-1.307547,-2.29801,-0.233922,0.115185,0.33885,0.0,2.0,48.0,161.0,28.0,0.0
68368,1.282532,-1.309543,-2.343224,0.173671,0.647687,0.112931,0.0,2.0,48.0,161.0,28.0,0.0
68369,1.23971,-1.30585,-2.389915,0.553398,0.689389,-0.09852,0.0,2.0,48.0,161.0,28.0,0.0
68370,1.237159,-1.304287,-2.401262,0.544471,0.239192,-0.348494,0.0,2.0,48.0,161.0,28.0,0.0
68371,1.231607,-1.3013,-2.411268,0.136581,-0.087806,-0.177759,0.0,2.0,48.0,161.0,28.0,0.0
68372,1.2452,-1.298432,-2.401362,0.051194,-0.033206,-0.151747,0.0,2.0,48.0,161.0,28.0,0.0
68373,1.270892,-1.2979889999999998,-2.378043,0.176025,0.054331,-0.064828,0.0,2.0,48.0,161.0,28.0,0.0
68374,1.310145,-1.302849,-2.335807,0.26110700000000003,0.191049,-0.05395,0.0,2.0,48.0,161.0,28.0,0.0
68375,1.356868,-1.310561,-2.282833,0.20682,-0.152944,-0.059480999999999985,0.0,2.0,48.0,161.0,28.0,0.0
68376,1.4123629999999998,-1.315509,-2.218607,0.217844,-0.130936,-0.073671,0.0,2.0,48.0,161.0,28.0,0.0
68377,1.463851,-1.317673,-2.154383,0.071738,-0.127849,-0.097843,0.0,2.0,48.0,161.0,28.0,0.0
68378,1.502787,-1.319887,-2.099734,-0.21976,-0.381758,-0.101323,0.0,2.0,48.0,161.0,28.0,0.0
68379,1.525143,-1.324751,-2.066651,-0.217532,-0.435093,-0.08738,0.0,2.0,48.0,161.0,28.0,0.0
68380,1.521109,-1.331647,-2.07146,-0.123107,-0.444196,-0.034332,0.0,2.0,48.0,161.0,28.0,0.0
68381,1.496161,-1.338516,-2.102834,-0.052312,-0.4968260000000001,-0.039049,0.0,2.0,48.0,161.0,28.0,0.0
68382,1.459999,-1.345622,-2.141171,0.043898,-0.433938,-0.059161,0.0,2.0,48.0,161.0,28.0,0.0
68383,1.413258,-1.351246,-2.186338,0.092612,-0.289029,-0.056272,0.0,2.0,48.0,161.0,28.0,0.0
68384,1.354757,-1.3542809999999998,-2.243624,0.09929,-0.204634,0.019743,0.0,2.0,48.0,161.0,28.0,0.0
68385,1.290626,-1.353947,-2.305353,0.087541,-0.230242,0.008725,0.0,2.0,48.0,161.0,28.0,0.0
68386,1.218987,-1.349495,-2.368657,0.063286,-0.297146,0.110334,0.0,2.0,48.0,161.0,28.0,0.0
68387,1.137822,-1.3404049999999998,-2.431814,-0.115756,-0.283636,0.206924,0.0,2.0,48.0,161.0,28.0,0.0
68388,1.05193,-1.325676,-2.490623,-0.183382,-0.16677899999999998,0.152472,0.0,2.0,48.0,161.0,28.0,0.0
68389,0.966944,-1.304118,-2.550426,-0.22342,0.100443,-0.015879,0.0,2.0,48.0,161.0,28.0,0.0
68390,0.8858790000000001,-1.272945,-2.620169,-0.093793,0.669901,-0.206611,0.0,2.0,48.0,161.0,28.0,0.0
68391,0.808722,-1.231931,-2.70404,0.036782,0.938292,-0.171434,0.0,2.0,48.0,161.0,28.0,0.0
68392,0.771134,-1.195994,-2.755334,0.35827600000000004,0.906487,-0.136429,0.0,2.0,48.0,161.0,28.0,0.0
68393,0.760337,-1.1751,-2.768607,0.177921,0.731157,-0.284699,0.0,2.0,48.0,161.0,28.0,0.0
68394,0.77361,-1.164021,-2.750858,0.107174,0.529993,-0.217904,0.0,2.0,48.0,161.0,28.0,0.0
68395,0.8113600000000001,-1.161054,-2.70594,0.061755,-0.074496,-0.16868,0.0,2.0,48.0,161.0,28.0,0.0
68396,0.858936,-1.166053,-2.651625,0.022911,-0.26596,-0.193008,0.0,2.0,48.0,161.0,28.0,0.0
68397,0.900849,-1.176822,-2.602394,-0.038544,-0.311986,-0.158191,0.0,2.0,48.0,161.0,28.0,0.0
68398,0.931587,-1.191438,-2.561126,-0.167782,-0.522378,0.034746,0.0,2.0,48.0,161.0,28.0,0.0
68399,0.962639,-1.209506,-2.515414,-0.212096,-0.6266189999999999,0.092876,0.0,2.0,48.0,161.0,28.0,0.0
68400,1.006224,-1.230183,-2.457582,-0.218957,-0.71292,0.076277,0.0,2.0,48.0,161.0,28.0,0.0
68401,1.066584,-1.252624,-2.388642,-0.251634,-0.6135510000000001,-0.000357,0.0,2.0,48.0,161.0,28.0,0.0
68402,1.14182,-1.274085,-2.310347,-0.255885,-0.538792,-0.063343,0.0,2.0,48.0,161.0,28.0,0.0
68403,1.217765,-1.289649,-2.232047,-0.257518,-0.344481,-0.143178,0.0,2.0,48.0,161.0,28.0,0.0
68404,1.279491,-1.295813,-2.168107,-0.108121,0.035816,-0.127554,0.0,2.0,48.0,161.0,28.0,0.0
68405,1.331859,-1.293767,-2.118731,-0.007084999999999998,0.084637,-0.12111,0.0,2.0,48.0,161.0,28.0,0.0
68406,1.384836,-1.286424,-2.075882,-0.016586,0.037995,-0.11313800000000003,0.0,2.0,48.0,161.0,28.0,0.0
68407,1.429747,-1.276132,-2.045065,-0.077338,0.223642,-0.120703,0.0,2.0,48.0,161.0,28.0,0.0
68408,1.429729,-1.265054,-2.051891,-0.051881,0.390538,-0.058525,0.0,2.0,48.0,161.0,28.0,0.0
68409,1.399344,-1.256104,-2.089012,-0.069247,0.701574,0.196485,0.0,2.0,48.0,161.0,28.0,0.0
68410,1.39347,-1.258033,-2.1002650000000003,-0.076236,0.318029,-0.018189,0.0,2.0,48.0,161.0,28.0,0.0
68411,1.348816,-1.261869,-2.136956,0.339932,1.358131,0.224193,0.0,2.0,48.0,161.0,28.0,0.0
68412,1.300073,-1.263448,-2.183074,0.705392,0.306505,0.000567,0.0,2.0,48.0,161.0,28.0,0.0
68413,1.301014,-1.262208,-2.182716,0.324494,-0.232365,-0.383959,0.0,2.0,48.0,161.0,28.0,0.0
68414,1.291038,-1.254772,-2.191793,-0.047101,-0.016030000000000003,-0.231049,0.0,2.0,48.0,161.0,28.0,0.0
68415,1.283703,-1.240232,-2.198265,-0.16514,0.036013,-0.177562,0.0,2.0,48.0,161.0,28.0,0.0
68416,1.2903870000000002,-1.227857,-2.194147,-0.047882,0.189394,-0.07115700000000001,0.0,2.0,48.0,161.0,28.0,0.0
68417,1.3131540000000002,-1.2255969999999998,-2.178834,0.089551,0.138765,0.014885,0.0,2.0,48.0,161.0,28.0,0.0
68418,1.348115,-1.233225,-2.151242,0.172072,-0.053959,0.041816000000000006,0.0,2.0,48.0,161.0,28.0,0.0
68419,1.392755,-1.242117,-2.109239,0.228547,-0.086744,0.036522000000000006,0.0,2.0,48.0,161.0,28.0,0.0
68420,1.442712,-1.248158,-2.056965,-0.051026,-0.139656,-0.05032,0.0,2.0,48.0,161.0,28.0,0.0
68421,1.482374,-1.252721,-2.010956,-0.153813,-0.152751,-0.082277,0.0,2.0,48.0,161.0,28.0,0.0
68422,1.497116,-1.259918,-1.987564,-0.319023,-0.208993,-0.039769,0.0,2.0,48.0,161.0,28.0,0.0
68423,1.493593,-1.269511,-1.989311,-0.330986,-0.318329,-0.069154,0.0,2.0,48.0,161.0,28.0,0.0
68424,1.476426,-1.280201,-2.0177110000000003,-0.198833,-0.4770100000000001,-0.026178,0.0,2.0,48.0,161.0,28.0,0.0
68425,1.444728,-1.290977,-2.069409,-0.074021,-0.6306149999999999,-0.043369,0.0,2.0,48.0,161.0,28.0,0.0
68426,1.401367,-1.300106,-2.131264,0.115632,-0.610681,-0.089037,0.0,2.0,48.0,161.0,28.0,0.0
68427,1.346216,-1.30506,-2.199608,0.26450300000000004,-0.409769,-0.116306,0.0,2.0,48.0,161.0,28.0,0.0
68428,1.285884,-1.3042,-2.267921,0.297026,-0.244077,-0.014698,0.0,2.0,48.0,161.0,28.0,0.0
68429,1.23511,-1.298918,-2.319464,0.06526900000000001,-0.096889,0.05829400000000001,0.0,2.0,48.0,161.0,28.0,0.0
68430,1.1866219999999998,-1.288592,-2.360301,-0.001549,0.020254,0.101287,0.0,2.0,48.0,161.0,28.0,0.0
68431,1.132457,-1.270067,-2.399075,-0.109654,0.395175,0.087271,0.0,2.0,48.0,161.0,28.0,0.0
68432,1.08824,-1.244259,-2.428636,-0.055771,0.552231,-0.07510499999999999,0.0,2.0,48.0,161.0,28.0,0.0
68433,1.043287,-1.218348,-2.466359,0.016307,0.609428,-0.211017,0.0,2.0,48.0,161.0,28.0,0.0
68434,0.99624,-1.198874,-2.514417,0.053055999999999985,0.595332,-0.314391,0.0,2.0,48.0,161.0,28.0,0.0
68435,0.958582,-1.1863290000000002,-2.553154,0.178745,0.639713,-0.183248,0.0,2.0,48.0,161.0,28.0,0.0
68436,0.933601,-1.1767610000000002,-2.572865,0.289124,0.63956,-0.161592,0.0,2.0,48.0,161.0,28.0,0.0
68437,0.92383,-1.170302,-2.571401,0.07345299999999999,0.396789,-0.12725799999999998,0.0,2.0,48.0,161.0,28.0,0.0
68438,0.932551,-1.172063,-2.5467150000000003,0.027812,0.071412,-0.14268,0.0,2.0,48.0,161.0,28.0,0.0
68439,0.952479,-1.182242,-2.5055560000000003,-0.08092200000000001,-0.208463,-0.119034,0.0,2.0,48.0,161.0,28.0,0.0
68440,0.97813,-1.196693,-2.457462,-0.27689600000000003,-0.401066,-0.006723999999999999,0.0,2.0,48.0,161.0,28.0,0.0
68441,1.014418,-1.212497,-2.403995,-0.290294,-0.450258,-0.009214,0.0,2.0,48.0,161.0,28.0,0.0
68442,1.065517,-1.227954,-2.34341,-0.26562,-0.521744,0.028732,0.0,2.0,48.0,161.0,28.0,0.0
68443,1.130974,-1.241972,-2.2764,-0.21342600000000006,-0.659008,0.011442,0.0,2.0,48.0,161.0,28.0,0.0
68444,1.202752,-1.256657,-2.208186,-0.220307,-0.629011,-0.033328,0.0,2.0,48.0,161.0,28.0,0.0
68445,1.27416,-1.271407,-2.138507,-0.215399,-0.431423,-0.042132,0.0,2.0,48.0,161.0,28.0,0.0
68446,1.340372,-1.283052,-2.069976,-0.136818,-0.32000100000000004,-0.054129,0.0,2.0,48.0,161.0,28.0,0.0
68447,1.402711,-1.289729,-2.00207,-0.120786,-0.155325,-0.090971,0.0,2.0,48.0,161.0,28.0,0.0
68448,1.457144,-1.290409,-1.941966,-0.129183,-0.060848,-0.12808699999999998,0.0,2.0,48.0,161.0,28.0,0.0
68449,1.499417,-1.284087,-1.898782,-0.164074,0.114185,-0.17722000000000002,0.0,2.0,48.0,161.0,28.0,0.0
68450,1.529851,-1.273684,-1.875879,-0.172819,0.253302,-0.198344,0.0,2.0,48.0,161.0,28.0,0.0
68451,1.52369,-1.262924,-1.892039,-0.137681,0.41732,-0.131666,0.0,2.0,48.0,161.0,28.0,0.0
68452,1.479191,-1.256856,-1.946625,-0.069608,0.945604,0.25974,0.0,2.0,48.0,161.0,28.0,0.0
68453,1.436387,-1.257482,-2.001277,0.044549,0.402214,0.285671,0.0,2.0,48.0,161.0,28.0,0.0
68454,1.427492,-1.262919,-2.021523,0.086582,0.170785,0.07468,0.0,2.0,48.0,161.0,28.0,0.0
68455,1.386244,-1.263101,-2.065207,0.385393,0.584426,-0.096875,0.0,2.0,48.0,161.0,28.0,0.0
68456,1.342716,-1.259997,-2.108692,0.363393,0.195921,-0.143698,0.0,2.0,48.0,161.0,28.0,0.0
68457,1.324223,-1.258733,-2.124166,0.285583,0.072437,-0.247039,0.0,2.0,48.0,161.0,28.0,0.0
68458,1.318934,-1.255236,-2.130459,-0.03517,0.024124,-0.137809,0.0,2.0,48.0,161.0,28.0,0.0
68459,1.328155,-1.250373,-2.126963,0.050893,0.023844,-0.111703,0.0,2.0,48.0,161.0,28.0,0.0
68460,1.351844,-1.247347,-2.110845,0.103468,-0.002344,-0.099056,0.0,2.0,48.0,161.0,28.0,0.0
68461,1.383969,-1.247796,-2.08377,0.143241,-0.06253,-0.045765,0.0,2.0,48.0,161.0,28.0,0.0
68462,1.41984,-1.249722,-2.047675,0.093481,-0.099745,-0.004971,0.0,2.0,48.0,161.0,28.0,0.0
68463,1.45999,-1.25208,-2.003303,0.021115,-0.093635,-0.0219,0.0,2.0,48.0,161.0,28.0,0.0
68464,1.48769,-1.2536889999999998,-1.971511,-0.143423,-0.10717,-0.027019,0.0,2.0,48.0,161.0,28.0,0.0
68465,1.497394,-1.257738,-1.962938,-0.26071500000000003,-0.320888,-0.069517,0.0,2.0,48.0,161.0,28.0,0.0
68466,1.489121,-1.263965,-1.983838,-0.243224,-0.45177,-0.07837100000000001,0.0,2.0,48.0,161.0,28.0,0.0
68467,1.47049,-1.271987,-2.023705,-0.155337,-0.628387,-0.01436,0.0,2.0,48.0,161.0,28.0,0.0
68468,1.443897,-1.278229,-2.069673,-0.040784,-0.547457,-0.057021,0.0,2.0,48.0,161.0,28.0,0.0
68469,1.406874,-1.28161,-2.11998,0.051362,-0.4098770000000001,-0.031879000000000005,0.0,2.0,48.0,161.0,28.0,0.0
68470,1.356111,-1.281582,-2.181217,0.187238,-0.195346,0.008526,0.0,2.0,48.0,161.0,28.0,0.0
68471,1.30182,-1.279929,-2.242094,0.23890300000000006,-0.170322,0.126532,0.0,2.0,48.0,161.0,28.0,0.0
68472,1.246726,-1.274853,-2.295157,0.026083,-0.27822800000000003,0.124358,0.0,2.0,48.0,161.0,28.0,0.0
68473,1.1833870000000002,-1.2646,-2.349101,-0.171069,-0.126003,0.081664,0.0,2.0,48.0,161.0,28.0,0.0
68474,1.111257,-1.246094,-2.406134,-0.177127,0.29633400000000004,-0.061111,0.0,2.0,48.0,161.0,28.0,0.0
68475,1.046591,-1.218515,-2.46053,0.0387,0.610988,-0.163225,0.0,2.0,48.0,161.0,28.0,0.0
68476,0.98965,-1.187508,-2.517109,0.24358,0.8756450000000001,-0.332221,0.0,2.0,48.0,161.0,28.0,0.0
68477,0.945297,-1.163017,-2.567619,0.075351,0.924419,-0.32924200000000003,0.0,2.0,48.0,161.0,28.0,0.0
68478,0.918295,-1.145532,-2.596329,0.045641,0.967961,-0.247355,0.0,2.0,48.0,161.0,28.0,0.0
68479,0.903408,-1.134162,-2.6068130000000003,0.046892,0.383127,-0.112421,0.0,2.0,48.0,161.0,28.0,0.0
68480,0.90343,-1.132917,-2.597598,0.075693,-0.230345,-0.159338,0.0,2.0,48.0,161.0,28.0,0.0
68481,0.910766,-1.145801,-2.570242,0.037399,-0.359298,-0.16869,0.0,2.0,48.0,161.0,28.0,0.0
68482,0.920161,-1.165365,-2.536697,-0.077471,-0.393374,-0.129839,0.0,2.0,48.0,161.0,28.0,0.0
68483,0.935271,-1.185719,-2.499718,-0.134485,-0.300472,0.00158,0.0,2.0,48.0,161.0,28.0,0.0
68484,0.964318,-1.204506,-2.45105,-0.226067,-0.241325,0.038454,0.0,2.0,48.0,161.0,28.0,0.0
68485,1.0059790000000002,-1.217614,-2.395536,-0.24755500000000005,-0.280684,0.093932,0.0,2.0,48.0,161.0,28.0,0.0
68486,1.053607,-1.23016,-2.340879,-0.23652,-0.343085,0.073765,0.0,2.0,48.0,161.0,28.0,0.0
68487,1.112766,-1.244996,-2.28025,-0.218035,-0.439171,0.037214,0.0,2.0,48.0,161.0,28.0,0.0
68488,1.183407,-1.259777,-2.210926,-0.243302,-0.6822159999999999,-0.06843099999999999,0.0,2.0,48.0,161.0,28.0,0.0
68489,1.254273,-1.271132,-2.138661,-0.260702,-0.555609,-0.10279,0.0,2.0,48.0,161.0,28.0,0.0
68490,1.315448,-1.277472,-2.074675,-0.229546,-0.425733,-0.119508,0.0,2.0,48.0,161.0,28.0,0.0
68491,1.365458,-1.277667,-2.02221,-0.08199999999999999,-0.025902,-0.142105,0.0,2.0,48.0,161.0,28.0,0.0
68492,1.406772,-1.271737,-1.981462,-0.061285,0.006148,-0.12209,0.0,2.0,48.0,161.0,28.0,0.0
68493,1.44119,-1.26497,-1.949803,-0.112601,0.093566,-0.128584,0.0,2.0,48.0,161.0,28.0,0.0
68494,1.428607,-1.257001,-1.958248,-0.193881,0.7224,0.069635,0.0,2.0,48.0,161.0,28.0,0.0
68495,1.3785379999999998,-1.248893,-2.008335,-0.301012,0.8382299999999999,0.362085,0.0,2.0,48.0,161.0,28.0,0.0
68496,1.327543,-1.245241,-2.074763,-0.246918,0.6939,0.33376300000000003,0.0,2.0,48.0,161.0,28.0,0.0
68497,1.258919,-1.244888,-2.159125,0.643451,0.648602,-0.06383899999999999,0.0,2.0,48.0,161.0,28.0,0.0
68498,1.238,-1.241345,-2.200821,0.734108,0.004723,-0.52656,0.0,2.0,48.0,161.0,28.0,0.0
68499,1.204625,-1.236006,-2.242734,0.457351,-0.11971099999999997,-0.447989,0.0,2.0,48.0,161.0,28.0,0.0
68500,1.186049,-1.228523,-2.257723,0.055509,0.146507,-0.177958,0.0,2.0,48.0,161.0,28.0,0.0
68501,1.195298,-1.222889,-2.251018,0.057389,0.323248,-0.06032000000000001,0.0,2.0,48.0,161.0,28.0,0.0
68502,1.230253,-1.224278,-2.230238,0.087312,0.267584,-0.043246,0.0,2.0,48.0,161.0,28.0,0.0
68503,1.28301,-1.228228,-2.195811,0.261031,-0.01706,-0.051009,0.0,2.0,48.0,161.0,28.0,0.0
68504,1.342373,-1.228915,-2.149282,0.153836,-0.135729,-0.049833,0.0,2.0,48.0,161.0,28.0,0.0
68505,1.397483,-1.2282620000000002,-2.096715,0.078606,-0.185452,-0.05991000000000001,0.0,2.0,48.0,161.0,28.0,0.0
68506,1.439673,-1.2331450000000002,-2.051427,-0.208712,-0.223336,-0.032143,0.0,2.0,48.0,161.0,28.0,0.0
68507,1.4671459999999998,-1.241052,-2.022732,-0.22458000000000006,-0.216145,-0.066215,0.0,2.0,48.0,161.0,28.0,0.0
68508,1.469345,-1.247559,-2.026256,-0.156586,-0.159485,-0.138043,0.0,2.0,48.0,161.0,28.0,0.0
68509,1.454018,-1.253547,-2.051833,-0.06314600000000001,-0.459619,-0.013841,0.0,2.0,48.0,161.0,28.0,0.0
68510,1.436229,-1.260311,-2.080846,-0.03186,-0.497443,0.006976,0.0,2.0,48.0,161.0,28.0,0.0
68511,1.412958,-1.266168,-2.113104,-0.008405,-0.4916930000000001,-0.017278,0.0,2.0,48.0,161.0,28.0,0.0
68512,1.379165,-1.268968,-2.151622,-0.019614,-0.4490270000000001,-0.079096,0.0,2.0,48.0,161.0,28.0,0.0
68513,1.334049,-1.269145,-2.201184,0.08291799999999999,-0.348356,-0.097541,0.0,2.0,48.0,161.0,28.0,0.0
68514,1.2834709999999998,-1.267155,-2.257655,0.133877,-0.305145,-0.034594,0.0,2.0,48.0,161.0,28.0,0.0
68515,1.23398,-1.262617,-2.309931,0.10391,-0.287131,0.059332,0.0,2.0,48.0,161.0,28.0,0.0
68516,1.181879,-1.252692,-2.356113,0.046887,-0.018525,0.118075,0.0,2.0,48.0,161.0,28.0,0.0
68517,1.129041,-1.234332,-2.395069,-0.023304,0.529415,0.092882,0.0,2.0,48.0,161.0,28.0,0.0
68518,1.090395,-1.209166,-2.421717,-0.11349,0.686581,-0.054121,0.0,2.0,48.0,161.0,28.0,0.0
68519,1.049208,-1.185926,-2.457193,-0.070719,0.482897,-0.204326,0.0,2.0,48.0,161.0,28.0,0.0
68520,1.001518,-1.171864,-2.506126,0.024791,0.3909780000000001,-0.264139,0.0,2.0,48.0,161.0,28.0,0.0
68521,0.961649,-1.1612559999999998,-2.548007,0.09728,0.787042,-0.336428,0.0,2.0,48.0,161.0,28.0,0.0
68522,0.943081,-1.14841,-2.568859,0.226608,0.6442829999999999,-0.27997,0.0,2.0,48.0,161.0,28.0,0.0
68523,0.93005,-1.13671,-2.577484,0.095081,0.440753,-0.201066,0.0,2.0,48.0,161.0,28.0,0.0
68524,0.91826,-1.134107,-2.574946,0.056765,0.274675,-0.230299,0.0,2.0,48.0,161.0,28.0,0.0
68525,0.912665,-1.141751,-2.560926,-0.042932,0.165023,-0.121994,0.0,2.0,48.0,161.0,28.0,0.0
68526,0.918533,-1.1533209999999998,-2.538326,-0.138452,0.005944,-0.023003,0.0,2.0,48.0,161.0,28.0,0.0
68527,0.935523,-1.167136,-2.509111,-0.19042,-0.218137,0.060116,0.0,2.0,48.0,161.0,28.0,0.0
68528,0.961291,-1.184922,-2.4732830000000003,-0.25695500000000004,-0.402574,0.092879,0.0,2.0,48.0,161.0,28.0,0.0
68529,0.996876,-1.205432,-2.428798,-0.254245,-0.465915,0.085793,0.0,2.0,48.0,161.0,28.0,0.0
68530,1.04701,-1.226796,-2.373271,-0.26526900000000003,-0.54676,0.058296,0.0,2.0,48.0,161.0,28.0,0.0
68531,1.113875,-1.247841,-2.30557,-0.197051,-0.684172,-0.043624,0.0,2.0,48.0,161.0,28.0,0.0
68532,1.193253,-1.267124,-2.228275,-0.172458,-0.6712100000000001,-0.102906,0.0,2.0,48.0,161.0,28.0,0.0
68533,1.274735,-1.28219,-2.14875,-0.152289,-0.555657,-0.186328,0.0,2.0,48.0,161.0,28.0,0.0
68534,1.344822,-1.289851,-2.078913,-0.102174,-0.416116,-0.218932,0.0,2.0,48.0,161.0,28.0,0.0
68535,1.394155,-1.288581,-2.027398,-0.047942,-0.256187,-0.189317,0.0,2.0,48.0,161.0,28.0,0.0
68536,1.433433,-1.281589,-1.986842,-0.06234,-0.100347,-0.132733,0.0,2.0,48.0,161.0,28.0,0.0
68537,1.469388,-1.273409,-1.950175,-0.122867,0.030879000000000007,-0.139252,0.0,2.0,48.0,161.0,28.0,0.0
68538,1.4928290000000002,-1.265608,-1.925826,-0.192387,0.166144,-0.159413,0.0,2.0,48.0,161.0,28.0,0.0
68539,1.462492,-1.257056,-1.951449,-0.132804,0.585801,-0.029966000000000007,0.0,2.0,48.0,161.0,28.0,0.0
68540,1.403111,-1.249405,-2.015938,0.017655,0.915598,0.377626,0.0,2.0,48.0,161.0,28.0,0.0
68541,1.374687,-1.248995,-2.056943,0.037102,0.265719,0.252971,0.0,2.0,48.0,161.0,28.0,0.0
68542,1.333484,-1.248593,-2.103669,0.233579,0.8872450000000001,0.019845,0.0,2.0,48.0,161.0,28.0,0.0
68543,1.303258,-1.242895,-2.1364810000000003,0.606845,0.616146,-0.011986,0.0,2.0,48.0,161.0,28.0,0.0
68544,1.28714,-1.235515,-2.152363,0.455333,0.185992,-0.16105999999999998,0.0,2.0,48.0,161.0,28.0,0.0
68545,1.273239,-1.228017,-2.169082,0.035668,0.169473,-0.207812,0.0,2.0,48.0,161.0,28.0,0.0
68546,1.281395,-1.222475,-2.1682330000000003,0.033066000000000005,0.190287,-0.025812,0.0,2.0,48.0,161.0,28.0,0.0
68547,1.309086,-1.221517,-2.150568,0.117547,0.158891,-0.009832,0.0,2.0,48.0,161.0,28.0,0.0
68548,1.347925,-1.224843,-2.119236,0.107948,-0.14769200000000002,0.051144,0.0,2.0,48.0,161.0,28.0,0.0
68549,1.392241,-1.230039,-2.074446,0.06573,-0.198224,0.045881,0.0,2.0,48.0,161.0,28.0,0.0
68550,1.434513,-1.236403,-2.024239,0.034308,-0.172759,0.044893,0.0,2.0,48.0,161.0,28.0,0.0
68551,1.468962,-1.242694,-1.981835,-0.151196,-0.171952,-0.019458,0.0,2.0,48.0,161.0,28.0,0.0
68552,1.4846629999999998,-1.248737,-1.962185,-0.191238,-0.17469,-0.034142,0.0,2.0,48.0,161.0,28.0,0.0
68553,1.48199,-1.254982,-1.966438,-0.225144,-0.246747,-0.05711,0.0,2.0,48.0,161.0,28.0,0.0
68554,1.465223,-1.261938,-1.990357,-0.170418,-0.428038,-0.076032,0.0,2.0,48.0,161.0,28.0,0.0
68555,1.436827,-1.268764,-2.031334,-0.150101,-0.477134,-0.087818,0.0,2.0,48.0,161.0,28.0,0.0
68556,1.401196,-1.274366,-2.082836,-0.070774,-0.5163369999999999,-0.07345399999999999,0.0,2.0,48.0,161.0,28.0,0.0
68557,1.359922,-1.278139,-2.139395,0.102379,-0.499839,-0.05961,0.0,2.0,48.0,161.0,28.0,0.0
68558,1.317739,-1.279819,-2.193559,0.182265,-0.446444,-0.051604,0.0,2.0,48.0,161.0,28.0,0.0
68559,1.275939,-1.278229,-2.241753,0.191559,-0.38695,-0.047614,0.0,2.0,48.0,161.0,28.0,0.0
68560,1.2359790000000002,-1.273039,-2.282039,0.069878,-0.202579,0.028299,0.0,2.0,48.0,161.0,28.0,0.0
68561,1.19899,-1.265285,-2.312802,0.030739,-0.132374,0.069841,0.0,2.0,48.0,161.0,28.0,0.0
68562,1.156016,-1.25359,-2.339316,0.012913,-0.046302,0.07785800000000001,0.0,2.0,48.0,161.0,28.0,0.0
68563,1.106415,-1.234441,-2.36769,-0.069488,0.464606,0.018192,0.0,2.0,48.0,161.0,28.0,0.0
68564,1.062371,-1.208056,-2.397991,0.054508,0.670709,-0.227338,0.0,2.0,48.0,161.0,28.0,0.0
68565,1.015676,-1.182533,-2.440462,0.18894,0.733978,-0.389906,0.0,2.0,48.0,161.0,28.0,0.0
68566,0.971509,-1.165209,-2.481911,0.097925,0.83647,-0.365616,0.0,2.0,48.0,161.0,28.0,0.0
68567,0.948011,-1.152622,-2.500339,0.175372,0.825472,-0.182762,0.0,2.0,48.0,161.0,28.0,0.0
68568,0.943718,-1.141985,-2.495461,0.039755,0.4714140000000001,-0.139693,0.0,2.0,48.0,161.0,28.0,0.0
68569,0.947107,-1.140265,-2.47858,0.013109,0.13305,-0.141859,0.0,2.0,48.0,161.0,28.0,0.0
68570,0.951341,-1.150136,-2.452745,-0.087838,-0.275552,-0.094912,0.0,2.0,48.0,161.0,28.0,0.0
68571,0.954995,-1.166944,-2.424075,-0.130911,-0.290541,-0.071759,0.0,2.0,48.0,161.0,28.0,0.0
68572,0.965772,-1.186185,-2.391112,-0.180937,-0.286609,-0.01322,0.0,2.0,48.0,161.0,28.0,0.0
68573,0.992237,-1.205987,-2.347046,-0.221888,-0.24303,0.004396,0.0,2.0,48.0,161.0,28.0,0.0
68574,1.035065,-1.224184,-2.291894,-0.227307,-0.221993,-0.009177,0.0,2.0,48.0,161.0,28.0,0.0
68575,1.089222,-1.241772,-2.232362,-0.195191,-0.336663,-0.024644,0.0,2.0,48.0,161.0,28.0,0.0
68576,1.153531,-1.261409,-2.168355,-0.15293099999999998,-0.408071,-0.057917,0.0,2.0,48.0,161.0,28.0,0.0
68577,1.227507,-1.280606,-2.096649,-0.096654,-0.495634,-0.094781,0.0,2.0,48.0,161.0,28.0,0.0
68578,1.301771,-1.29362,-2.022867,-0.063362,-0.399912,-0.126109,0.0,2.0,48.0,161.0,28.0,0.0
68579,1.362333,-1.299921,-1.958253,-0.064703,-0.352087,-0.18068,0.0,2.0,48.0,161.0,28.0,0.0
68580,1.405448,-1.30089,-1.906819,-0.135933,-0.301839,-0.133665,0.0,2.0,48.0,161.0,28.0,0.0
68581,1.44091,-1.297532,-1.862869,-0.193997,-0.279973,-0.12827,0.0,2.0,48.0,161.0,28.0,0.0
68582,1.47806,-1.292323,-1.817324,-0.187025,-0.006047,-0.064816,0.0,2.0,48.0,161.0,28.0,0.0
68583,1.489896,-1.289793,-1.7939009999999995,-0.163652,0.093742,-0.06896000000000001,0.0,2.0,48.0,161.0,28.0,0.0
68584,1.442632,-1.290045,-1.827523,-0.18768,1.03662,0.123776,0.0,2.0,48.0,161.0,28.0,0.0
68585,1.384798,-1.297947,-1.886663,-0.332351,0.441732,0.34338,0.0,2.0,48.0,161.0,28.0,0.0
68586,1.305709,-1.310121,-1.967479,-0.047499,0.920319,0.385209,0.0,2.0,48.0,161.0,28.0,0.0
68587,1.249642,-1.3172,-2.039862,0.7120270000000001,0.928819,0.173277,0.0,2.0,48.0,161.0,28.0,0.0
68588,1.23873,-1.306706,-2.065157,0.5666100000000001,-0.132368,-0.437125,0.0,2.0,48.0,161.0,28.0,0.0
68589,1.225718,-1.289402,-2.078904,0.152352,-0.132727,-0.205583,0.0,2.0,48.0,161.0,28.0,0.0
68590,1.257891,-1.277625,-2.03678,0.045763,0.093434,-0.212071,0.0,2.0,48.0,161.0,28.0,0.0
68591,1.310343,-1.274464,-1.981237,0.043513,0.132499,0.008531,0.0,2.0,48.0,161.0,28.0,0.0
68592,1.386916,-1.282571,-1.910916,0.166321,0.21350700000000006,0.02115,0.0,2.0,48.0,161.0,28.0,0.0
68593,1.481457,-1.2914290000000002,-1.827129,0.270789,-0.071643,-0.058376,0.0,2.0,48.0,161.0,28.0,0.0
68594,1.570503,-1.299227,-1.7429130000000002,0.269228,-0.079989,-0.08051799999999999,0.0,2.0,48.0,161.0,28.0,0.0
68595,1.656629,-1.307391,-1.6523,0.047867,-0.227685,-0.075649,0.0,2.0,48.0,161.0,28.0,0.0
68596,1.740433,-1.318203,-1.5607540000000002,-0.061455,-0.222372,-0.204772,0.0,2.0,48.0,161.0,28.0,0.0
68597,1.807699,-1.33038,-1.488832,-0.048659,-0.168718,-0.228334,0.0,2.0,48.0,161.0,28.0,0.0
68598,1.854349,-1.341174,-1.442876,-0.020813,-0.157407,-0.199721,0.0,2.0,48.0,161.0,28.0,0.0
68599,1.899957,-1.348925,-1.402998,0.069469,-0.463387,-0.098028,0.0,2.0,48.0,161.0,28.0,0.0
68600,1.94043,-1.353701,-1.369904,0.118461,-0.5778300000000001,-0.103261,0.0,2.0,48.0,161.0,28.0,0.0
68601,1.952473,-1.356455,-1.36329,0.133703,-0.562688,-0.144315,0.0,2.0,48.0,161.0,28.0,0.0
68602,1.922979,-1.361513,-1.392332,0.183108,-0.36026,-0.193211,0.0,2.0,48.0,161.0,28.0,0.0
68603,1.847226,-1.370263,-1.4600799999999998,0.267174,-0.223765,-0.108848,0.0,2.0,48.0,161.0,28.0,0.0
68604,1.753498,-1.378981,-1.540102,0.257038,-0.247544,-0.097653,0.0,2.0,48.0,161.0,28.0,0.0
68605,1.6459130000000002,-1.383387,-1.629206,0.092322,-0.413292,0.036099,0.0,2.0,48.0,161.0,28.0,0.0
68606,1.5271629999999998,-1.380287,-1.722939,-0.046965,-0.439565,0.133793,0.0,2.0,48.0,161.0,28.0,0.0
68607,1.385835,-1.366319,-1.827869,-0.13015,-0.322261,0.13338,0.0,2.0,48.0,161.0,28.0,0.0
68608,1.23907,-1.339531,-1.9353080000000005,-0.262645,0.098904,-0.0161,0.0,2.0,48.0,161.0,28.0,0.0
68609,1.130993,-1.304454,-2.0151380000000003,-0.168978,0.467633,-0.116702,0.0,2.0,48.0,161.0,28.0,0.0
68610,1.049849,-1.265394,-2.08535,-0.090694,0.667413,-0.104508,0.0,2.0,48.0,161.0,28.0,0.0
68611,0.993524,-1.231024,-2.13163,0.214194,0.2093,-0.107751,0.0,2.0,48.0,161.0,28.0,0.0
68612,0.93893,-1.207582,-2.163381,0.198153,0.086496,-0.211239,0.0,2.0,48.0,161.0,28.0,0.0
68613,0.900698,-1.189942,-2.172843,0.137321,0.115598,-0.220059,0.0,2.0,48.0,161.0,28.0,0.0
68614,0.885022,-1.17298,-2.16063,-0.037795,0.159832,-0.219957,0.0,2.0,48.0,161.0,28.0,0.0
68615,0.888375,-1.158466,-2.132439,-0.059909,-0.012106,-0.19128,0.0,2.0,48.0,161.0,28.0,0.0
68616,0.8968360000000001,-1.151856,-2.101881,-0.105717,-0.055687,-0.178306,0.0,2.0,48.0,161.0,28.0,0.0
68617,0.90472,-1.1555879999999998,-2.074777,0.008653000000000001,0.003364,-0.145071,0.0,2.0,48.0,161.0,28.0,0.0
68618,0.922408,-1.169149,-2.038335,0.052223,-0.079445,-0.150622,0.0,2.0,48.0,161.0,28.0,0.0
68619,0.961925,-1.189742,-1.985603,0.041894,-0.109349,-0.197334,0.0,2.0,48.0,161.0,28.0,0.0
68620,1.019992,-1.212496,-1.92103,0.027269,-0.056718,-0.36885,0.0,2.0,48.0,161.0,28.0,0.0
68621,1.073999,-1.236546,-1.862062,-0.032215,-0.002045,-0.465778,0.0,2.0,48.0,161.0,28.0,0.0
68622,1.111758,-1.260616,-1.81742,-0.066134,-0.05587,-0.36818,0.0,2.0,48.0,161.0,28.0,0.0
68623,1.142484,-1.281216,-1.7761900000000002,0.028677,0.17718,-0.157697,0.0,2.0,48.0,161.0,28.0,0.0
68624,1.183934,-1.292339,-1.7230720000000002,-0.06805399999999999,0.23728,-0.319319,0.0,2.0,48.0,161.0,28.0,0.0
68625,1.221503,-1.294855,-1.671022,-0.139746,0.041173,-0.286248,0.0,2.0,48.0,161.0,28.0,0.0
68626,1.229267,-1.290139,-1.651668,-0.039739,-0.235608,0.040459,0.0,2.0,48.0,161.0,28.0,0.0
68627,1.137305,-1.274425,-1.7230299999999998,-0.06213,0.056674,0.084735,0.0,2.0,48.0,161.0,28.0,0.0
68628,0.913635,-1.238875,-1.907256,0.18832,2.1870130000000003,0.380159,0.0,2.0,48.0,161.0,28.0,0.0
68629,0.8172520000000001,-1.2359,-1.992078,0.384509,1.261809,1.077647,0.0,2.0,48.0,161.0,28.0,0.0
68630,0.831148,-1.24233,-1.99796,0.093342,-0.72231,-0.422464,0.0,2.0,48.0,161.0,28.0,0.0
68631,0.8486040000000001,-1.214226,-1.998619,0.136248,-0.388394,0.036185,0.0,2.0,48.0,161.0,28.0,0.0
68632,0.879875,-1.193397,-1.956562,0.227978,0.119736,0.034414,0.0,2.0,48.0,161.0,28.0,0.0
68633,0.903397,-1.186489,-1.908582,0.014769,0.8241620000000001,0.525932,0.0,2.0,48.0,161.0,28.0,0.0
68634,0.942738,-1.211335,-1.859309,-0.219829,0.43278,0.322713,0.0,2.0,48.0,161.0,28.0,0.0
68635,1.004813,-1.247619,-1.8012259999999998,-0.225872,0.043895,0.036155,0.0,2.0,48.0,161.0,28.0,0.0
68636,1.086015,-1.271238,-1.73565,0.177576,0.011101,-0.055373,0.0,2.0,48.0,161.0,28.0,0.0
68637,1.179538,-1.282489,-1.655472,0.215518,-0.264467,-0.097188,0.0,2.0,48.0,161.0,28.0,0.0
68638,1.26784,-1.294722,-1.564181,0.121058,-0.614904,-0.03944,0.0,2.0,48.0,161.0,28.0,0.0
68639,1.3502120000000002,-1.31505,-1.4646370000000002,-0.014949,-0.331656,0.041826,0.0,2.0,48.0,161.0,28.0,0.0
68640,1.437919,-1.333308,-1.3569209999999998,-0.0071870000000000015,-0.289559,0.089654,0.0,2.0,48.0,161.0,28.0,0.0
68641,1.536565,-1.347983,-1.240549,-0.00299,-0.319304,0.08489400000000001,0.0,2.0,48.0,161.0,28.0,0.0
68642,1.638368,-1.359183,-1.124641,-0.030627,-0.305605,0.035746,0.0,2.0,48.0,161.0,28.0,0.0
68643,1.72715,-1.369463,-1.027888,-0.143621,-0.079074,-0.128045,0.0,2.0,48.0,161.0,28.0,0.0
68644,1.803899,-1.382667,-0.949174,0.002735,0.015645,-0.017256,0.0,2.0,48.0,161.0,28.0,0.0
68645,1.882002,-1.396747,-0.871641,0.24232,-0.069303,-0.065211,0.0,2.0,48.0,161.0,28.0,0.0
68646,1.96369,-1.404398,-0.785913,0.315074,-0.037411,-0.15978,0.0,2.0,48.0,161.0,28.0,0.0
68647,2.0283740000000003,-1.404637,-0.7136899999999999,0.338945,0.072504,-0.173887,0.0,2.0,48.0,161.0,28.0,0.0
68648,2.068257,-1.402865,-0.66468,0.420855,0.076323,-0.086005,0.0,2.0,48.0,161.0,28.0,0.0
68649,2.095284,-1.400334,-0.625827,0.479114,0.16080999999999998,-0.111199,0.0,2.0,48.0,161.0,28.0,0.0
68650,2.086096,-1.397069,-0.614855,0.267289,0.347877,0.131,0.0,2.0,48.0,161.0,28.0,0.0
68651,2.027641,-1.393904,-0.6470670000000001,0.212454,0.383067,0.180609,0.0,2.0,48.0,161.0,28.0,0.0
68652,1.906185,-1.393044,-0.7333569999999999,0.14151,0.421396,0.22811,0.0,2.0,48.0,161.0,28.0,0.0
68653,1.7334459999999998,-1.392188,-0.8664,-0.028369,0.178155,0.273694,0.0,2.0,48.0,161.0,28.0,0.0
68654,1.530461,-1.388569,-1.032194,-0.011576,0.281954,0.242292,0.0,2.0,48.0,161.0,28.0,0.0
68655,1.352938,-1.377576,-1.182828,-0.019696,0.331017,0.252361,0.0,2.0,48.0,161.0,28.0,0.0
68656,1.229279,-1.361507,-1.287166,0.040193,0.171129,0.094894,0.0,2.0,48.0,161.0,28.0,0.0
68657,1.13089,-1.345135,-1.363586,0.154451,0.126397,0.01035,0.0,2.0,48.0,161.0,28.0,0.0
68658,1.03607,-1.331198,-1.423712,0.179659,0.174441,0.029438,0.0,2.0,48.0,161.0,28.0,0.0
68659,0.951094,-1.319557,-1.460241,0.228983,0.226311,0.08798500000000001,0.0,2.0,48.0,161.0,28.0,0.0
68660,0.8774850000000001,-1.309985,-1.476758,0.16004300000000002,0.212576,0.158643,0.0,2.0,48.0,161.0,28.0,0.0
68661,0.816217,-1.302486,-1.479172,0.08976100000000001,0.212721,0.196523,0.0,2.0,48.0,161.0,28.0,0.0
68662,0.7834720000000001,-1.295743,-1.456308,0.04908,0.137656,0.252746,0.0,2.0,48.0,161.0,28.0,0.0
68663,0.7672479999999999,-1.292583,-1.420473,-0.065514,-0.162079,0.204582,0.0,2.0,48.0,161.0,28.0,0.0
68664,0.753674,-1.289336,-1.385879,-0.08653999999999999,-0.215793,0.203049,0.0,2.0,48.0,161.0,28.0,0.0
68665,0.7378100000000001,-1.286651,-1.353845,-0.122971,-0.345674,0.255569,0.0,2.0,48.0,161.0,28.0,0.0
68666,0.716627,-1.287225,-1.322154,-0.079065,-0.508784,0.337135,0.0,2.0,48.0,161.0,28.0,0.0
68667,0.688842,-1.292989,-1.2922280000000002,-0.050341,-0.537251,0.363091,0.0,2.0,48.0,161.0,28.0,0.0
68668,0.662081,-1.303708,-1.262152,-0.034269,-0.509313,0.366174,0.0,2.0,48.0,161.0,28.0,0.0
68669,0.650355,-1.315597,-1.225108,-0.045844,-0.404594,0.263783,0.0,2.0,48.0,161.0,28.0,0.0
68670,0.665833,-1.3271,-1.170555,-0.0872,-0.233896,0.174898,0.0,2.0,48.0,161.0,28.0,0.0
68671,0.701775,-1.338381,-1.106575,-0.095099,-0.159102,0.08669099999999999,0.0,2.0,48.0,161.0,28.0,0.0
68672,0.730388,-1.348311,-1.057322,-0.045734,0.010793,0.018258,0.0,2.0,48.0,161.0,28.0,0.0
68673,0.724012,-1.355381,-1.0411780000000002,0.044194,0.243144,-0.040863,0.0,2.0,48.0,161.0,28.0,0.0
68674,0.6950390000000001,-1.357242,-1.044438,0.059685,0.334728,-0.044893,0.0,2.0,48.0,161.0,28.0,0.0
68675,0.6686489999999999,-1.350785,-1.048108,0.125257,0.319103,-0.141766,0.0,2.0,48.0,161.0,28.0,0.0
68676,0.6649689999999999,-1.339634,-1.035396,0.152018,0.18082,-0.378261,0.0,2.0,48.0,161.0,28.0,0.0
68677,0.683146,-1.324213,-1.001782,0.249597,-0.035044,-0.29499000000000003,0.0,2.0,48.0,161.0,28.0,0.0
68678,0.67686,-1.303398,-0.985527,0.438878,0.07408200000000001,0.0174,0.0,2.0,48.0,161.0,28.0,0.0
68679,0.664303,-1.28737,-0.966449,0.396873,0.293849,0.150091,0.0,2.0,48.0,161.0,28.0,0.0
68680,0.677713,-1.280564,-0.92306,0.107769,0.599409,0.32771100000000003,0.0,2.0,48.0,161.0,28.0,0.0
68681,0.697371,-1.280912,-0.873972,-0.06029,0.560552,0.303255,0.0,2.0,48.0,161.0,28.0,0.0
68682,0.6993149999999999,-1.2827309999999998,-0.840117,-0.154548,0.282171,0.282841,0.0,2.0,48.0,161.0,28.0,0.0
68683,0.663501,-1.288928,-0.846453,-0.15719,-0.307049,0.309467,0.0,2.0,48.0,161.0,28.0,0.0
68684,0.602229,-1.293105,-0.878591,0.068008,-0.360052,0.3728,0.0,2.0,48.0,161.0,28.0,0.0
68685,0.560297,-1.30066,-0.894501,0.232282,-0.05634,0.34641500000000003,0.0,2.0,48.0,161.0,28.0,0.0
68686,0.554417,-1.314815,-0.8787229999999999,0.326823,0.318443,0.238914,0.0,2.0,48.0,161.0,28.0,0.0
68687,0.593464,-1.331724,-0.818862,0.278297,0.395233,0.125763,0.0,2.0,48.0,161.0,28.0,0.0
68688,0.654903,-1.3463040000000002,-0.736842,0.150091,0.188926,0.045842,0.0,2.0,48.0,161.0,28.0,0.0
68689,0.720079,-1.356632,-0.652977,0.131307,-0.120572,0.13844800000000002,0.0,2.0,48.0,161.0,28.0,0.0
68690,0.7797930000000001,-1.367127,-0.5749489999999999,0.092193,-0.187522,0.154573,0.0,2.0,48.0,161.0,28.0,0.0
68691,0.854749,-1.379189,-0.478388,0.067736,-0.209711,0.146757,0.0,2.0,48.0,161.0,28.0,0.0
68692,0.948833,-1.392459,-0.360433,-0.023468,-0.258691,0.16877799999999998,0.0,2.0,48.0,161.0,28.0,0.0
68693,1.049137,-1.407447,-0.236563,-0.027442,-0.124231,0.103509,0.0,2.0,48.0,161.0,28.0,0.0
68694,1.143405,-1.422407,-0.119286,-0.01907,-0.094174,0.057339,0.0,2.0,48.0,161.0,28.0,0.0
68695,1.222175,-1.436233,-0.018085,0.050166,-0.20028,0.072435,0.0,2.0,48.0,161.0,28.0,0.0
68696,1.298575,-1.448216,0.07845099999999999,0.08770499999999999,-0.282413,0.101536,0.0,2.0,48.0,161.0,28.0,0.0
68697,1.390923,-1.457577,0.188065,0.098092,-0.29151,0.096244,0.0,2.0,48.0,161.0,28.0,0.0
68698,1.5185879999999998,-1.465365,0.331384,0.113603,-0.15725899999999998,0.022245,0.0,2.0,48.0,161.0,28.0,0.0
68699,1.674606,-1.472472,0.5028779999999999,0.181624,0.03402,-0.044929,0.0,2.0,48.0,161.0,28.0,0.0
68700,1.84112,-1.47865,0.6827270000000001,0.201086,0.06979400000000001,-0.047697,0.0,2.0,48.0,161.0,28.0,0.0
68701,1.994392,-1.4819,0.846751,0.24172800000000005,-0.036579,0.007329,0.0,2.0,48.0,161.0,28.0,0.0
68702,2.095393,-1.4839870000000002,0.956401,0.407684,-0.012638,0.05788,0.0,2.0,48.0,161.0,28.0,0.0
68703,2.1573,-1.482321,1.0318040000000002,0.463542,0.06804400000000001,0.014148,0.0,2.0,48.0,161.0,28.0,0.0
68704,2.165922,-1.476426,1.05788,0.312695,0.126825,0.01622,0.0,2.0,48.0,161.0,28.0,0.0
68705,2.122836,-1.469923,1.031689,0.351979,0.212649,-0.044785000000000005,0.0,2.0,48.0,161.0,28.0,0.0
68706,2.0161830000000003,-1.460846,0.943624,0.31716500000000003,0.180874,0.107539,0.0,2.0,48.0,161.0,28.0,0.0
68707,1.841176,-1.449515,0.790197,0.247004,0.14340799999999998,0.25869200000000003,0.0,2.0,48.0,161.0,28.0,0.0
68708,1.606127,-1.433258,0.58825,-0.027989,0.148146,0.289561,0.0,2.0,48.0,161.0,28.0,0.0
68709,1.353585,-1.40844,0.378231,-0.093331,0.221891,0.285076,0.0,2.0,48.0,161.0,28.0,0.0
68710,1.148006,-1.379226,0.20952,-0.025705,0.417433,0.396156,0.0,2.0,48.0,161.0,28.0,0.0
68711,1.0181,-1.350877,0.104231,0.021263,0.375495,0.28630300000000003,0.0,2.0,48.0,161.0,28.0,0.0
68712,0.938331,-1.322609,0.047833,0.129375,0.371522,0.249926,0.0,2.0,48.0,161.0,28.0,0.0
68713,0.873174,-1.297204,0.013072,0.15558,0.426415,0.220196,0.0,2.0,48.0,161.0,28.0,0.0
68714,0.8200299999999999,-1.274846,-0.00294,0.100711,0.4191760000000001,0.194029,0.0,2.0,48.0,161.0,28.0,0.0
68715,0.777771,-1.2552290000000002,-0.003696,-0.107144,0.260531,0.140917,0.0,2.0,48.0,161.0,28.0,0.0
68716,0.737574,-1.235569,-0.002721,-0.033629,0.164902,0.23362,0.0,2.0,48.0,161.0,28.0,0.0
68717,0.698628,-1.220767,-0.002458,-0.029072000000000008,0.122542,0.23974,0.0,2.0,48.0,161.0,28.0,0.0
68718,0.65613,-1.2096,-0.004497999999999999,0.005239,0.220592,0.110928,0.0,2.0,48.0,161.0,28.0,0.0
68719,0.622138,-1.201117,0.008844,0.125619,-0.056024,0.222645,0.0,2.0,48.0,161.0,28.0,0.0
68720,0.596096,-1.194279,0.022614,0.113602,-0.420658,0.2712,0.0,2.0,48.0,161.0,28.0,0.0
68721,0.578104,-1.191654,0.038918,-0.005653,-0.6328550000000001,0.271919,0.0,2.0,48.0,161.0,28.0,0.0
68722,0.564121,-1.195141,0.060091,-0.103768,-0.6835479999999999,0.262594,0.0,2.0,48.0,161.0,28.0,0.0
68723,0.552814,-1.202841,0.08463999999999999,-0.204912,-0.69248,0.280964,0.0,2.0,48.0,161.0,28.0,0.0
68724,0.546713,-1.212371,0.111364,-0.237456,-0.715259,0.29877800000000004,0.0,2.0,48.0,161.0,28.0,0.0
68725,0.552416,-1.2232,0.143236,-0.240163,-0.692285,0.302556,0.0,2.0,48.0,161.0,28.0,0.0
68726,0.574278,-1.235963,0.184275,-0.217784,-0.597999,0.265349,0.0,2.0,48.0,161.0,28.0,0.0
68727,0.607462,-1.24912,0.232609,-0.17763199999999998,-0.5211859999999999,0.206339,0.0,2.0,48.0,161.0,28.0,0.0
68728,0.640201,-1.2591450000000002,0.27742,-0.161528,-0.348084,0.103007,0.0,2.0,48.0,161.0,28.0,0.0
68729,0.667772,-1.264214,0.313831,-0.052652,-0.022767,0.016663999999999998,0.0,2.0,48.0,161.0,28.0,0.0
68730,0.698333,-1.263236,0.346933,-0.020579,0.028141000000000003,0.0194,0.0,2.0,48.0,161.0,28.0,0.0
68731,0.740003,-1.258546,0.38309,0.075913,-0.047226,0.07685800000000001,0.0,2.0,48.0,161.0,28.0,0.0
68732,0.796107,-1.254724,0.427814,0.074257,-0.049295,0.072586,0.0,2.0,48.0,161.0,28.0,0.0
68733,0.861815,-1.2546389999999998,0.481857,0.029454,0.024905,0.06626699999999999,0.0,2.0,48.0,161.0,28.0,0.0
68734,0.913035,-1.258054,0.526116,-0.022494,0.959441,0.168465,0.0,2.0,48.0,161.0,28.0,0.0
68735,0.8908719999999999,-1.255192,0.5115109999999999,0.07828099999999999,1.265028,0.336017,0.0,2.0,48.0,161.0,28.0,0.0
68736,0.821859,-1.248099,0.452736,0.085975,1.267651,0.503817,0.0,2.0,48.0,161.0,28.0,0.0
68737,0.7739560000000001,-1.250426,0.40052,0.06312000000000001,-0.190574,0.330189,0.0,2.0,48.0,161.0,28.0,0.0
68738,0.77644,-1.251459,0.393216,0.09813,-0.239666,0.117319,0.0,2.0,48.0,161.0,28.0,0.0
68739,0.775634,-1.23649,0.389116,0.156485,0.436969,-0.090995,0.0,2.0,48.0,161.0,28.0,0.0
68740,0.7812,-1.228165,0.394055,0.405728,0.115652,-0.064912,0.0,2.0,48.0,161.0,28.0,0.0
68741,0.800249,-1.22666,0.421256,0.074085,-0.000754,-0.0077909999999999984,0.0,2.0,48.0,161.0,28.0,0.0
68742,0.8222879999999999,-1.221666,0.445404,0.03464,-0.054188,0.06893200000000001,0.0,2.0,48.0,161.0,28.0,0.0
68743,0.857526,-1.220052,0.4804850000000001,0.021938,-0.099792,0.10961,0.0,2.0,48.0,161.0,28.0,0.0
68744,0.902341,-1.224947,0.523267,0.090231,-0.094642,0.084516,0.0,2.0,48.0,161.0,28.0,0.0
68745,0.943174,-1.235747,0.564766,0.217299,0.008228000000000001,0.096007,0.0,2.0,48.0,161.0,28.0,0.0
68746,0.973732,-1.249624,0.6009329999999999,0.13608499999999998,0.040499,0.083618,0.0,2.0,48.0,161.0,28.0,0.0
68747,0.998908,-1.264039,0.6321479999999999,0.00117,-0.04217,0.054921000000000005,0.0,2.0,48.0,161.0,28.0,0.0
68748,1.020147,-1.274089,0.659614,-0.096819,-0.189428,0.07682,0.0,2.0,48.0,161.0,28.0,0.0
68749,1.023601,-1.280186,0.665293,-0.16739,-0.436509,0.029953,0.0,2.0,48.0,161.0,28.0,0.0
68750,1.013808,-1.281947,0.647277,-0.115246,-0.584,0.017275,0.0,2.0,48.0,161.0,28.0,0.0
68751,0.986857,-1.2808389999999998,0.604992,-0.054965,-0.673405,0.0076900000000000015,0.0,2.0,48.0,161.0,28.0,0.0
68752,0.952235,-1.277678,0.557052,0.055803,-0.565487,0.082229,0.0,2.0,48.0,161.0,28.0,0.0
68753,0.912376,-1.271679,0.507993,0.186683,-0.338196,0.026719,0.0,2.0,48.0,161.0,28.0,0.0
68754,0.863369,-1.262122,0.455534,0.26029,-0.199685,0.122918,0.0,2.0,48.0,161.0,28.0,0.0
68755,0.817887,-1.2513729999999998,0.409712,0.199361,-0.071548,0.276371,0.0,2.0,48.0,161.0,28.0,0.0
68756,0.7754850000000001,-1.238225,0.376988,0.010298,0.108047,0.325929,0.0,2.0,48.0,161.0,28.0,0.0
68757,0.7399720000000001,-1.21654,0.362558,-0.077477,0.431984,0.262565,0.0,2.0,48.0,161.0,28.0,0.0
68758,0.712676,-1.18739,0.358677,0.06461,0.6757989999999999,0.022717,0.0,2.0,48.0,161.0,28.0,0.0
68759,0.686937,-1.156115,0.351011,0.11931300000000003,0.8467950000000001,-0.234857,0.0,2.0,48.0,161.0,28.0,0.0
68760,0.658408,-1.1277700000000002,0.328388,0.032483,0.806823,-0.187119,0.0,2.0,48.0,161.0,28.0,0.0
68761,0.637397,-1.105574,0.3052,0.134805,0.6602640000000001,-0.13889,0.0,2.0,48.0,161.0,28.0,0.0
68762,0.620637,-1.0900450000000002,0.293538,0.29225300000000004,0.505778,-0.061604999999999986,0.0,2.0,48.0,161.0,28.0,0.0
68763,0.616256,-1.083223,0.30155,0.119806,0.212688,0.026421,0.0,2.0,48.0,161.0,28.0,0.0
68764,0.62063,-1.090017,0.325152,0.030172000000000008,-0.063591,0.055955,0.0,2.0,48.0,161.0,28.0,0.0
68765,0.627429,-1.107653,0.357204,-0.170785,-0.331832,0.1097,0.0,2.0,48.0,161.0,28.0,0.0
68766,0.635024,-1.129802,0.389678,-0.186882,-0.416428,0.133024,0.0,2.0,48.0,161.0,28.0,0.0
68767,0.6470090000000001,-1.153494,0.42137,-0.198228,-0.5723739999999999,0.16609000000000002,0.0,2.0,48.0,161.0,28.0,0.0
68768,0.666088,-1.177663,0.453593,-0.226914,-0.673179,0.16304100000000002,0.0,2.0,48.0,161.0,28.0,0.0
68769,0.691866,-1.202351,0.488072,-0.199224,-0.774228,0.136428,0.0,2.0,48.0,161.0,28.0,0.0
68770,0.7219399999999999,-1.229222,0.524944,-0.162184,-0.708388,0.071787,0.0,2.0,48.0,161.0,28.0,0.0
68771,0.75605,-1.255346,0.56529,-0.094568,-0.404026,0.006841,0.0,2.0,48.0,161.0,28.0,0.0
68772,0.796385,-1.273649,0.611341,-0.049167,-0.097975,-0.029234,0.0,2.0,48.0,161.0,28.0,0.0
68773,0.8400629999999999,-1.282072,0.6583600000000001,-0.08124400000000001,-0.029775,0.031794,0.0,2.0,48.0,161.0,28.0,0.0
68774,0.8897309999999999,-1.285274,0.7086399999999999,-0.221088,-0.084377,0.043101,0.0,2.0,48.0,161.0,28.0,0.0
68775,0.942283,-1.287336,0.760279,-0.25508000000000003,0.094884,0.009996,0.0,2.0,48.0,161.0,28.0,0.0
68776,0.95659,-1.283835,0.7755850000000001,-0.277062,0.5873550000000001,0.16116,0.0,2.0,48.0,161.0,28.0,0.0
68777,0.927744,-1.271953,0.744834,0.042883,0.971584,0.382761,0.0,2.0,48.0,161.0,28.0,0.0
68778,0.8852129999999999,-1.263107,0.685668,0.179032,0.552076,0.459045,0.0,2.0,48.0,161.0,28.0,0.0
68779,0.8663219999999999,-1.256812,0.644726,0.453519,0.58815,0.00263,0.0,2.0,48.0,161.0,28.0,0.0
68780,0.856561,-1.240036,0.621563,0.450798,0.300741,-0.050288,0.0,2.0,48.0,161.0,28.0,0.0
68781,0.857347,-1.231707,0.6180859999999999,0.258572,-0.076511,-0.129393,0.0,2.0,48.0,161.0,28.0,0.0
68782,0.8523719999999999,-1.233809,0.611941,0.079206,-0.0065450000000000005,-0.038905,0.0,2.0,48.0,161.0,28.0,0.0
68783,0.86595,-1.237366,0.6200439999999999,0.026816000000000003,0.159826,0.061277,0.0,2.0,48.0,161.0,28.0,0.0
68784,0.904297,-1.238611,0.64442,0.07951699999999999,0.204403,0.081813,0.0,2.0,48.0,161.0,28.0,0.0
68785,0.954756,-1.238319,0.675944,0.169516,-0.048096,0.151566,0.0,2.0,48.0,161.0,28.0,0.0
68786,1.001911,-1.238416,0.706109,0.135365,-0.120225,0.176867,0.0,2.0,48.0,161.0,28.0,0.0
68787,1.042202,-1.2418360000000002,0.739279,0.07774400000000001,-0.19203,0.1897,0.0,2.0,48.0,161.0,28.0,0.0
68788,1.0666209999999998,-1.249307,0.7597970000000001,-0.123169,-0.29926,0.10886400000000003,0.0,2.0,48.0,161.0,28.0,0.0
68789,1.0715709999999998,-1.256803,0.757794,-0.146218,-0.336362,0.054905,0.0,2.0,48.0,161.0,28.0,0.0
68790,1.05796,-1.261354,0.734376,-0.160975,-0.363331,0.028868,0.0,2.0,48.0,161.0,28.0,0.0
68791,1.032768,-1.262232,0.696994,-0.1005,-0.48457,0.006481000000000001,0.0,2.0,48.0,161.0,28.0,0.0
68792,1.002067,-1.25957,0.649508,-0.073277,-0.499444,-0.028259,0.0,2.0,48.0,161.0,28.0,0.0
68793,0.963269,-1.253013,0.591284,-0.018766,-0.4850100000000001,-0.041503,0.0,2.0,48.0,161.0,28.0,0.0
68794,0.920525,-1.243337,0.529283,0.238438,-0.257013,0.089614,0.0,2.0,48.0,161.0,28.0,0.0
68795,0.882028,-1.232006,0.471817,0.293641,-0.188717,0.136722,0.0,2.0,48.0,161.0,28.0,0.0
68796,0.850159,-1.221097,0.425683,0.300918,-0.189476,0.168519,0.0,2.0,48.0,161.0,28.0,0.0
68797,0.821416,-1.211531,0.39001,0.223516,-0.0005780000000000001,0.163105,0.0,2.0,48.0,161.0,28.0,0.0
68798,0.787039,-1.198795,0.361033,0.073771,0.2893,0.17975,0.0,2.0,48.0,161.0,28.0,0.0
68799,0.755614,-1.179198,0.345236,0.017334,0.421266,0.114218,0.0,2.0,48.0,161.0,28.0,0.0
68800,0.734495,-1.154326,0.341525,0.08053400000000001,0.491026,-0.208941,0.0,2.0,48.0,161.0,28.0,0.0
68801,0.7093729999999999,-1.124739,0.326941,0.160055,0.774404,-0.30674,0.0,2.0,48.0,161.0,28.0,0.0
68802,0.681334,-1.096326,0.299786,0.21468,0.943031,-0.242429,0.0,2.0,48.0,161.0,28.0,0.0
68803,0.6633789999999999,-1.080582,0.28220500000000004,0.185318,0.855668,-0.075772,0.0,2.0,48.0,161.0,28.0,0.0
68804,0.6512640000000001,-1.077971,0.277973,0.049033,0.36308,-0.059683000000000014,0.0,2.0,48.0,161.0,28.0,0.0
68805,0.644779,-1.083677,0.281572,0.113587,-0.204058,0.101413,0.0,2.0,48.0,161.0,28.0,0.0
68806,0.65475,-1.09433,0.299597,-0.055949,-0.226054,0.010566,0.0,2.0,48.0,161.0,28.0,0.0
68807,0.669475,-1.11237,0.328212,-0.155454,-0.36048,0.050793,0.0,2.0,48.0,161.0,28.0,0.0
68808,0.681778,-1.134223,0.357216,-0.184991,-0.417665,0.14410599999999998,0.0,2.0,48.0,161.0,28.0,0.0
68809,0.693921,-1.156273,0.384744,-0.200727,-0.485087,0.201304,0.0,2.0,48.0,161.0,28.0,0.0
68810,0.710142,-1.177462,0.413106,-0.217579,-0.5584020000000001,0.202926,0.0,2.0,48.0,161.0,28.0,0.0
68811,0.73217,-1.200275,0.443918,-0.204306,-0.562846,0.196821,0.0,2.0,48.0,161.0,28.0,0.0
68812,0.763423,-1.224688,0.482253,-0.188052,-0.450328,0.150483,0.0,2.0,48.0,161.0,28.0,0.0
68813,0.802374,-1.245525,0.528921,-0.129821,-0.378625,0.074421,0.0,2.0,48.0,161.0,28.0,0.0
68814,0.847994,-1.259134,0.5808810000000001,-0.075513,-0.301435,-0.033416,0.0,2.0,48.0,161.0,28.0,0.0
68815,0.8939090000000001,-1.264989,0.6306,-0.065125,-0.111685,-0.109462,0.0,2.0,48.0,161.0,28.0,0.0
68816,0.937827,-1.263957,0.674615,-0.079786,0.052444000000000005,-0.069194,0.0,2.0,48.0,161.0,28.0,0.0
68817,0.982271,-1.260228,0.715846,-0.010635,0.082233,-0.000932,0.0,2.0,48.0,161.0,28.0,0.0
68818,1.021154,-1.257903,0.7504810000000001,-0.059025,0.150604,0.014843,0.0,2.0,48.0,161.0,28.0,0.0
68819,1.021835,-1.257193,0.749444,-0.113559,0.7402850000000001,0.057481,0.0,2.0,48.0,161.0,28.0,0.0
68820,0.991025,-1.254769,0.7151569999999999,-0.044181,1.08651,0.253924,0.0,2.0,48.0,161.0,28.0,0.0
68821,0.943862,-1.2532299999999998,0.6578649999999999,0.306991,0.830535,0.384236,0.0,2.0,48.0,161.0,28.0,0.0
68822,0.932638,-1.253743,0.635737,0.514425,0.282767,0.006462000000000001,0.0,2.0,48.0,161.0,28.0,0.0
68823,0.949444,-1.25169,0.643212,0.4641770000000001,0.30901300000000004,-0.107706,0.0,2.0,48.0,161.0,28.0,0.0
68824,0.962217,-1.2466700000000002,0.653541,0.22993,0.204353,-0.085566,0.0,2.0,48.0,161.0,28.0,0.0
68825,0.979594,-1.242039,0.668704,-0.04388,-0.047671,-0.037534,0.0,2.0,48.0,161.0,28.0,0.0
68826,1.004146,-1.240283,0.685001,-0.011334,0.051469000000000015,0.041486,0.0,2.0,48.0,161.0,28.0,0.0
68827,1.0395219999999998,-1.2427700000000002,0.7044739999999999,0.069727,0.135717,0.152631,0.0,2.0,48.0,161.0,28.0,0.0
68828,1.086675,-1.248148,0.733336,0.083729,-0.021992,0.165382,0.0,2.0,48.0,161.0,28.0,0.0
68829,1.1313950000000002,-1.254982,0.7595109999999999,0.06045800000000001,-0.13046,0.155467,0.0,2.0,48.0,161.0,28.0,0.0
68830,1.157894,-1.262625,0.769543,-0.034151,-0.239358,0.121647,0.0,2.0,48.0,161.0,28.0,0.0
68831,1.169028,-1.270647,0.7669699999999999,-0.081972,-0.288331,0.073637,0.0,2.0,48.0,161.0,28.0,0.0
68832,1.161766,-1.275695,0.7482479999999999,-0.101035,-0.35756,-0.009149,0.0,2.0,48.0,161.0,28.0,0.0
68833,1.131201,-1.2761870000000002,0.705329,-0.049952,-0.482611,-0.010846,0.0,2.0,48.0,161.0,28.0,0.0
68834,1.080934,-1.2725959999999998,0.642126,-0.014536000000000004,-0.515483,0.043626,0.0,2.0,48.0,161.0,28.0,0.0
68835,1.027245,-1.26688,0.579005,-0.005298,-0.526025,0.104748,0.0,2.0,48.0,161.0,28.0,0.0
68836,0.974685,-1.259564,0.522149,0.083338,-0.357871,0.024065,0.0,2.0,48.0,161.0,28.0,0.0
68837,0.923347,-1.250869,0.466426,0.160807,-0.265954,0.118687,0.0,2.0,48.0,161.0,28.0,0.0
68838,0.879866,-1.243039,0.420741,0.208765,-0.099462,0.17114400000000002,0.0,2.0,48.0,161.0,28.0,0.0
68839,0.8494079999999999,-1.233677,0.3905,0.088762,-0.152314,0.241424,0.0,2.0,48.0,161.0,28.0,0.0
68840,0.8172729999999999,-1.222015,0.364496,-0.056388,0.07974099999999999,0.19754,0.0,2.0,48.0,161.0,28.0,0.0
68841,0.776053,-1.206284,0.337438,-0.032971,0.375868,0.16047,0.0,2.0,48.0,161.0,28.0,0.0
68842,0.738067,-1.182732,0.315475,0.03687,0.515336,0.017486,0.0,2.0,48.0,161.0,28.0,0.0
68843,0.70482,-1.151858,0.293734,0.0054280000000000005,0.60543,-0.130662,0.0,2.0,48.0,161.0,28.0,0.0
68844,0.677304,-1.120942,0.268519,0.06061,0.457598,-0.134756,0.0,2.0,48.0,161.0,28.0,0.0
68845,0.6552359999999999,-1.101365,0.244572,0.206907,0.619527,-0.27534400000000003,0.0,2.0,48.0,161.0,28.0,0.0
68846,0.632558,-1.092729,0.228257,0.347623,1.015877,-0.202655,0.0,2.0,48.0,161.0,28.0,0.0
68847,0.621145,-1.090754,0.230854,0.227091,0.670459,-0.104369,0.0,2.0,48.0,161.0,28.0,0.0
68848,0.624879,-1.094941,0.24408600000000005,0.024436000000000003,0.25195300000000004,-0.06327,0.0,2.0,48.0,161.0,28.0,0.0
68849,0.637513,-1.109003,0.268859,-0.045845,-0.177207,-0.07286000000000001,0.0,2.0,48.0,161.0,28.0,0.0
68850,0.6472899999999999,-1.131572,0.295609,-0.05501,-0.319404,0.001966,0.0,2.0,48.0,161.0,28.0,0.0
68851,0.653866,-1.156272,0.317759,-0.074641,-0.392862,0.088139,0.0,2.0,48.0,161.0,28.0,0.0
68852,0.663027,-1.1805450000000002,0.33892100000000003,-0.13147,-0.408151,0.145626,0.0,2.0,48.0,161.0,28.0,0.0
68853,0.686732,-1.204391,0.369786,-0.154522,-0.442288,0.186546,0.0,2.0,48.0,161.0,28.0,0.0
68854,0.724275,-1.229567,0.410913,-0.13367,-0.563819,0.154674,0.0,2.0,48.0,161.0,28.0,0.0
68855,0.767243,-1.25495,0.457379,-0.152975,-0.547183,0.139923,0.0,2.0,48.0,161.0,28.0,0.0
68856,0.8101470000000001,-1.277503,0.5078010000000001,-0.167883,-0.551017,0.142232,0.0,2.0,48.0,161.0,28.0,0.0
68857,0.8570700000000001,-1.295332,0.564116,-0.157838,-0.497776,0.135345,0.0,2.0,48.0,161.0,28.0,0.0
68858,0.914821,-1.305472,0.627437,-0.100245,-0.346843,0.001926,0.0,2.0,48.0,161.0,28.0,0.0
68859,0.974916,-1.307962,0.689247,-0.086504,-0.308614,-0.054398,0.0,2.0,48.0,161.0,28.0,0.0
68860,1.0255040000000002,-1.306009,0.742395,-0.072434,-0.218017,-0.071697,0.0,2.0,48.0,161.0,28.0,0.0
68861,1.071153,-1.30035,0.789108,-0.059885,-0.09767,-0.07687000000000001,0.0,2.0,48.0,161.0,28.0,0.0
68862,1.116941,-1.291976,0.82968,-0.075961,-0.07374700000000001,-0.0996,0.0,2.0,48.0,161.0,28.0,0.0
68863,1.144253,-1.282814,0.850002,-0.036102,0.229505,-0.097389,0.0,2.0,48.0,161.0,28.0,0.0
68864,1.115705,-1.275067,0.8233940000000001,0.064209,1.129882,0.127194,0.0,2.0,48.0,161.0,28.0,0.0
68865,1.057586,-1.269378,0.770369,-0.006468000000000001,1.382486,0.434312,0.0,2.0,48.0,161.0,28.0,0.0
68866,0.999685,-1.269671,0.705975,0.312786,0.177031,0.211608,0.0,2.0,48.0,161.0,28.0,0.0
68867,0.981578,-1.272283,0.673404,0.486215,0.07370499999999999,0.01229,0.0,2.0,48.0,161.0,28.0,0.0
68868,0.983465,-1.268786,0.664103,0.455005,0.033632,0.030509,0.0,2.0,48.0,161.0,28.0,0.0
68869,1.006982,-1.262342,0.688193,0.255589,0.091691,-0.083463,0.0,2.0,48.0,161.0,28.0,0.0
68870,1.036475,-1.2557200000000002,0.724727,-0.095115,0.273074,-0.068923,0.0,2.0,48.0,161.0,28.0,0.0
68871,1.054285,-1.250626,0.744949,-0.103647,0.296439,0.031902,0.0,2.0,48.0,161.0,28.0,0.0
68872,1.0745,-1.251967,0.758367,0.062386,0.23512,0.12709700000000002,0.0,2.0,48.0,161.0,28.0,0.0
68873,1.102183,-1.257868,0.771019,0.108425,-0.126729,0.104746,0.0,2.0,48.0,161.0,28.0,0.0
68874,1.124969,-1.265272,0.779032,0.159788,-0.16203299999999998,0.106703,0.0,2.0,48.0,161.0,28.0,0.0
68875,1.144842,-1.27266,0.78828,0.044213,-0.338561,0.100307,0.0,2.0,48.0,161.0,28.0,0.0
68876,1.158913,-1.277729,0.7957069999999999,0.046975,-0.340037,0.09459,0.0,2.0,48.0,161.0,28.0,0.0
68877,1.1507969999999998,-1.279814,0.784036,-0.030119,-0.426011,-0.057034,0.0,2.0,48.0,161.0,28.0,0.0
68878,1.122261,-1.2810549999999998,0.753633,-0.028684,-0.492162,-0.002928,0.0,2.0,48.0,161.0,28.0,0.0
68879,1.078515,-1.282311,0.705345,-0.082064,-0.510251,-0.030306,0.0,2.0,48.0,161.0,28.0,0.0
68880,1.020579,-1.279953,0.6403979999999999,-0.002573,-0.476404,0.02603,0.0,2.0,48.0,161.0,28.0,0.0
68881,0.951837,-1.272681,0.5660069999999999,0.182139,-0.333882,0.195535,0.0,2.0,48.0,161.0,28.0,0.0
68882,0.884166,-1.260686,0.496167,0.243921,-0.275115,0.304529,0.0,2.0,48.0,161.0,28.0,0.0
68883,0.8235399999999999,-1.2430370000000002,0.445671,-0.031365,0.033458,0.20297,0.0,2.0,48.0,161.0,28.0,0.0
68884,0.769389,-1.215234,0.410748,-0.157672,0.32088,0.096172,0.0,2.0,48.0,161.0,28.0,0.0
68885,0.7275560000000001,-1.180344,0.387161,-0.209596,0.452811,0.056035,0.0,2.0,48.0,161.0,28.0,0.0
68886,0.69567,-1.145195,0.365211,0.07496799999999999,0.5239020000000001,-0.093236,0.0,2.0,48.0,161.0,28.0,0.0
68887,0.670077,-1.1190129999999998,0.340546,0.185525,0.472156,-0.097333,0.0,2.0,48.0,161.0,28.0,0.0
68888,0.6435770000000001,-1.103803,0.31753000000000003,0.159436,0.488818,-0.07864600000000001,0.0,2.0,48.0,161.0,28.0,0.0
68889,0.625951,-1.094951,0.307313,0.098216,0.41009,-0.006773,0.0,2.0,48.0,161.0,28.0,0.0
68890,0.623909,-1.093515,0.315841,-0.014396,0.356596,0.06474099999999999,0.0,2.0,48.0,161.0,28.0,0.0
68891,0.639937,-1.101142,0.34228800000000004,-0.095186,-0.095476,0.02304,0.0,2.0,48.0,161.0,28.0,0.0
68892,0.667304,-1.115689,0.376192,-0.062751,-0.222509,-0.012432,0.0,2.0,48.0,161.0,28.0,0.0
68893,0.698908,-1.131137,0.409286,-0.079624,-0.372533,0.041028,0.0,2.0,48.0,161.0,28.0,0.0
68894,0.73101,-1.146195,0.4404,-0.116548,-0.478845,0.072183,0.0,2.0,48.0,161.0,28.0,0.0
68895,0.761858,-1.163158,0.470976,-0.137184,-0.527145,0.077963,0.0,2.0,48.0,161.0,28.0,0.0
68896,0.794233,-1.183251,0.502889,-0.127648,-0.457196,0.016085,0.0,2.0,48.0,161.0,28.0,0.0
68897,0.82626,-1.204436,0.533259,-0.103957,0.012484,-0.031574,0.0,2.0,48.0,161.0,28.0,0.0
68898,0.8590530000000001,-1.222562,0.5647439999999999,-0.092521,0.190669,-0.029263,0.0,2.0,48.0,161.0,28.0,0.0
68899,0.8988709999999999,-1.236725,0.604297,-0.082518,0.008639,-0.024277,0.0,2.0,48.0,161.0,28.0,0.0
68900,0.943911,-1.244975,0.646077,-0.069486,0.153183,-0.042874,0.0,2.0,48.0,161.0,28.0,0.0
68901,0.964797,-1.241792,0.665626,-0.022575,0.278123,-0.008846,0.0,2.0,48.0,161.0,28.0,0.0
68902,0.953064,-1.229988,0.655844,0.015527,0.5031180000000001,0.211545,0.0,2.0,48.0,161.0,28.0,0.0
68903,0.932171,-1.220736,0.640109,0.067832,0.618479,0.439075,0.0,2.0,48.0,161.0,28.0,0.0
68904,0.925822,-1.224409,0.6417689999999999,0.134639,0.453438,0.297264,0.0,2.0,48.0,161.0,28.0,0.0
68905,0.930916,-1.229398,0.6513680000000001,0.301327,0.245716,0.09207,0.0,2.0,48.0,161.0,28.0,0.0
68906,0.940975,-1.226818,0.659369,0.201159,0.022584,0.030273,0.0,2.0,48.0,161.0,28.0,0.0
68907,0.9589,-1.220553,0.674339,-0.061558,-0.117512,-0.022346,0.0,2.0,48.0,161.0,28.0,0.0
68908,0.977084,-1.2146370000000002,0.691509,-0.10757,0.236524,0.002369,0.0,2.0,48.0,161.0,28.0,0.0
68909,0.9855,-1.212277,0.69672,0.17388399999999998,0.615264,0.092216,0.0,2.0,48.0,161.0,28.0,0.0
68910,1.001772,-1.217222,0.703658,0.277593,0.133529,0.081028,0.0,2.0,48.0,161.0,28.0,0.0
68911,1.020684,-1.22363,0.709427,0.28114,-0.09656,0.100958,0.0,2.0,48.0,161.0,28.0,0.0
68912,1.043188,-1.230781,0.724146,0.155802,-0.28833000000000003,0.142861,0.0,2.0,48.0,161.0,28.0,0.0
68913,1.069654,-1.239645,0.750341,-0.000532,-0.314657,0.111227,0.0,2.0,48.0,161.0,28.0,0.0
68914,1.090418,-1.249176,0.775447,-0.0926,-0.176203,0.071698,0.0,2.0,48.0,161.0,28.0,0.0
68915,1.095659,-1.2573530000000002,0.787301,-0.072644,-0.054656,0.120674,0.0,2.0,48.0,161.0,28.0,0.0
68916,1.0847209999999998,-1.263016,0.7795890000000001,-0.071186,-0.12647,0.115958,0.0,2.0,48.0,161.0,28.0,0.0
68917,1.059876,-1.266693,0.749768,-0.059753,-0.312713,0.07468,0.0,2.0,48.0,161.0,28.0,0.0
68918,1.024245,-1.2678969999999998,0.7030109999999999,-0.008804000000000001,-0.434334,0.026455000000000003,0.0,2.0,48.0,161.0,28.0,0.0
68919,0.983753,-1.266307,0.650457,0.052006,-0.401403,0.07148,0.0,2.0,48.0,161.0,28.0,0.0
68920,0.941808,-1.260842,0.600888,0.190229,-0.349747,0.094891,0.0,2.0,48.0,161.0,28.0,0.0
68921,0.904063,-1.252236,0.559388,0.26484,-0.275615,-0.075103,0.0,2.0,48.0,161.0,28.0,0.0
68922,0.8698670000000001,-1.243363,0.524306,0.35215,-0.156588,-0.0732,0.0,2.0,48.0,161.0,28.0,0.0
68923,0.834636,-1.236719,0.4956140000000001,0.275163,-0.188259,0.038776,0.0,2.0,48.0,161.0,28.0,0.0
68924,0.7932779999999999,-1.230152,0.470998,0.006559000000000001,-0.053151,0.182101,0.0,2.0,48.0,161.0,28.0,0.0
68925,0.7429899999999999,-1.218693,0.44584,-0.119389,0.190669,0.217107,0.0,2.0,48.0,161.0,28.0,0.0
68926,0.691836,-1.201848,0.421678,-0.118641,0.327059,0.094495,0.0,2.0,48.0,161.0,28.0,0.0
68927,0.649256,-1.179868,0.400644,-0.077571,0.400685,0.004573,0.0,2.0,48.0,161.0,28.0,0.0
68928,0.6120899999999999,-1.155448,0.37507,-0.019104,0.592867,-0.082049,0.0,2.0,48.0,161.0,28.0,0.0
68929,0.585205,-1.135836,0.352271,0.094322,0.469486,-0.042992,0.0,2.0,48.0,161.0,28.0,0.0
68930,0.568149,-1.1219629999999998,0.340558,0.163881,0.637071,0.020692,0.0,2.0,48.0,161.0,28.0,0.0
68931,0.5680810000000001,-1.112878,0.34878600000000004,0.091824,0.459211,0.043187,0.0,2.0,48.0,161.0,28.0,0.0
68932,0.578685,-1.112969,0.369998,-0.110266,-0.091702,0.046587,0.0,2.0,48.0,161.0,28.0,0.0
68933,0.584594,-1.123532,0.388876,-0.069654,-0.255104,0.06779400000000001,0.0,2.0,48.0,161.0,28.0,0.0
68934,0.582113,-1.140572,0.40171,-0.054754,-0.302732,0.08996900000000001,0.0,2.0,48.0,161.0,28.0,0.0
68935,0.5788909999999999,-1.160189,0.413745,-0.074472,-0.397073,0.166428,0.0,2.0,48.0,161.0,28.0,0.0
68936,0.578889,-1.180352,0.427732,-0.09393,-0.436154,0.135154,0.0,2.0,48.0,161.0,28.0,0.0
68937,0.58938,-1.20075,0.449262,-0.103242,-0.439025,0.093906,0.0,2.0,48.0,161.0,28.0,0.0
68938,0.615263,-1.221322,0.480505,-0.075763,-0.176125,-0.070112,0.0,2.0,48.0,161.0,28.0,0.0
68939,0.647706,-1.240142,0.513001,-0.063556,-0.035781,-0.106062,0.0,2.0,48.0,161.0,28.0,0.0
68940,0.677535,-1.255177,0.539787,-0.05711,0.026294,-0.06589199999999999,0.0,2.0,48.0,161.0,28.0,0.0
68941,0.715683,-1.26291,0.5727300000000001,-0.103705,0.026409,-0.02843,0.0,2.0,48.0,161.0,28.0,0.0
68942,0.766544,-1.265247,0.615374,-0.130207,-0.067177,-0.022754,0.0,2.0,48.0,161.0,28.0,0.0
68943,0.826177,-1.264491,0.660305,-0.120391,-0.086312,-0.019537,0.0,2.0,48.0,161.0,28.0,0.0
68944,0.874092,-1.2610290000000002,0.693833,-0.000541,0.076175,0.06604,0.0,2.0,48.0,161.0,28.0,0.0
68945,0.889069,-1.256042,0.700537,0.157804,0.505426,0.20543000000000006,0.0,2.0,48.0,161.0,28.0,0.0
68946,0.880668,-1.25235,0.689641,0.166587,0.566512,0.276494,0.0,2.0,48.0,161.0,28.0,0.0
68947,0.8564129999999999,-1.252252,0.669376,0.162679,0.518737,0.262424,0.0,2.0,48.0,161.0,28.0,0.0
68948,0.8285530000000001,-1.252979,0.649219,0.413944,0.629472,0.039755,0.0,2.0,48.0,161.0,28.0,0.0
68949,0.822509,-1.249865,0.644312,0.525347,0.379885,-0.104704,0.0,2.0,48.0,161.0,28.0,0.0
68950,0.8387620000000001,-1.247548,0.6590159999999999,0.276725,0.093875,-0.097499,0.0,2.0,48.0,161.0,28.0,0.0
68951,0.861917,-1.248201,0.683712,0.139958,0.011286,0.018687,0.0,2.0,48.0,161.0,28.0,0.0
68952,0.8970870000000001,-1.250632,0.720514,0.156092,0.206578,0.085395,0.0,2.0,48.0,161.0,28.0,0.0
68953,0.938,-1.256717,0.7632760000000001,0.15244100000000002,0.211776,0.168798,0.0,2.0,48.0,161.0,28.0,0.0
68954,0.986415,-1.26759,0.812811,0.104573,0.01757,0.164774,0.0,2.0,48.0,161.0,28.0,0.0
68955,1.024161,-1.280541,0.853159,0.124084,-0.035991,0.185747,0.0,2.0,48.0,161.0,28.0,0.0
68956,1.050272,-1.2938690000000002,0.883968,0.075295,-0.131959,0.133643,0.0,2.0,48.0,161.0,28.0,0.0
68957,1.061392,-1.305333,0.898013,0.013647,-0.240545,0.02089,0.0,2.0,48.0,161.0,28.0,0.0
68958,1.0460040000000002,-1.313662,0.885734,-0.002905,-0.313192,-0.065586,0.0,2.0,48.0,161.0,28.0,0.0
68959,1.010954,-1.3197139999999998,0.8549190000000001,0.015707,-0.411866,-0.048201,0.0,2.0,48.0,161.0,28.0,0.0
68960,0.968544,-1.324094,0.8166,0.078731,-0.497235,-0.009925,0.0,2.0,48.0,161.0,28.0,0.0
68961,0.923112,-1.326425,0.7752859999999999,0.116368,-0.578871,0.030208,0.0,2.0,48.0,161.0,28.0,0.0
68962,0.87865,-1.3274780000000002,0.737282,0.133904,-0.62095,-0.029183,0.0,2.0,48.0,161.0,28.0,0.0
68963,0.8350860000000001,-1.327488,0.7033729999999999,0.182713,-0.542751,-0.00046,0.0,2.0,48.0,161.0,28.0,0.0
68964,0.7949729999999999,-1.327598,0.673852,0.200539,-0.493903,0.021939,0.0,2.0,48.0,161.0,28.0,0.0
68965,0.764504,-1.329436,0.656253,0.159552,-0.386022,0.09986,0.0,2.0,48.0,161.0,28.0,0.0
68966,0.7391260000000001,-1.331634,0.648419,0.11563,-0.258417,0.196953,0.0,2.0,48.0,161.0,28.0,0.0
68967,0.703404,-1.33301,0.6373989999999999,0.08796699999999999,-0.080916,0.17903,0.0,2.0,48.0,161.0,28.0,0.0
68968,0.6504810000000001,-1.3286360000000002,0.618352,-0.024963,0.600223,0.173876,0.0,2.0,48.0,161.0,28.0,0.0
68969,0.600536,-1.31402,0.6080720000000001,0.034006,0.717997,0.178749,0.0,2.0,48.0,161.0,28.0,0.0
68970,0.568763,-1.289858,0.606395,0.046376,0.7345470000000001,-0.012913999999999998,0.0,2.0,48.0,161.0,28.0,0.0
68971,0.549236,-1.262374,0.601184,0.17458,0.715704,-0.176011,0.0,2.0,48.0,161.0,28.0,0.0
68972,0.538397,-1.239984,0.596912,0.283393,0.718299,-0.056556,0.0,2.0,48.0,161.0,28.0,0.0
68973,0.534382,-1.227409,0.603737,0.308072,0.519303,-0.078803,0.0,2.0,48.0,161.0,28.0,0.0
68974,0.5371130000000001,-1.223804,0.621317,0.202518,0.344527,-0.057803,0.0,2.0,48.0,161.0,28.0,0.0
68975,0.548694,-1.228042,0.6499119999999999,0.136071,0.281297,-0.025215,0.0,2.0,48.0,161.0,28.0,0.0
68976,0.572765,-1.236744,0.694448,-0.020566,-0.154804,0.084266,0.0,2.0,48.0,161.0,28.0,0.0
68977,0.594893,-1.249834,0.7399279999999999,-0.113316,-0.341068,0.150903,0.0,2.0,48.0,161.0,28.0,0.0
68978,0.6050220000000001,-1.26655,0.77557,-0.124743,-0.418566,0.157256,0.0,2.0,48.0,161.0,28.0,0.0
68979,0.608217,-1.285452,0.802729,-0.066701,-0.599076,0.13239,0.0,2.0,48.0,161.0,28.0,0.0
68980,0.617422,-1.305945,0.8314520000000001,-0.08557000000000001,-0.5924510000000001,0.11616,0.0,2.0,48.0,161.0,28.0,0.0
68981,0.636613,-1.325843,0.864399,-0.097568,-0.567728,0.127651,0.0,2.0,48.0,161.0,28.0,0.0
68982,0.670237,-1.34448,0.906909,-0.09318,-0.572141,0.109437,0.0,2.0,48.0,161.0,28.0,0.0
68983,0.7223149999999999,-1.3630719999999998,0.966697,-0.041158,-0.372256,0.07005499999999999,0.0,2.0,48.0,161.0,28.0,0.0
68984,0.782763,-1.38234,1.036505,-0.08049400000000001,-0.078593,-0.046356,0.0,2.0,48.0,161.0,28.0,0.0
68985,0.833153,-1.399528,1.098451,-0.13434400000000002,0.074323,-0.109643,0.0,2.0,48.0,161.0,28.0,0.0
68986,0.856909,-1.41054,1.129525,-0.050984,0.192898,-0.225512,0.0,2.0,48.0,161.0,28.0,0.0
68987,0.8508760000000001,-1.41232,1.11981,0.118465,-0.024807,-0.287697,0.0,2.0,48.0,161.0,28.0,0.0
68988,0.843772,-1.405626,1.101734,0.140408,-0.069597,-0.305048,0.0,2.0,48.0,161.0,28.0,0.0
68989,0.837901,-1.391835,1.083825,0.128646,0.222422,-0.097177,0.0,2.0,48.0,161.0,28.0,0.0
68990,0.76144,-1.366177,1.010525,0.232028,0.8161649999999999,0.07936,0.0,2.0,48.0,161.0,28.0,0.0
68991,0.664587,-1.338382,0.929446,0.366034,1.195496,0.316941,0.0,2.0,48.0,161.0,28.0,0.0
68992,0.586565,-1.328722,0.8630180000000001,0.17010699999999998,0.319334,0.135849,0.0,2.0,48.0,161.0,28.0,0.0
68993,0.520795,-1.319909,0.799163,0.453721,0.282574,0.261216,0.0,2.0,48.0,161.0,28.0,0.0
68994,0.517692,-1.310092,0.791255,0.5647409999999999,0.409066,0.170517,0.0,2.0,48.0,161.0,28.0,0.0
68995,0.556404,-1.313076,0.83381,0.320098,0.302802,-0.116411,0.0,2.0,48.0,161.0,28.0,0.0
68996,0.575751,-1.316531,0.864345,0.143653,0.30179,0.084623,0.0,2.0,48.0,161.0,28.0,0.0
68997,0.581625,-1.322053,0.8794059999999999,0.148162,0.133698,0.231675,0.0,2.0,48.0,161.0,28.0,0.0
68998,0.611795,-1.337486,0.911064,0.193215,0.053445000000000006,0.22454,0.0,2.0,48.0,161.0,28.0,0.0
68999,0.682296,-1.360023,0.979565,0.225953,-0.110758,0.135016,0.0,2.0,48.0,161.0,28.0,0.0
69000,0.7669779999999999,-1.3863370000000002,1.067524,0.142405,-0.245243,0.132193,0.0,2.0,48.0,161.0,28.0,0.0
69001,0.858392,-1.414064,1.168623,0.024094,-0.330058,0.165682,0.0,2.0,48.0,161.0,28.0,0.0
69002,0.966762,-1.440584,1.288305,-0.060813,-0.336108,0.136269,0.0,2.0,48.0,161.0,28.0,0.0
69003,1.096684,-1.465378,1.426933,-0.070314,-0.285891,0.104152,0.0,2.0,48.0,161.0,28.0,0.0
69004,1.263796,-1.488236,1.598111,-0.034583,-0.300259,0.06567200000000001,0.0,2.0,48.0,161.0,28.0,0.0
69005,1.484238,-1.50675,1.81734,-0.015593,-0.353693,0.009935,0.0,2.0,48.0,161.0,28.0,0.0
69006,1.7867259999999998,-1.52013,2.115522,-0.012269,-0.329756,-0.043649,0.0,2.0,48.0,161.0,28.0,0.0
69007,2.201821,-1.528103,2.523989,0.100151,-0.201283,0.030165,0.0,2.0,48.0,161.0,28.0,0.0
69008,2.62645,-1.529555,2.938753,0.298923,-0.088002,-0.027734,0.0,2.0,48.0,161.0,28.0,0.0
69009,2.929122,-1.524735,-3.050074,0.495367,0.048378,-0.147899,0.0,2.0,48.0,161.0,28.0,0.0
69010,3.093071,-1.517305,-2.888456,0.624869,0.192989,-0.207726,0.0,2.0,48.0,161.0,28.0,0.0
69011,-3.0826580000000003,-1.508381,-2.777792,0.621359,0.34469,-0.107031,0.0,2.0,48.0,161.0,28.0,0.0
69012,-3.044289,-1.501725,-2.72879,0.623976,0.41634,-0.0007019999999999999,0.0,2.0,48.0,161.0,28.0,0.0
69013,-3.116928,-1.4982,-2.782424,0.5914470000000001,0.407007,0.174794,0.0,2.0,48.0,161.0,28.0,0.0
69014,3.00083,-1.500101,-2.917183,0.47469,0.39799,0.239226,0.0,2.0,48.0,161.0,28.0,0.0
69015,2.734601,-1.505791,3.140515,0.300554,0.339606,0.220319,0.0,2.0,48.0,161.0,28.0,0.0
69016,2.354365,-1.513481,2.806148,-0.173552,0.163202,0.113781,0.0,2.0,48.0,161.0,28.0,0.0
69017,1.780609,-1.518623,2.275988,-0.214691,0.176623,0.181101,0.0,2.0,48.0,161.0,28.0,0.0
69018,1.160451,-1.508398,1.687155,-0.104251,0.230233,0.262314,0.0,2.0,48.0,161.0,28.0,0.0
69019,0.800028,-1.484976,1.342676,0.276475,0.252109,0.183697,0.0,2.0,48.0,161.0,28.0,0.0
69020,0.618495,-1.458895,1.173556,0.512443,0.221373,0.12247,0.0,2.0,48.0,161.0,28.0,0.0
69021,0.509102,-1.4384370000000002,1.086941,0.506907,0.193485,0.127992,0.0,2.0,48.0,161.0,28.0,0.0
69022,0.447209,-1.424057,1.059788,0.241639,0.096028,0.113113,0.0,2.0,48.0,161.0,28.0,0.0
69023,0.4207,-1.411895,1.075797,0.193172,-0.02442,0.12335,0.0,2.0,48.0,161.0,28.0,0.0
69024,0.41644,-1.401004,1.119034,0.184176,-0.048166,0.169388,0.0,2.0,48.0,161.0,28.0,0.0
69025,0.416893,-1.394728,1.171183,0.124474,-0.214871,0.129218,0.0,2.0,48.0,161.0,28.0,0.0
69026,0.391911,-1.393659,1.203645,0.14791500000000002,-0.319542,0.172516,0.0,2.0,48.0,161.0,28.0,0.0
69027,0.346121,-1.393884,1.216725,0.150784,-0.336702,0.211991,0.0,2.0,48.0,161.0,28.0,0.0
69028,0.295003,-1.394349,1.225109,0.10308699999999997,-0.347267,0.292085,0.0,2.0,48.0,161.0,28.0,0.0
69029,0.256826,-1.396154,1.247164,0.05313,-0.389208,0.32618800000000003,0.0,2.0,48.0,161.0,28.0,0.0
69030,0.234947,-1.401394,1.284527,0.019948,-0.403136,0.323038,0.0,2.0,48.0,161.0,28.0,0.0
69031,0.230515,-1.409109,1.333211,-0.011399,-0.297962,0.234563,0.0,2.0,48.0,161.0,28.0,0.0
69032,0.24331,-1.416974,1.389309,-0.052149,-0.233188,0.17553,0.0,2.0,48.0,161.0,28.0,0.0
69033,0.275273,-1.425078,1.456618,-0.050568,-0.227134,0.15675,0.0,2.0,48.0,161.0,28.0,0.0
69034,0.320009,-1.432579,1.528025,0.026646,-0.029495,-0.004488000000000001,0.0,2.0,48.0,161.0,28.0,0.0
69035,0.354775,-1.44002,1.587336,0.150117,0.076761,-0.117497,0.0,2.0,48.0,161.0,28.0,0.0
69036,0.363757,-1.446079,1.6224690000000002,0.223227,0.115082,-0.180748,0.0,2.0,48.0,161.0,28.0,0.0
69037,0.346681,-1.446124,1.634632,0.409544,0.16283699999999998,-0.290356,0.0,2.0,48.0,161.0,28.0,0.0
69038,0.335497,-1.437468,1.653331,0.447166,0.034922,-0.27384899999999995,0.0,2.0,48.0,161.0,28.0,0.0
69039,0.368306,-1.426629,1.71345,0.441756,-0.01755,-0.232224,0.0,2.0,48.0,161.0,28.0,0.0
69040,0.452162,-1.4199190000000002,1.825289,0.395129,-0.195915,-0.044898,0.0,2.0,48.0,161.0,28.0,0.0
69041,0.493271,-1.414191,1.902316,0.241898,0.194672,0.17036600000000002,0.0,2.0,48.0,161.0,28.0,0.0
69042,0.510313,-1.409917,1.961212,0.108524,0.624012,0.401882,0.0,2.0,48.0,161.0,28.0,0.0
69043,0.511283,-1.411182,1.999968,-0.020105,1.105042,0.351538,0.0,2.0,48.0,161.0,28.0,0.0
69044,0.448143,-1.419335,1.972807,-0.114939,0.429036,0.239929,0.0,2.0,48.0,161.0,28.0,0.0
69045,0.34828400000000004,-1.42984,1.900632,-0.024895,-0.388779,0.163609,0.0,2.0,48.0,161.0,28.0,0.0
69046,0.234422,-1.431101,1.805682,0.148634,-0.473108,0.166894,0.0,2.0,48.0,161.0,28.0,0.0
69047,0.173957,-1.426481,1.761957,0.364396,-0.33015,0.225947,0.0,2.0,48.0,161.0,28.0,0.0
69048,0.184463,-1.429732,1.792832,0.524786,0.074371,0.143566,0.0,2.0,48.0,161.0,28.0,0.0
69049,0.25516,-1.441418,1.889352,0.561012,0.281933,0.074252,0.0,2.0,48.0,161.0,28.0,0.0
69050,0.379145,-1.458756,2.042365,0.346146,0.087416,0.047108,0.0,2.0,48.0,161.0,28.0,0.0
69051,0.547138,-1.475886,2.242027,0.164072,-0.040223,0.06183200000000001,0.0,2.0,48.0,161.0,28.0,0.0
69052,0.7356090000000001,-1.490116,2.462844,0.069341,-0.077176,0.097918,0.0,2.0,48.0,161.0,28.0,0.0
69053,0.963428,-1.501325,2.722116,0.026644,-0.113921,0.129328,0.0,2.0,48.0,161.0,28.0,0.0
69054,1.266106,-1.506074,3.0546990000000003,-0.010768000000000002,-0.199322,0.12964,0.0,2.0,48.0,161.0,28.0,0.0
69055,1.590601,-1.506223,-2.876156,0.026947,-0.160361,0.100424,0.0,2.0,48.0,161.0,28.0,0.0
69056,1.899012,-1.503925,-2.541457,0.102251,-0.071373,0.018843,0.0,2.0,48.0,161.0,28.0,0.0
69057,2.145008,-1.499931,-2.270505,0.164701,-0.106285,-0.024276,0.0,2.0,48.0,161.0,28.0,0.0
69058,2.312017,-1.496136,-2.07995,0.180213,-0.212546,-0.015648,0.0,2.0,48.0,161.0,28.0,0.0
69059,2.433782,-1.492038,-1.936376,0.100928,-0.256132,-0.008579999999999999,0.0,2.0,48.0,161.0,28.0,0.0
69060,2.541555,-1.486486,-1.809614,0.10202,-0.216205,-0.020865,0.0,2.0,48.0,161.0,28.0,0.0
69061,2.645807,-1.479609,-1.6902009999999998,0.101163,-0.06412799999999999,-0.121183,0.0,2.0,48.0,161.0,28.0,0.0
69062,2.738296,-1.4717790000000002,-1.587132,0.115217,-0.025238,-0.167001,0.0,2.0,48.0,161.0,28.0,0.0
69063,2.81243,-1.465796,-1.507175,0.210904,0.05136,-0.13969,0.0,2.0,48.0,161.0,28.0,0.0
69064,2.882126,-1.462607,-1.436272,0.4409520000000001,-0.027967,-0.102836,0.0,2.0,48.0,161.0,28.0,0.0
69065,2.931405,-1.45614,-1.383341,0.455144,-0.027171,-0.13353900000000002,0.0,2.0,48.0,161.0,28.0,0.0
69066,2.95378,-1.44616,-1.3510030000000002,0.376975,0.020849,-0.163847,0.0,2.0,48.0,161.0,28.0,0.0
69067,2.964087,-1.435541,-1.328961,0.31595,0.071099,-0.163491,0.0,2.0,48.0,161.0,28.0,0.0
69068,2.963992,-1.427908,-1.3181120000000002,0.354854,0.135588,-0.156832,0.0,2.0,48.0,161.0,28.0,0.0
69069,2.930317,-1.427215,-1.341343,0.296707,0.188726,-0.150566,0.0,2.0,48.0,161.0,28.0,0.0
69070,2.84671,-1.435082,-1.414288,0.247007,0.163828,0.199653,0.0,2.0,48.0,161.0,28.0,0.0
69071,2.685833,-1.4493049999999998,-1.5576450000000002,0.22335,0.180162,0.247602,0.0,2.0,48.0,161.0,28.0,0.0
69072,2.408989,-1.459757,-1.803888,0.170778,0.160287,0.227774,0.0,2.0,48.0,161.0,28.0,0.0
69073,2.061824,-1.459594,-2.114824,0.0034340000000000004,0.238049,0.159683,0.0,2.0,48.0,161.0,28.0,0.0
69074,1.764075,-1.450898,-2.378517,0.025416,0.283821,0.130216,0.0,2.0,48.0,161.0,28.0,0.0
69075,1.546661,-1.437037,-2.568084,0.092618,0.285635,0.096754,0.0,2.0,48.0,161.0,28.0,0.0
69076,1.381436,-1.420285,-2.704812,0.14133900000000002,0.348967,0.08366900000000001,0.0,2.0,48.0,161.0,28.0,0.0
69077,1.255789,-1.402353,-2.79955,0.079533,0.27021100000000003,0.071297,0.0,2.0,48.0,161.0,28.0,0.0
69078,1.164351,-1.382227,-2.861992,0.120182,0.182491,0.036411,0.0,2.0,48.0,161.0,28.0,0.0
69079,1.105428,-1.363487,-2.887568,0.041299,0.099186,0.019312,0.0,2.0,48.0,161.0,28.0,0.0
69080,1.045341,-1.349854,-2.906047,0.052389,0.159685,0.032174,0.0,2.0,48.0,161.0,28.0,0.0
69081,0.988416,-1.338785,-2.918492,0.05929400000000001,0.071792,0.125146,0.0,2.0,48.0,161.0,28.0,0.0
69082,0.954293,-1.328416,-2.908677,0.031907,-0.051534,0.111694,0.0,2.0,48.0,161.0,28.0,0.0
69083,0.947652,-1.317826,-2.87469,-0.036372,-0.26633,0.044398,0.0,2.0,48.0,161.0,28.0,0.0
69084,0.945861,-1.309685,-2.838641,-0.076416,-0.437509,0.019141,0.0,2.0,48.0,161.0,28.0,0.0
69085,0.93037,-1.305614,-2.81848,-0.10421099999999997,-0.44768,0.062175,0.0,2.0,48.0,161.0,28.0,0.0
69086,0.907808,-1.305369,-2.805956,-0.137158,-0.467574,0.132177,0.0,2.0,48.0,161.0,28.0,0.0
69087,0.900842,-1.306777,-2.780873,-0.151869,-0.529161,0.127366,0.0,2.0,48.0,161.0,28.0,0.0
69088,0.920454,-1.310507,-2.734773,-0.190958,-0.59809,0.139148,0.0,2.0,48.0,161.0,28.0,0.0
69089,0.965891,-1.3161770000000002,-2.6694150000000003,-0.172241,-0.6370100000000001,0.083215,0.0,2.0,48.0,161.0,28.0,0.0
69090,1.031633,-1.322866,-2.587675,-0.151259,-0.659013,0.046332,0.0,2.0,48.0,161.0,28.0,0.0
69091,1.106315,-1.328365,-2.499017,-0.097486,-0.697091,-0.032514999999999995,0.0,2.0,48.0,161.0,28.0,0.0
69092,1.175513,-1.331104,-2.416926,-0.086388,-0.596854,-0.09104,0.0,2.0,48.0,161.0,28.0,0.0
69093,1.22894,-1.331055,-2.350671,-0.057646,-0.341456,-0.108179,0.0,2.0,48.0,161.0,28.0,0.0
69094,1.26469,-1.328424,-2.302433,0.010793,0.0485,-0.086906,0.0,2.0,48.0,161.0,28.0,0.0
69095,1.296983,-1.323175,-2.260216,0.096753,0.29299899999999995,-0.032866,0.0,2.0,48.0,161.0,28.0,0.0
69096,1.343307,-1.314923,-2.208518,0.062653,0.12585,-0.091911,0.0,2.0,48.0,161.0,28.0,0.0
69097,1.400584,-1.306184,-2.1503520000000003,0.009155,-0.022659,-0.093503,0.0,2.0,48.0,161.0,28.0,0.0
69098,1.456741,-1.298586,-2.095586,-0.078955,0.13997,0.012561,0.0,2.0,48.0,161.0,28.0,0.0
69099,1.468519,-1.295181,-2.078412,-0.104149,0.5316390000000001,0.053326,0.0,2.0,48.0,161.0,28.0,0.0
69100,1.420972,-1.295902,-2.111356,0.014955,0.842676,0.28389200000000003,0.0,2.0,48.0,161.0,28.0,0.0
69101,1.36897,-1.30553,-2.146846,-0.024679,1.1720780000000002,0.4335770000000001,0.0,2.0,48.0,161.0,28.0,0.0
69102,1.279926,-1.319223,-2.216351,0.201245,1.002028,0.401873,0.0,2.0,48.0,161.0,28.0,0.0
69103,1.240293,-1.329653,-2.252213,0.348961,0.173939,0.06311900000000001,0.0,2.0,48.0,161.0,28.0,0.0
69104,1.248677,-1.328957,-2.254294,0.16288,0.006456999999999999,-0.182918,0.0,2.0,48.0,161.0,28.0,0.0
69105,1.28069,-1.317057,-2.2307240000000004,-0.006811,-0.002557,-0.292854,0.0,2.0,48.0,161.0,28.0,0.0
69106,1.297836,-1.300846,-2.218683,-0.140273,-0.054070000000000014,-0.227673,0.0,2.0,48.0,161.0,28.0,0.0
69107,1.297685,-1.292024,-2.22115,-0.078815,-0.047347,0.033507,0.0,2.0,48.0,161.0,28.0,0.0
69108,1.318616,-1.296133,-2.202944,0.057215,-0.0261,0.06091,0.0,2.0,48.0,161.0,28.0,0.0
69109,1.373927,-1.306505,-2.156843,0.143348,-0.128959,-0.042537,0.0,2.0,48.0,161.0,28.0,0.0
69110,1.439797,-1.314966,-2.105568,0.17442,-0.125153,-0.096877,0.0,2.0,48.0,161.0,28.0,0.0
69111,1.495688,-1.316837,-2.059126,0.237471,-0.279266,-0.13936800000000002,0.0,2.0,48.0,161.0,28.0,0.0
69112,1.529441,-1.313172,-2.024832,0.096792,-0.431186,-0.080959,0.0,2.0,48.0,161.0,28.0,0.0
69113,1.553683,-1.307493,-1.990797,-0.025774,-0.493062,-0.057878999999999986,0.0,2.0,48.0,161.0,28.0,0.0
69114,1.563916,-1.304118,-1.975024,-0.25190300000000004,-0.596137,-0.13658399999999998,0.0,2.0,48.0,161.0,28.0,0.0
69115,1.5485870000000002,-1.304459,-1.995765,-0.105412,-0.447423,-0.101226,0.0,2.0,48.0,161.0,28.0,0.0
69116,1.511932,-1.306926,-2.042224,0.12909,-0.226435,0.029518,0.0,2.0,48.0,161.0,28.0,0.0
69117,1.457781,-1.310576,-2.100739,0.195146,-0.147119,0.08911799999999999,0.0,2.0,48.0,161.0,28.0,0.0
69118,1.389681,-1.3114370000000002,-2.167599,0.024809,-0.169054,0.110355,0.0,2.0,48.0,161.0,28.0,0.0
69119,1.308427,-1.305689,-2.243837,-0.140874,-0.021858,0.100866,0.0,2.0,48.0,161.0,28.0,0.0
69120,1.214486,-1.289496,-2.323387,-0.196109,0.251646,0.038233,0.0,2.0,48.0,161.0,28.0,0.0
69121,1.119877,-1.261839,-2.401108,-0.010551,0.413712,-0.100896,0.0,2.0,48.0,161.0,28.0,0.0
69122,1.0441280000000002,-1.229891,-2.466859,0.064862,0.461356,-0.160212,0.0,2.0,48.0,161.0,28.0,0.0
69123,0.981699,-1.206465,-2.527463,0.247495,0.716623,-0.391278,0.0,2.0,48.0,161.0,28.0,0.0
69124,0.929471,-1.192272,-2.580665,0.300644,0.859043,-0.252234,0.0,2.0,48.0,161.0,28.0,0.0
69125,0.904199,-1.1759110000000002,-2.603207,0.067289,0.704691,-0.171807,0.0,2.0,48.0,161.0,28.0,0.0
69126,0.905525,-1.161689,-2.593075,-0.07964600000000001,0.386769,-0.035223000000000004,0.0,2.0,48.0,161.0,28.0,0.0
69127,0.93236,-1.156139,-2.555689,-0.15771,-0.137072,-0.06377999999999999,0.0,2.0,48.0,161.0,28.0,0.0
69128,0.975388,-1.159139,-2.503989,-0.198789,-0.29477,-0.088477,0.0,2.0,48.0,161.0,28.0,0.0
69129,1.017407,-1.168434,-2.456306,-0.15950699999999998,-0.5374180000000001,-0.075323,0.0,2.0,48.0,161.0,28.0,0.0
69130,1.055469,-1.182342,-2.411893,-0.192992,-0.560872,-0.025719,0.0,2.0,48.0,161.0,28.0,0.0
69131,1.094042,-1.197619,-2.367253,-0.202816,-0.624228,-0.017929,0.0,2.0,48.0,161.0,28.0,0.0
69132,1.133745,-1.211203,-2.324757,-0.245165,-0.731252,-0.001924,0.0,2.0,48.0,161.0,28.0,0.0
69133,1.177856,-1.225724,-2.28099,-0.242601,-0.531215,-0.005095000000000001,0.0,2.0,48.0,161.0,28.0,0.0
69134,1.231119,-1.241769,-2.226515,-0.217518,-0.399421,-0.053769,0.0,2.0,48.0,161.0,28.0,0.0
69135,1.283571,-1.2538129999999998,-2.169607,-0.101651,0.12779200000000002,-0.103917,0.0,2.0,48.0,161.0,28.0,0.0
69136,1.337141,-1.260326,-2.111095,-0.111748,0.07278899999999999,-0.07998,0.0,2.0,48.0,161.0,28.0,0.0
69137,1.393983,-1.261428,-2.055894,-0.134745,0.018299,-0.195734,0.0,2.0,48.0,161.0,28.0,0.0
69138,1.436806,-1.257268,-2.022175,-0.110705,0.085477,-0.203399,0.0,2.0,48.0,161.0,28.0,0.0
69139,1.434421,-1.249201,-2.032555,-0.113591,0.505842,-0.011336,0.0,2.0,48.0,161.0,28.0,0.0
69140,1.3983139999999998,-1.2425700000000002,-2.074448,-0.04294,0.904001,0.215725,0.0,2.0,48.0,161.0,28.0,0.0
69141,1.375289,-1.242951,-2.102426,-0.099409,0.772256,0.303533,0.0,2.0,48.0,161.0,28.0,0.0
69142,1.352578,-1.249153,-2.130424,0.314372,0.5676859999999999,0.080367,0.0,2.0,48.0,161.0,28.0,0.0
69143,1.330605,-1.251018,-2.161971,0.566204,0.277074,-0.115911,0.0,2.0,48.0,161.0,28.0,0.0
69144,1.307538,-1.248503,-2.1925,0.495729,0.13915,-0.203849,0.0,2.0,48.0,161.0,28.0,0.0
69145,1.290934,-1.241932,-2.210312,-0.06388300000000001,-0.046263,-0.375789,0.0,2.0,48.0,161.0,28.0,0.0
69146,1.280517,-1.234541,-2.223471,-0.208165,0.07046799999999999,-0.171098,0.0,2.0,48.0,161.0,28.0,0.0
69147,1.283578,-1.232974,-2.2259330000000004,-0.06764400000000001,0.200946,-0.10411199999999997,0.0,2.0,48.0,161.0,28.0,0.0
69148,1.305601,-1.237296,-2.213931,0.217432,0.052305,0.027551,0.0,2.0,48.0,161.0,28.0,0.0
69149,1.340851,-1.244419,-2.188365,0.200078,-0.287527,0.044172,0.0,2.0,48.0,161.0,28.0,0.0
69150,1.382468,-1.249637,-2.1480810000000004,0.153248,-0.30794,0.037825,0.0,2.0,48.0,161.0,28.0,0.0
69151,1.414973,-1.251571,-2.109016,0.005128,-0.313447,0.008342,0.0,2.0,48.0,161.0,28.0,0.0
69152,1.433133,-1.253414,-2.078818,-0.141036,-0.23087800000000006,-0.127998,0.0,2.0,48.0,161.0,28.0,0.0
69153,1.427441,-1.257577,-2.072827,-0.102202,-0.155433,-0.13811099999999998,0.0,2.0,48.0,161.0,28.0,0.0
69154,1.413422,-1.26346,-2.08398,-0.096571,-0.22481,-0.14213499999999998,0.0,2.0,48.0,161.0,28.0,0.0
69155,1.398404,-1.268911,-2.107397,-0.049519,-0.32111100000000004,-0.097469,0.0,2.0,48.0,161.0,28.0,0.0
69156,1.372647,-1.272166,-2.14127,0.024948,-0.364142,-0.048395,0.0,2.0,48.0,161.0,28.0,0.0
69157,1.33824,-1.2725540000000002,-2.178588,0.099403,-0.297209,-0.043338,0.0,2.0,48.0,161.0,28.0,0.0
69158,1.293941,-1.270856,-2.221991,0.142625,-0.171907,-0.08742799999999999,0.0,2.0,48.0,161.0,28.0,0.0
69159,1.241266,-1.26752,-2.2725880000000003,0.105376,-0.103853,0.018054,0.0,2.0,48.0,161.0,28.0,0.0
69160,1.1818229999999998,-1.261853,-2.323383,-0.01782,-0.033008,0.07369099999999999,0.0,2.0,48.0,161.0,28.0,0.0
69161,1.113947,-1.252207,-2.374108,-0.109704,0.170927,0.113201,0.0,2.0,48.0,161.0,28.0,0.0
69162,1.046296,-1.236686,-2.420542,-0.039129,0.378708,0.033247000000000006,0.0,2.0,48.0,161.0,28.0,0.0
69163,0.986986,-1.216628,-2.4663060000000003,-0.043294,0.513313,-0.123723,0.0,2.0,48.0,161.0,28.0,0.0
69164,0.938767,-1.196186,-2.511947,-0.078452,0.530592,-0.197347,0.0,2.0,48.0,161.0,28.0,0.0
69165,0.908598,-1.181031,-2.545499,0.029876,0.575246,-0.08828,0.0,2.0,48.0,161.0,28.0,0.0
69166,0.895008,-1.171807,-2.560072,0.186132,0.481943,-0.079696,0.0,2.0,48.0,161.0,28.0,0.0
69167,0.8986649999999999,-1.167346,-2.55309,0.055415,0.271008,-0.06793400000000001,0.0,2.0,48.0,161.0,28.0,0.0
69168,0.920506,-1.166959,-2.5247900000000003,-0.043975,0.104686,-0.071922,0.0,2.0,48.0,161.0,28.0,0.0
69169,0.957834,-1.170751,-2.481831,-0.15415,-0.088249,-0.116209,0.0,2.0,48.0,161.0,28.0,0.0
69170,0.998165,-1.177148,-2.437081,-0.205528,-0.25045100000000003,-0.07486,0.0,2.0,48.0,161.0,28.0,0.0
69171,1.03394,-1.1868,-2.396672,-0.222123,-0.422612,0.015369,0.0,2.0,48.0,161.0,28.0,0.0
69172,1.072164,-1.201365,-2.355188,-0.167509,-0.68003,0.035771,0.0,2.0,48.0,161.0,28.0,0.0
69173,1.119012,-1.219425,-2.3067740000000003,-0.13231800000000002,-0.721067,-0.009123,0.0,2.0,48.0,161.0,28.0,0.0
69174,1.176126,-1.237632,-2.248228,-0.125716,-0.620412,-0.107826,0.0,2.0,48.0,161.0,28.0,0.0
69175,1.23369,-1.2524879999999998,-2.187488,-0.14937899999999998,-0.298948,-0.14022,0.0,2.0,48.0,161.0,28.0,0.0
69176,1.281765,-1.259732,-2.134563,-0.13436199999999998,-0.11424,-0.170656,0.0,2.0,48.0,161.0,28.0,0.0
69177,1.320628,-1.259266,-2.093491,-0.140157,-0.031288,-0.176013,0.0,2.0,48.0,161.0,28.0,0.0
69178,1.355074,-1.256,-2.061748,-0.105865,-0.06479700000000001,-0.169095,0.0,2.0,48.0,161.0,28.0,0.0
69179,1.391405,-1.251549,-2.03291,-0.070471,-0.060113,-0.195361,0.0,2.0,48.0,161.0,28.0,0.0
69180,1.398679,-1.244808,-2.03248,-0.130131,0.498283,-0.062358,0.0,2.0,48.0,161.0,28.0,0.0
69181,1.371828,-1.235257,-2.064929,0.006795000000000001,0.668988,0.253939,0.0,2.0,48.0,161.0,28.0,0.0
69182,1.349484,-1.230112,-2.095785,0.047524,0.4870850000000001,0.209831,0.0,2.0,48.0,161.0,28.0,0.0
69183,1.339487,-1.231358,-2.110069,0.172875,0.455099,0.059878,0.0,2.0,48.0,161.0,28.0,0.0
69184,1.3118459999999998,-1.228469,-2.132989,0.585517,0.745783,0.058378999999999986,0.0,2.0,48.0,161.0,28.0,0.0
69185,1.297399,-1.2259790000000002,-2.140993,0.328172,0.022501,-0.14598,0.0,2.0,48.0,161.0,28.0,0.0
69186,1.294029,-1.222353,-2.13853,0.171284,0.011953,-0.239228,0.0,2.0,48.0,161.0,28.0,0.0
69187,1.295723,-1.214185,-2.134823,-0.237831,0.069064,-0.254868,0.0,2.0,48.0,161.0,28.0,0.0
69188,1.301423,-1.2052459999999998,-2.135205,-0.091246,0.126681,-0.054669,0.0,2.0,48.0,161.0,28.0,0.0
69189,1.322666,-1.203677,-2.1246970000000003,0.010692,0.106811,0.010036,0.0,2.0,48.0,161.0,28.0,0.0
69190,1.358783,-1.209126,-2.098587,0.14218499999999998,-0.136571,0.036551,0.0,2.0,48.0,161.0,28.0,0.0
69191,1.396823,-1.215837,-2.064683,0.136349,-0.171837,0.061653,0.0,2.0,48.0,161.0,28.0,0.0
69192,1.433335,-1.219257,-2.025555,0.086627,-0.206147,0.036654,0.0,2.0,48.0,161.0,28.0,0.0
69193,1.455471,-1.220595,-1.99713,-0.198319,-0.247958,-0.14311,0.0,2.0,48.0,161.0,28.0,0.0
69194,1.45177,-1.223222,-1.998031,-0.30395,-0.330354,-0.09455,0.0,2.0,48.0,161.0,28.0,0.0
69195,1.434994,-1.229515,-2.022364,-0.212653,-0.383641,-0.076241,0.0,2.0,48.0,161.0,28.0,0.0
69196,1.415493,-1.236512,-2.057902,-0.081831,-0.426625,-0.044148,0.0,2.0,48.0,161.0,28.0,0.0
69197,1.393193,-1.241385,-2.098287,0.144558,-0.280858,-0.101956,0.0,2.0,48.0,161.0,28.0,0.0
69198,1.361218,-1.242849,-2.146675,0.224425,-0.226002,-0.076043,0.0,2.0,48.0,161.0,28.0,0.0
69199,1.321067,-1.2413809999999998,-2.196927,0.269983,-0.262791,-0.007871,0.0,2.0,48.0,161.0,28.0,0.0
69200,1.276598,-1.237294,-2.242149,0.135214,-0.293733,0.031473,0.0,2.0,48.0,161.0,28.0,0.0
69201,1.224272,-1.229668,-2.285914,0.041125,-0.086756,0.094438,0.0,2.0,48.0,161.0,28.0,0.0
69202,1.165664,-1.216246,-2.328332,-0.076467,0.214923,0.084566,0.0,2.0,48.0,161.0,28.0,0.0
69203,1.105867,-1.19534,-2.370306,-0.097948,0.4971350000000001,-0.017937,0.0,2.0,48.0,161.0,28.0,0.0
69204,1.050704,-1.169602,-2.413799,-0.09569,0.677,-0.17138299999999998,0.0,2.0,48.0,161.0,28.0,0.0
69205,1.00396,-1.14589,-2.459671,-0.104223,0.626063,-0.218424,0.0,2.0,48.0,161.0,28.0,0.0
69206,0.971221,-1.132319,-2.496673,-0.026401,0.490948,-0.246591,0.0,2.0,48.0,161.0,28.0,0.0
69207,0.945972,-1.125795,-2.519767,0.217346,0.62098,-0.175927,0.0,2.0,48.0,161.0,28.0,0.0
69208,0.935287,-1.121309,-2.520805,0.08022,0.472194,-0.187831,0.0,2.0,48.0,161.0,28.0,0.0
69209,0.936523,-1.121328,-2.505172,0.009115,0.074404,-0.245875,0.0,2.0,48.0,161.0,28.0,0.0
69210,0.939969,-1.132083,-2.482786,-0.049312,-0.245387,-0.222645,0.0,2.0,48.0,161.0,28.0,0.0
69211,0.945328,-1.149743,-2.45728,-0.162314,-0.316834,-0.13359,0.0,2.0,48.0,161.0,28.0,0.0
69212,0.961442,-1.167558,-2.425967,-0.167298,-0.316279,-0.015276,0.0,2.0,48.0,161.0,28.0,0.0
69213,0.9903,-1.182093,-2.387576,-0.178955,-0.306062,0.000493,0.0,2.0,48.0,161.0,28.0,0.0
69214,1.028663,-1.195603,-2.344709,-0.20281,-0.39258,0.001691,0.0,2.0,48.0,161.0,28.0,0.0
69215,1.073326,-1.210415,-2.298957,-0.199951,-0.398516,-0.021336,0.0,2.0,48.0,161.0,28.0,0.0
69216,1.121634,-1.227615,-2.249495,-0.194894,-0.45916,-0.041402,0.0,2.0,48.0,161.0,28.0,0.0
69217,1.176345,-1.242881,-2.193246,-0.194721,-0.462676,-0.073149,0.0,2.0,48.0,161.0,28.0,0.0
69218,1.232594,-1.252379,-2.134609,-0.13130999999999998,-0.27299,-0.12725899999999998,0.0,2.0,48.0,161.0,28.0,0.0
69219,1.283827,-1.254815,-2.082378,-0.160191,-0.13166,-0.172562,0.0,2.0,48.0,161.0,28.0,0.0
69220,1.328074,-1.250783,-2.040338,-0.208568,-0.112165,-0.12881900000000002,0.0,2.0,48.0,161.0,28.0,0.0
69221,1.367108,-1.243704,-2.005317,-0.20843000000000006,-0.116124,-0.122466,0.0,2.0,48.0,161.0,28.0,0.0
69222,1.373839,-1.237341,-1.99797,-0.218212,0.49771,0.049093,0.0,2.0,48.0,161.0,28.0,0.0
69223,1.33776,-1.230642,-2.028635,-0.086149,0.979569,0.336091,0.0,2.0,48.0,161.0,28.0,0.0
69224,1.300215,-1.228548,-2.070695,-0.075775,0.1855,0.228296,0.0,2.0,48.0,161.0,28.0,0.0
69225,1.299252,-1.229199,-2.085159,0.117758,0.584604,-0.135846,0.0,2.0,48.0,161.0,28.0,0.0
69226,1.275191,-1.22175,-2.118792,0.544505,1.265425,0.020892,0.0,2.0,48.0,161.0,28.0,0.0
69227,1.264214,-1.216638,-2.135984,0.354184,0.030338,-0.130416,0.0,2.0,48.0,161.0,28.0,0.0
69228,1.261361,-1.214836,-2.142373,0.08067300000000001,-0.07927999999999999,-0.190391,0.0,2.0,48.0,161.0,28.0,0.0
69229,1.266216,-1.210426,-2.145115,-0.059414,-0.078222,-0.169372,0.0,2.0,48.0,161.0,28.0,0.0
69230,1.285187,-1.203656,-2.133461,0.01863,0.173469,-0.071572,0.0,2.0,48.0,161.0,28.0,0.0
69231,1.31505,-1.200507,-2.112545,0.041837,0.13394,0.025044,0.0,2.0,48.0,161.0,28.0,0.0
69232,1.351854,-1.205059,-2.085646,0.10398,0.011788,0.004417,0.0,2.0,48.0,161.0,28.0,0.0
69233,1.388549,-1.2142540000000002,-2.054346,0.13431600000000002,-0.170798,0.007423999999999998,0.0,2.0,48.0,161.0,28.0,0.0
69234,1.420302,-1.222259,-2.024542,0.08520599999999999,-0.188332,-0.020409,0.0,2.0,48.0,161.0,28.0,0.0
69235,1.440877,-1.226334,-2.006303,-0.138154,-0.330509,-0.15373199999999998,0.0,2.0,48.0,161.0,28.0,0.0
69236,1.442166,-1.230274,-2.005545,-0.165491,-0.335357,-0.110283,0.0,2.0,48.0,161.0,28.0,0.0
69237,1.432579,-1.236653,-2.016319,-0.157546,-0.317601,-0.059722,0.0,2.0,48.0,161.0,28.0,0.0
69238,1.418214,-1.244314,-2.036832,-0.070216,-0.280978,-0.117914,0.0,2.0,48.0,161.0,28.0,0.0
69239,1.394729,-1.251688,-2.07223,0.062245,-0.255073,-0.081833,0.0,2.0,48.0,161.0,28.0,0.0
69240,1.361964,-1.258749,-2.119756,0.127219,-0.233827,-0.04387,0.0,2.0,48.0,161.0,28.0,0.0
69241,1.322437,-1.264078,-2.170665,0.183504,-0.236838,0.008020999999999999,0.0,2.0,48.0,161.0,28.0,0.0
69242,1.273836,-1.265215,-2.226225,0.142303,-0.262953,-0.07596,0.0,2.0,48.0,161.0,28.0,0.0
69243,1.218768,-1.261961,-2.284439,0.14751,-0.10314,-0.118242,0.0,2.0,48.0,161.0,28.0,0.0
69244,1.157337,-1.254459,-2.338829,0.125377,0.08253200000000001,0.062053,0.0,2.0,48.0,161.0,28.0,0.0
69245,1.091896,-1.239575,-2.385142,-0.094979,0.29201,0.08951100000000001,0.0,2.0,48.0,161.0,28.0,0.0
69246,1.024406,-1.217722,-2.430055,-0.117157,0.412211,0.058401,0.0,2.0,48.0,161.0,28.0,0.0
69247,0.965987,-1.193476,-2.475784,-0.106667,0.499498,-0.105581,0.0,2.0,48.0,161.0,28.0,0.0
69248,0.922005,-1.172818,-2.5194970000000003,-0.08594500000000001,0.497099,-0.240096,0.0,2.0,48.0,161.0,28.0,0.0
69249,0.8971299999999999,-1.159269,-2.548319,-0.016837,0.529351,-0.132235,0.0,2.0,48.0,161.0,28.0,0.0
69250,0.891749,-1.149445,-2.555592,0.137553,0.542999,-0.180425,0.0,2.0,48.0,161.0,28.0,0.0
69251,0.900057,-1.140443,-2.545716,0.032313,0.043712,-0.116032,0.0,2.0,48.0,161.0,28.0,0.0
69252,0.922261,-1.13678,-2.519128,-0.014985,-0.147702,-0.13474,0.0,2.0,48.0,161.0,28.0,0.0
69253,0.946791,-1.142413,-2.4866900000000003,-0.05935,-0.32396,-0.16261199999999998,0.0,2.0,48.0,161.0,28.0,0.0
69254,0.969925,-1.152983,-2.453196,-0.10772,-0.393272,-0.051337,0.0,2.0,48.0,161.0,28.0,0.0
69255,1.002258,-1.166453,-2.412119,-0.15074300000000002,-0.414936,-0.019867,0.0,2.0,48.0,161.0,28.0,0.0
69256,1.045668,-1.180525,-2.362355,-0.230761,-0.388582,-0.032002,0.0,2.0,48.0,161.0,28.0,0.0
69257,1.09046,-1.1947139999999998,-2.313629,-0.245869,-0.479473,-0.012684,0.0,2.0,48.0,161.0,28.0,0.0
69258,1.131877,-1.210553,-2.267162,-0.20657,-0.368703,-8e-05,0.0,2.0,48.0,161.0,28.0,0.0
69259,1.173446,-1.227618,-2.218603,-0.16408499999999998,-0.29548,-0.032288,0.0,2.0,48.0,161.0,28.0,0.0
69260,1.22212,-1.24291,-2.161703,-0.166979,-0.119638,-0.037395,0.0,2.0,48.0,161.0,28.0,0.0
69261,1.280269,-1.251781,-2.097,-0.169747,-0.095175,-0.068687,0.0,2.0,48.0,161.0,28.0,0.0
69262,1.334975,-1.253607,-2.041256,-0.163138,-0.054959,-0.184701,0.0,2.0,48.0,161.0,28.0,0.0
69263,1.379436,-1.25177,-1.999878,-0.146275,-0.013643,-0.198636,0.0,2.0,48.0,161.0,28.0,0.0
69264,1.420933,-1.248395,-1.967045,-0.159557,-0.025473,-0.170959,0.0,2.0,48.0,161.0,28.0,0.0
69265,1.442776,-1.24845,-1.951645,-0.135027,0.860786,0.076667,0.0,2.0,48.0,161.0,28.0,0.0
69266,1.430432,-1.251381,-1.962382,-0.13175,0.8598610000000001,0.080153,0.0,2.0,48.0,161.0,28.0,0.0
69267,1.407151,-1.256239,-1.987393,-0.127814,0.709788,0.216311,0.0,2.0,48.0,161.0,28.0,0.0
69268,1.36659,-1.258595,-2.038378,0.077695,0.35972600000000005,0.151426,0.0,2.0,48.0,161.0,28.0,0.0
69269,1.323161,-1.255495,-2.092609,0.36504,0.461467,0.04059,0.0,2.0,48.0,161.0,28.0,0.0
69270,1.302003,-1.250684,-2.122016,0.584461,0.09885,-0.331874,0.0,2.0,48.0,161.0,28.0,0.0
69271,1.292715,-1.24244,-2.135425,0.215079,-0.162409,-0.339457,0.0,2.0,48.0,161.0,28.0,0.0
69272,1.281036,-1.230905,-2.146473,-0.109082,-0.143871,-0.15326900000000002,0.0,2.0,48.0,161.0,28.0,0.0
69273,1.288373,-1.221914,-2.136549,-0.062602,0.107455,-0.112165,0.0,2.0,48.0,161.0,28.0,0.0
69274,1.301713,-1.2179950000000002,-2.124204,0.060598,0.171318,0.081539,0.0,2.0,48.0,161.0,28.0,0.0
69275,1.3273,-1.221722,-2.104242,0.150057,0.057869,-0.024735,0.0,2.0,48.0,161.0,28.0,0.0
69276,1.354488,-1.22797,-2.082164,0.19204,-0.04157,-0.033845,0.0,2.0,48.0,161.0,28.0,0.0
69277,1.377606,-1.232173,-2.06009,0.136212,-0.104971,0.019493,0.0,2.0,48.0,161.0,28.0,0.0
69278,1.399119,-1.234089,-2.034897,-0.005256,-0.183548,-0.027837,0.0,2.0,48.0,161.0,28.0,0.0
69279,1.411946,-1.236417,-2.016554,-0.131803,-0.238422,-0.145752,0.0,2.0,48.0,161.0,28.0,0.0
69280,1.405738,-1.241483,-2.021157,-0.119822,-0.23429,-0.148694,0.0,2.0,48.0,161.0,28.0,0.0
69281,1.386286,-1.2485620000000002,-2.047205,-0.051542,-0.265288,-0.089775,0.0,2.0,48.0,161.0,28.0,0.0
69282,1.364974,-1.255771,-2.081909,-0.02313,-0.335264,-0.095128,0.0,2.0,48.0,161.0,28.0,0.0
69283,1.335927,-1.2610290000000002,-2.124131,0.046036,-0.32174400000000003,-0.07847799999999999,0.0,2.0,48.0,161.0,28.0,0.0
69284,1.295803,-1.263903,-2.1745810000000003,0.12955999999999998,-0.198241,-0.118352,0.0,2.0,48.0,161.0,28.0,0.0
69285,1.247099,-1.265548,-2.231223,0.194804,-0.07935199999999999,-0.044187,0.0,2.0,48.0,161.0,28.0,0.0
69286,1.197168,-1.266652,-2.284389,0.121442,-0.167879,0.06688,0.0,2.0,48.0,161.0,28.0,0.0
69287,1.14649,-1.265482,-2.3304400000000003,-0.093163,-0.217485,0.124642,0.0,2.0,48.0,161.0,28.0,0.0
69288,1.090569,-1.258263,-2.370485,-0.15525899999999998,-0.155278,0.09185,0.0,2.0,48.0,161.0,28.0,0.0
69289,1.02877,-1.242835,-2.410132,-0.212818,0.08843999999999999,0.053719,0.0,2.0,48.0,161.0,28.0,0.0
69290,0.97262,-1.218334,-2.447955,-0.084511,0.56828,-0.212484,0.0,2.0,48.0,161.0,28.0,0.0
69291,0.917565,-1.185887,-2.496584,-0.075567,0.700304,-0.198249,0.0,2.0,48.0,161.0,28.0,0.0
69292,0.8805629999999999,-1.157155,-2.541038,0.126776,0.470094,-0.164507,0.0,2.0,48.0,161.0,28.0,0.0
69293,0.860282,-1.139905,-2.568438,0.176042,0.706961,-0.16292,0.0,2.0,48.0,161.0,28.0,0.0
69294,0.856165,-1.128226,-2.5732150000000003,0.16100799999999998,0.519259,-0.121114,0.0,2.0,48.0,161.0,28.0,0.0
69295,0.868373,-1.123398,-2.5568720000000003,-0.06125,0.173009,-0.047973,0.0,2.0,48.0,161.0,28.0,0.0
69296,0.8946620000000001,-1.1274030000000002,-2.522896,-0.084203,-0.221294,-0.146795,0.0,2.0,48.0,161.0,28.0,0.0
69297,0.921183,-1.138496,-2.484182,-0.055082000000000006,-0.410141,-0.195943,0.0,2.0,48.0,161.0,28.0,0.0
69298,0.939423,-1.1524299999999998,-2.452566,-0.112864,-0.41914,-0.083479,0.0,2.0,48.0,161.0,28.0,0.0
69299,0.958281,-1.166316,-2.421439,-0.130472,-0.350551,0.016182,0.0,2.0,48.0,161.0,28.0,0.0
69300,0.990445,-1.178302,-2.379666,-0.154497,-0.35593400000000003,0.009418,0.0,2.0,48.0,161.0,28.0,0.0
69301,1.033245,-1.190049,-2.32981,-0.199271,-0.420681,-0.029867,0.0,2.0,48.0,161.0,28.0,0.0
69302,1.078368,-1.206457,-2.28005,-0.232255,-0.341647,-0.05289,0.0,2.0,48.0,161.0,28.0,0.0
69303,1.12343,-1.226876,-2.231943,-0.241619,-0.259097,-0.088201,0.0,2.0,48.0,161.0,28.0,0.0
69304,1.175982,-1.245845,-2.177977,-0.196432,-0.155415,-0.09582,0.0,2.0,48.0,161.0,28.0,0.0
69305,1.241696,-1.256102,-2.116522,-0.168032,0.016775,-0.179344,0.0,2.0,48.0,161.0,28.0,0.0
69306,1.306545,-1.256086,-2.063053,-0.154229,-0.003941,-0.183348,0.0,2.0,48.0,161.0,28.0,0.0
69307,1.355953,-1.250008,-2.030752,-0.134965,-0.076413,-0.16798,0.0,2.0,48.0,161.0,28.0,0.0
69308,1.371045,-1.243351,-2.028013,-0.118891,0.151796,-0.018354,0.0,2.0,48.0,161.0,28.0,0.0
69309,1.359431,-1.239208,-2.043927,-0.026411,0.668197,0.225047,0.0,2.0,48.0,161.0,28.0,0.0
69310,1.352908,-1.2404190000000002,-2.054522,0.053086,0.492022,0.076514,0.0,2.0,48.0,161.0,28.0,0.0
69311,1.361028,-1.245903,-2.052943,0.156971,0.489769,-0.02434,0.0,2.0,48.0,161.0,28.0,0.0
69312,1.3520299999999998,-1.246756,-2.07009,0.255234,0.455791,-0.060634,0.0,2.0,48.0,161.0,28.0,0.0
69313,1.345335,-1.241706,-2.085233,0.368106,0.323545,-0.080084,0.0,2.0,48.0,161.0,28.0,0.0
69314,1.354572,-1.238025,-2.08011,0.28725500000000004,0.295033,-0.132069,0.0,2.0,48.0,161.0,28.0,0.0
69315,1.369975,-1.233885,-2.068263,0.08152999999999999,0.188468,-0.188152,0.0,2.0,48.0,161.0,28.0,0.0
69316,1.381999,-1.228634,-2.065136,-0.004349,0.109497,-0.069327,0.0,2.0,48.0,161.0,28.0,0.0
69317,1.396327,-1.224355,-2.063232,-0.019195,0.095882,-0.022788,0.0,2.0,48.0,161.0,28.0,0.0
69318,1.421066,-1.222195,-2.053475,-0.042134,0.001448,0.049273,0.0,2.0,48.0,161.0,28.0,0.0
69319,1.450005,-1.224733,-2.0382290000000003,0.031839,-0.179195,0.030372000000000007,0.0,2.0,48.0,161.0,28.0,0.0
69320,1.476169,-1.230681,-2.021502,0.003564,-0.217863,0.006967,0.0,2.0,48.0,161.0,28.0,0.0
69321,1.500169,-1.238563,-2.003775,-0.021168,-0.244404,-0.010921,0.0,2.0,48.0,161.0,28.0,0.0
69322,1.51581,-1.247278,-1.995548,-0.082951,-0.354235,-0.106523,0.0,2.0,48.0,161.0,28.0,0.0
69323,1.51784,-1.256426,-2.002559,-0.06472699999999999,-0.402102,-0.13317,0.0,2.0,48.0,161.0,28.0,0.0
69324,1.510832,-1.266585,-2.020351,-0.026732,-0.435727,-0.130946,0.0,2.0,48.0,161.0,28.0,0.0
69325,1.499243,-1.2763,-2.043152,0.002639,-0.379769,-0.122424,0.0,2.0,48.0,161.0,28.0,0.0
69326,1.478498,-1.283625,-2.073027,0.027989,-0.333347,-0.121404,0.0,2.0,48.0,161.0,28.0,0.0
69327,1.440835,-1.288366,-2.115811,0.08061900000000001,-0.273323,-0.090687,0.0,2.0,48.0,161.0,28.0,0.0
69328,1.390508,-1.291948,-2.1680900000000003,0.197377,-0.173898,-0.084468,0.0,2.0,48.0,161.0,28.0,0.0
69329,1.336018,-1.294718,-2.222017,0.196801,-0.21497,-0.100215,0.0,2.0,48.0,161.0,28.0,0.0
69330,1.280742,-1.295672,-2.272052,0.163442,-0.238331,-0.12075,0.0,2.0,48.0,161.0,28.0,0.0
69331,1.221584,-1.294072,-2.319784,0.023046,-0.186092,-0.060276,0.0,2.0,48.0,161.0,28.0,0.0
69332,1.154644,-1.287426,-2.364847,-0.031892000000000004,-0.043309,-0.037605,0.0,2.0,48.0,161.0,28.0,0.0
69333,1.08257,-1.271587,-2.408651,0.028221,0.421124,0.044746,0.0,2.0,48.0,161.0,28.0,0.0
69334,1.020745,-1.2491450000000002,-2.445596,0.108184,0.617829,-0.121699,0.0,2.0,48.0,161.0,28.0,0.0
69335,0.962961,-1.227117,-2.485112,0.059612,0.563209,-0.187203,0.0,2.0,48.0,161.0,28.0,0.0
69336,0.919911,-1.2133200000000002,-2.516173,-0.00727,0.491699,-0.18438,0.0,2.0,48.0,161.0,28.0,0.0
69337,0.893036,-1.203735,-2.532403,-0.030015,0.601282,-0.1819,0.0,2.0,48.0,161.0,28.0,0.0
69338,0.880207,-1.192884,-2.533865,0.07774400000000001,0.630866,-0.112904,0.0,2.0,48.0,161.0,28.0,0.0
69339,0.8880239999999999,-1.183934,-2.516517,0.00949,0.358372,-0.129807,0.0,2.0,48.0,161.0,28.0,0.0
69340,0.912722,-1.18145,-2.483527,-0.049557,0.041594,-0.154744,0.0,2.0,48.0,161.0,28.0,0.0
69341,0.938453,-1.186293,-2.44821,-0.060052,-0.138731,-0.107154,0.0,2.0,48.0,161.0,28.0,0.0
69342,0.962775,-1.196404,-2.412649,-0.05,-0.299153,-0.00271,0.0,2.0,48.0,161.0,28.0,0.0
69343,0.992917,-1.210717,-2.371455,-0.086397,-0.4124310000000001,0.054812,0.0,2.0,48.0,161.0,28.0,0.0
69344,1.031895,-1.22803,-2.322541,-0.141702,-0.5163369999999999,0.06238,0.0,2.0,48.0,161.0,28.0,0.0
69345,1.0831879999999998,-1.248107,-2.263048,-0.204658,-0.568137,0.027319,0.0,2.0,48.0,161.0,28.0,0.0
69346,1.145711,-1.271241,-2.19346,-0.216843,-0.595162,0.005035,0.0,2.0,48.0,161.0,28.0,0.0
69347,1.21844,-1.293935,-2.114131,-0.22937800000000005,-0.50478,-0.042257,0.0,2.0,48.0,161.0,28.0,0.0
69348,1.291979,-1.310543,-2.034823,-0.203908,-0.396287,-0.128084,0.0,2.0,48.0,161.0,28.0,0.0
