index,attitude.roll,attitude.pitch,attitude.yaw,userAcceleration.x,userAcceleration.y,userAcceleration.z,act,id,weight,height,age,gender
709426,0.192289,-0.986789,-0.5911649999999999,-0.085076,-0.3369,0.32603000000000004,0.0,22.0,68.0,170.0,25.0,0.0
709427,0.2316,-1.017717,-0.560412,-0.051378,-0.594075,0.311974,0.0,22.0,68.0,170.0,25.0,0.0
709428,0.2628,-1.052084,-0.541212,0.006004,-0.821751,0.199078,0.0,22.0,68.0,170.0,25.0,0.0
709429,0.281468,-1.09282,-0.533778,0.028681,-1.017093,0.07175,0.0,22.0,68.0,170.0,25.0,0.0
709430,0.282379,-1.140456,-0.540327,0.0047740000000000005,-1.03445,0.048424,0.0,22.0,68.0,170.0,25.0,0.0
709431,0.263823,-1.187715,-0.563896,0.020768,-0.992062,-0.0043560000000000005,0.0,22.0,68.0,170.0,25.0,0.0
709432,0.229192,-1.230401,-0.605071,0.081026,-0.79359,-0.113729,0.0,22.0,68.0,170.0,25.0,0.0
709433,0.181301,-1.265934,-0.6607529999999999,0.025193,-0.33368000000000003,-0.07157899999999999,0.0,22.0,68.0,170.0,25.0,0.0
709434,0.139652,-1.293955,-0.71062,-0.005834000000000001,-0.154321,-0.050722,0.0,22.0,68.0,170.0,25.0,0.0
709435,0.118122,-1.310367,-0.740502,-0.214519,0.420104,0.126948,0.0,22.0,68.0,170.0,25.0,0.0
709436,0.136021,-1.309071,-0.729796,-0.647925,1.182615,0.132929,0.0,22.0,68.0,170.0,25.0,0.0
709437,0.190058,-1.312894,-0.6877800000000001,-0.8713489999999999,1.641243,-0.109571,0.0,22.0,68.0,170.0,25.0,0.0
709438,0.347408,-1.333689,-0.580627,-0.084793,-0.480887,0.235614,0.0,22.0,68.0,170.0,25.0,0.0
709439,0.507546,-1.344529,-0.471019,0.043261,-0.574547,0.5125430000000001,0.0,22.0,68.0,170.0,25.0,0.0
709440,0.570625,-1.340775,-0.442938,0.12686,-0.329039,0.214397,0.0,22.0,68.0,170.0,25.0,0.0
709441,0.524071,-1.314841,-0.518183,1.055898,3.836121,-0.679307,0.0,22.0,68.0,170.0,25.0,0.0
709442,0.513862,-1.285311,-0.5561119999999999,0.670484,0.373162,0.222318,0.0,22.0,68.0,170.0,25.0,0.0
709443,0.5185609999999999,-1.272898,-0.538618,0.151096,-0.546974,0.420116,0.0,22.0,68.0,170.0,25.0,0.0
709444,0.508948,-1.279785,-0.534415,0.192379,-0.364891,-0.181009,0.0,22.0,68.0,170.0,25.0,0.0
709445,0.492515,-1.300664,-0.535573,0.167397,0.116831,-0.030285000000000006,0.0,22.0,68.0,170.0,25.0,0.0
709446,0.507428,-1.32159,-0.511594,0.168406,0.183266,0.045469,0.0,22.0,68.0,170.0,25.0,0.0
709447,0.552321,-1.338404,-0.463927,0.07118300000000001,0.25114000000000003,0.248903,0.0,22.0,68.0,170.0,25.0,0.0
709448,0.603161,-1.351449,-0.421654,-0.16128599999999998,0.010838,0.193007,0.0,22.0,68.0,170.0,25.0,0.0
709449,0.645374,-1.362866,-0.392819,-0.196238,-0.09635,0.1044,0.0,22.0,68.0,170.0,25.0,0.0
709450,0.652071,-1.374067,-0.397353,-0.247169,-0.298842,-0.191946,0.0,22.0,68.0,170.0,25.0,0.0
709451,0.624326,-1.382425,-0.438848,-0.07775499999999999,-0.36172,-0.147596,0.0,22.0,68.0,170.0,25.0,0.0
709452,0.582387,-1.385749,-0.4986140000000001,0.020489,-0.388064,-0.107675,0.0,22.0,68.0,170.0,25.0,0.0
709453,0.55064,-1.383517,-0.5500550000000001,0.150704,-0.535249,-0.066065,0.0,22.0,68.0,170.0,25.0,0.0
709454,0.5436770000000001,-1.377706,-0.575257,0.164424,-0.476289,-0.072013,0.0,22.0,68.0,170.0,25.0,0.0
709455,0.546593,-1.368109,-0.583451,0.147931,-0.401297,-0.066278,0.0,22.0,68.0,170.0,25.0,0.0
709456,0.549313,-1.354426,-0.579697,0.231952,-0.122893,-0.038212,0.0,22.0,68.0,170.0,25.0,0.0
709457,0.546087,-1.33816,-0.566164,0.351596,-0.022806,-0.034523000000000005,0.0,22.0,68.0,170.0,25.0,0.0
709458,0.527668,-1.320508,-0.55874,0.525021,-0.068359,0.011022,0.0,22.0,68.0,170.0,25.0,0.0
709459,0.481874,-1.300287,-0.568905,0.45967,-0.273068,0.031563,0.0,22.0,68.0,170.0,25.0,0.0
709460,0.40602,-1.27216,-0.608031,0.280968,-0.177052,0.117222,0.0,22.0,68.0,170.0,25.0,0.0
709461,0.309948,-1.229862,-0.665337,0.070409,0.074906,0.132979,0.0,22.0,68.0,170.0,25.0,0.0
709462,0.209838,-1.16986,-0.720037,-0.128735,0.496922,0.017477,0.0,22.0,68.0,170.0,25.0,0.0
709463,0.1295,-1.096507,-0.755408,-0.335681,0.943329,-0.127074,0.0,22.0,68.0,170.0,25.0,0.0
709464,0.077196,-1.029407,-0.766251,-0.490242,1.017579,-0.048769,0.0,22.0,68.0,170.0,25.0,0.0
709465,0.055339,-0.981035,-0.758968,-0.48288,0.544842,0.078306,0.0,22.0,68.0,170.0,25.0,0.0
709466,0.051346,-0.945353,-0.748926,-0.233341,0.177852,-0.043199,0.0,22.0,68.0,170.0,25.0,0.0
709467,0.064887,-0.922301,-0.73814,-0.3603,0.240665,-0.29247,0.0,22.0,68.0,170.0,25.0,0.0
709468,0.087211,-0.912378,-0.724734,0.007436,0.523675,-0.22885300000000006,0.0,22.0,68.0,170.0,25.0,0.0
709469,0.113134,-0.913267,-0.706295,0.0042,0.144546,-0.043928,0.0,22.0,68.0,170.0,25.0,0.0
709470,0.150544,-0.927818,-0.67767,-0.101016,-0.013159,0.107601,0.0,22.0,68.0,170.0,25.0,0.0
709471,0.199811,-0.955652,-0.638442,-0.1484,-0.145013,0.257169,0.0,22.0,68.0,170.0,25.0,0.0
709472,0.252636,-0.991666,-0.5933039999999999,-0.087438,-0.373148,0.310044,0.0,22.0,68.0,170.0,25.0,0.0
709473,0.30101100000000003,-1.034004,-0.55238,-0.15044200000000002,-0.599618,0.191956,0.0,22.0,68.0,170.0,25.0,0.0
709474,0.340868,-1.086477,-0.517011,-0.135193,-0.791898,0.085698,0.0,22.0,68.0,170.0,25.0,0.0
709475,0.37215,-1.14718,-0.487236,0.001196,-0.920932,0.119616,0.0,22.0,68.0,170.0,25.0,0.0
709476,0.398557,-1.208203,-0.461898,0.03979,-0.921568,0.08027100000000001,0.0,22.0,68.0,170.0,25.0,0.0
709477,0.416804,-1.267209,-0.444992,0.074257,-0.7390760000000001,0.08887300000000001,0.0,22.0,68.0,170.0,25.0,0.0
709478,0.414862,-1.318106,-0.44147,0.00061,-0.211896,0.132381,0.0,22.0,68.0,170.0,25.0,0.0
709479,0.357431,-1.347376,-0.482872,-0.13808099999999998,0.298567,0.019483,0.0,22.0,68.0,170.0,25.0,0.0
709480,0.28703,-1.350456,-0.529265,-0.244997,0.33165700000000004,-0.071935,0.0,22.0,68.0,170.0,25.0,0.0
709481,0.261852,-1.34082,-0.535596,-0.324849,0.290702,-0.07008400000000001,0.0,22.0,68.0,170.0,25.0,0.0
709482,0.265044,-1.327041,-0.531986,-0.701237,0.25089,-0.216375,0.0,22.0,68.0,170.0,25.0,0.0
709483,0.30104200000000003,-1.317827,-0.515868,-0.8015369999999999,0.806454,-0.044027,0.0,22.0,68.0,170.0,25.0,0.0
709484,0.368458,-1.318311,-0.495649,-0.385234,0.357572,0.514112,0.0,22.0,68.0,170.0,25.0,0.0
709485,0.460661,-1.317454,-0.471332,0.175323,-0.112291,0.653622,0.0,22.0,68.0,170.0,25.0,0.0
709486,0.518709,-1.3125129999999998,-0.464541,0.416555,-0.267672,0.461264,0.0,22.0,68.0,170.0,25.0,0.0
709487,0.581343,-1.318092,-0.43771,0.721511,-0.08191799999999999,0.026349,0.0,22.0,68.0,170.0,25.0,0.0
709488,0.6322810000000001,-1.334277,-0.399751,0.527047,0.26926500000000003,-0.649998,0.0,22.0,68.0,170.0,25.0,0.0
709489,0.657568,-1.341026,-0.369373,1.160267,3.118932,-0.34328200000000003,0.0,22.0,68.0,170.0,25.0,0.0
709490,0.716147,-1.333195,-0.311105,0.42109,0.13106099999999998,0.236404,0.0,22.0,68.0,170.0,25.0,0.0
709491,0.8102050000000001,-1.325793,-0.209005,-0.041775,-0.352613,0.039141,0.0,22.0,68.0,170.0,25.0,0.0
709492,0.822192,-1.326063,-0.184298,-0.0173,-0.27807800000000005,-0.144704,0.0,22.0,68.0,170.0,25.0,0.0
709493,0.803409,-1.331872,-0.182977,0.08585,0.022304,0.104121,0.0,22.0,68.0,170.0,25.0,0.0
709494,0.786149,-1.337907,-0.175047,0.099685,0.11861,0.202835,0.0,22.0,68.0,170.0,25.0,0.0
709495,0.798528,-1.345271,-0.148637,-0.181135,-0.078711,0.141125,0.0,22.0,68.0,170.0,25.0,0.0
709496,0.831218,-1.352708,-0.111644,-0.283542,-0.180018,0.11407,0.0,22.0,68.0,170.0,25.0,0.0
709497,0.8729370000000001,-1.358855,-0.07005,-0.306734,-0.211923,0.089014,0.0,22.0,68.0,170.0,25.0,0.0
709498,0.908165,-1.3641299999999998,-0.037598,-0.246704,-0.310965,-0.050445,0.0,22.0,68.0,170.0,25.0,0.0
709499,0.917711,-1.367682,-0.03689,-0.105262,-0.391507,-0.093628,0.0,22.0,68.0,170.0,25.0,0.0
709500,0.8951469999999999,-1.366492,-0.078499,-0.046084,-0.444641,-0.110465,0.0,22.0,68.0,170.0,25.0,0.0
709501,0.846088,-1.3585459999999998,-0.149294,0.114329,-0.388128,-0.16609000000000002,0.0,22.0,68.0,170.0,25.0,0.0
709502,0.794693,-1.344875,-0.217482,0.235251,-0.001428,0.020792,0.0,22.0,68.0,170.0,25.0,0.0
709503,0.726568,-1.327508,-0.279548,0.278555,0.145034,0.060568,0.0,22.0,68.0,170.0,25.0,0.0
709504,0.655406,-1.306397,-0.326749,0.45132,0.169073,0.017241,0.0,22.0,68.0,170.0,25.0,0.0
709505,0.598333,-1.280708,-0.360836,0.4417140000000001,-0.07058400000000001,-0.067732,0.0,22.0,68.0,170.0,25.0,0.0
709506,0.529179,-1.2505879999999998,-0.410741,0.416874,-0.2879,0.0050490000000000005,0.0,22.0,68.0,170.0,25.0,0.0
709507,0.430681,-1.213014,-0.487069,0.251562,-0.246704,0.168667,0.0,22.0,68.0,170.0,25.0,0.0
709508,0.314103,-1.162427,-0.573751,0.044833,0.010361,0.059203,0.0,22.0,68.0,170.0,25.0,0.0
709509,0.20887600000000006,-1.095942,-0.647608,-0.180577,0.517089,-0.146967,0.0,22.0,68.0,170.0,25.0,0.0
709510,0.125591,-1.02937,-0.695937,-0.4779,1.106908,-0.103736,0.0,22.0,68.0,170.0,25.0,0.0
709511,0.07013899999999999,-0.976029,-0.723023,-0.536567,1.011519,0.270181,0.0,22.0,68.0,170.0,25.0,0.0
709512,0.044285000000000005,-0.937572,-0.730011,-0.327359,0.28112600000000004,0.19154,0.0,22.0,68.0,170.0,25.0,0.0
709513,0.041831,-0.913123,-0.72572,-0.370488,-0.039418,-0.107016,0.0,22.0,68.0,170.0,25.0,0.0
709514,0.070966,-0.899848,-0.720385,-0.271974,0.203035,-0.246657,0.0,22.0,68.0,170.0,25.0,0.0
709515,0.099325,-0.8954629999999999,-0.7182350000000001,-0.086177,0.224781,-0.049829000000000005,0.0,22.0,68.0,170.0,25.0,0.0
709516,0.122768,-0.90443,-0.710296,-0.094007,-0.021394,0.102236,0.0,22.0,68.0,170.0,25.0,0.0
709517,0.156729,-0.927806,-0.692651,-0.172095,-0.237806,0.216937,0.0,22.0,68.0,170.0,25.0,0.0
709518,0.206687,-0.965197,-0.665586,-0.15321400000000002,-0.39728,0.191737,0.0,22.0,68.0,170.0,25.0,0.0
709519,0.268693,-1.012448,-0.630297,-0.118365,-0.5777,0.122593,0.0,22.0,68.0,170.0,25.0,0.0
709520,0.32452600000000004,-1.066134,-0.6000979999999999,-0.078046,-0.792376,-0.034204000000000005,0.0,22.0,68.0,170.0,25.0,0.0
709521,0.359416,-1.1248049999999998,-0.586187,-0.021149,-0.8635639999999999,-0.082676,0.0,22.0,68.0,170.0,25.0,0.0
709522,0.362194,-1.181278,-0.590992,0.05281,-0.790555,-0.082486,0.0,22.0,68.0,170.0,25.0,0.0
709523,0.337642,-1.229191,-0.6098140000000001,0.318409,-0.392169,0.011459,0.0,22.0,68.0,170.0,25.0,0.0
709524,0.30298,-1.26576,-0.638758,0.277733,-0.26679400000000003,-0.013828,0.0,22.0,68.0,170.0,25.0,0.0
709525,0.27796,-1.291446,-0.664543,0.05549,0.180229,0.009044,0.0,22.0,68.0,170.0,25.0,0.0
709526,0.268462,-1.303747,-0.679756,-0.069691,0.29646300000000003,0.029443,0.0,22.0,68.0,170.0,25.0,0.0
709527,0.281648,-1.307095,-0.677478,-0.580533,0.371864,0.037357,0.0,22.0,68.0,170.0,25.0,0.0
709528,0.31565,-1.313932,-0.653017,-0.865151,0.759737,-0.045825,0.0,22.0,68.0,170.0,25.0,0.0
709529,0.355943,-1.327409,-0.621537,-0.956401,0.919197,-0.07953400000000001,0.0,22.0,68.0,170.0,25.0,0.0
709530,0.43175,-1.335602,-0.572096,-0.17805,-0.030834,0.183037,0.0,22.0,68.0,170.0,25.0,0.0
709531,0.5048729999999999,-1.328986,-0.540036,0.238208,-0.096913,0.27100100000000005,0.0,22.0,68.0,170.0,25.0,0.0
709532,0.5416979999999999,-1.315421,-0.54063,0.407049,0.007865,0.01573,0.0,22.0,68.0,170.0,25.0,0.0
709533,0.566868,-1.311025,-0.532679,0.466683,0.7470680000000001,-0.497596,0.0,22.0,68.0,170.0,25.0,0.0
709534,0.556704,-1.306463,-0.548165,0.883251,1.370488,-0.224962,0.0,22.0,68.0,170.0,25.0,0.0
709535,0.572925,-1.3019889999999998,-0.5319159999999999,0.310147,0.153313,0.047316,0.0,22.0,68.0,170.0,25.0,0.0
709536,0.5906819999999999,-1.306109,-0.502866,0.12649000000000002,-0.169902,0.02116,0.0,22.0,68.0,170.0,25.0,0.0
709537,0.604392,-1.320079,-0.482523,0.164908,-0.014648,-0.071136,0.0,22.0,68.0,170.0,25.0,0.0
709538,0.631202,-1.338781,-0.447823,0.188375,0.03949,0.076519,0.0,22.0,68.0,170.0,25.0,0.0
709539,0.676376,-1.355172,-0.395561,0.120067,0.007669,0.163909,0.0,22.0,68.0,170.0,25.0,0.0
709540,0.7357199999999999,-1.368613,-0.332308,0.006940999999999999,-0.116853,0.189092,0.0,22.0,68.0,170.0,25.0,0.0
709541,0.795244,-1.379664,-0.27060300000000004,-0.089244,-0.213525,0.155813,0.0,22.0,68.0,170.0,25.0,0.0
709542,0.838526,-1.38851,-0.225111,-0.13961600000000002,-0.284152,0.014643000000000003,0.0,22.0,68.0,170.0,25.0,0.0
709543,0.864237,-1.395356,-0.196898,-0.164128,-0.306717,-0.12981800000000002,0.0,22.0,68.0,170.0,25.0,0.0
709544,0.8674620000000001,-1.3996620000000002,-0.194132,-0.166905,-0.313212,-0.14147300000000002,0.0,22.0,68.0,170.0,25.0,0.0
709545,0.8376040000000001,-1.3994030000000002,-0.229534,-0.111517,-0.412121,-0.101539,0.0,22.0,68.0,170.0,25.0,0.0
709546,0.7845770000000001,-1.393548,-0.292362,0.014004,-0.512836,-0.10227,0.0,22.0,68.0,170.0,25.0,0.0
709547,0.7198220000000001,-1.382088,-0.367736,0.128544,-0.505868,-0.127593,0.0,22.0,68.0,170.0,25.0,0.0
709548,0.655833,-1.367016,-0.437733,0.213625,-0.394973,-0.129956,0.0,22.0,68.0,170.0,25.0,0.0
709549,0.597651,-1.347637,-0.490598,0.33375,-0.184859,-0.016818,0.0,22.0,68.0,170.0,25.0,0.0
709550,0.531431,-1.319967,-0.533142,0.468669,0.016446000000000002,-0.031645,0.0,22.0,68.0,170.0,25.0,0.0
709551,0.446994,-1.280031,-0.583388,0.490794,-0.043932,0.187031,0.0,22.0,68.0,170.0,25.0,0.0
709552,0.342319,-1.2246629999999998,-0.647525,0.215983,-0.06169400000000001,0.252119,0.0,22.0,68.0,170.0,25.0,0.0
709553,0.234043,-1.153021,-0.706196,-0.050026,0.290718,0.086103,0.0,22.0,68.0,170.0,25.0,0.0
709554,0.140963,-1.07129,-0.747748,-0.243216,0.932667,-0.245867,0.0,22.0,68.0,170.0,25.0,0.0
709555,0.057168,-1.00434,-0.779093,-0.346962,1.207065,-0.239454,0.0,22.0,68.0,170.0,25.0,0.0
709556,0.009663,-0.963353,-0.7934180000000001,-0.624305,0.501186,0.100956,0.0,22.0,68.0,170.0,25.0,0.0
709557,0.004856,-0.940733,-0.790307,-0.414055,0.010781,-0.002119,0.0,22.0,68.0,170.0,25.0,0.0
709558,0.033886,-0.927825,-0.778209,-0.469181,-0.004404,-0.166469,0.0,22.0,68.0,170.0,25.0,0.0
709559,0.078671,-0.923127,-0.766354,-0.19776,0.435327,-0.158134,0.0,22.0,68.0,170.0,25.0,0.0
709560,0.124003,-0.932217,-0.749586,-0.043038,0.334035,-0.040708,0.0,22.0,68.0,170.0,25.0,0.0
709561,0.176172,-0.957621,-0.716421,-0.072156,0.079834,0.099885,0.0,22.0,68.0,170.0,25.0,0.0
709562,0.23890300000000006,-0.994184,-0.666813,-0.100843,-0.168515,0.16968699999999998,0.0,22.0,68.0,170.0,25.0,0.0
709563,0.306847,-1.0372860000000002,-0.606511,-0.06451699999999999,-0.444233,0.163012,0.0,22.0,68.0,170.0,25.0,0.0
709564,0.366872,-1.089123,-0.552006,-0.024295,-0.720221,0.079621,0.0,22.0,68.0,170.0,25.0,0.0
709565,0.406201,-1.151443,-0.518583,0.01876,-0.844764,0.016493999999999998,0.0,22.0,68.0,170.0,25.0,0.0
709566,0.424461,-1.218972,-0.502033,0.029054000000000007,-0.843332,-0.048473,0.0,22.0,68.0,170.0,25.0,0.0
709567,0.417486,-1.283103,-0.4971680000000001,0.19315,-0.6184930000000001,-0.090849,0.0,22.0,68.0,170.0,25.0,0.0
709568,0.377023,-1.33401,-0.5124310000000001,0.222431,-0.352193,-0.03829,0.0,22.0,68.0,170.0,25.0,0.0
709569,0.30594,-1.362239,-0.556489,0.115206,0.002001,0.031708,0.0,22.0,68.0,170.0,25.0,0.0
709570,0.240877,-1.360552,-0.596468,-0.451672,0.212907,-0.026377,0.0,22.0,68.0,170.0,25.0,0.0
709571,0.213686,-1.3379379999999998,-0.598815,-0.6688390000000001,0.304898,0.0057090000000000005,0.0,22.0,68.0,170.0,25.0,0.0
709572,0.218732,-1.323652,-0.572558,-0.669921,0.56313,-0.164452,0.0,22.0,68.0,170.0,25.0,0.0
709573,0.226672,-1.327329,-0.5642689999999999,-0.00396,-0.13663,0.927301,0.0,22.0,68.0,170.0,25.0,0.0
709574,0.217742,-1.324086,-0.576412,0.186761,-0.26774000000000003,0.370254,0.0,22.0,68.0,170.0,25.0,0.0
709575,0.274962,-1.325211,-0.545245,0.6107020000000001,-0.487344,-0.052187,0.0,22.0,68.0,170.0,25.0,0.0
709576,0.360116,-1.339816,-0.479203,0.442568,3.4972449999999995,-1.130693,0.0,22.0,68.0,170.0,25.0,0.0
709577,0.346168,-1.328605,-0.493825,0.441866,3.4998730000000005,-1.119336,0.0,22.0,68.0,170.0,25.0,0.0
709578,0.4295229999999999,-1.321337,-0.4179850000000001,0.204883,0.46087,0.707533,0.0,22.0,68.0,170.0,25.0,0.0
709579,0.462754,-1.318746,-0.366227,0.158582,-0.489567,-0.198776,0.0,22.0,68.0,170.0,25.0,0.0
709580,0.437645,-1.328168,-0.374299,0.380524,-0.252616,-0.264719,0.0,22.0,68.0,170.0,25.0,0.0
709581,0.406673,-1.3455469999999998,-0.39863,0.294984,0.005425,0.012339,0.0,22.0,68.0,170.0,25.0,0.0
709582,0.39312,-1.359032,-0.4123850000000001,0.12248699999999997,-0.026734,0.19908,0.0,22.0,68.0,170.0,25.0,0.0
709583,0.406793,-1.371737,-0.399586,0.124761,-0.029325,0.186539,0.0,22.0,68.0,170.0,25.0,0.0
709584,0.448864,-1.384592,-0.359268,-0.268232,-0.09067,-0.111041,0.0,22.0,68.0,170.0,25.0,0.0
709585,0.4950270000000001,-1.398942,-0.320641,-0.248842,-0.211252,-0.111375,0.0,22.0,68.0,170.0,25.0,0.0
709586,0.506925,-1.411486,-0.325462,-0.159521,-0.253343,-0.035782,0.0,22.0,68.0,170.0,25.0,0.0
709587,0.490853,-1.420563,-0.364064,0.187063,-0.300214,-0.079413,0.0,22.0,68.0,170.0,25.0,0.0
709588,0.4633,-1.425717,-0.414113,0.314267,-0.357903,-0.07922699999999999,0.0,22.0,68.0,170.0,25.0,0.0
709589,0.419052,-1.426885,-0.468553,0.356257,-0.371605,-0.050131,0.0,22.0,68.0,170.0,25.0,0.0
709590,0.345477,-1.423261,-0.531507,0.4179310000000001,-0.295563,-0.073904,0.0,22.0,68.0,170.0,25.0,0.0
709591,0.25813600000000003,-1.416782,-0.590418,0.452568,-0.255787,-0.078667,0.0,22.0,68.0,170.0,25.0,0.0
709592,0.168296,-1.407835,-0.63902,0.421463,-0.221782,-0.038110000000000005,0.0,22.0,68.0,170.0,25.0,0.0
709593,0.069738,-1.393908,-0.6841550000000001,0.388175,-0.196035,0.059237,0.0,22.0,68.0,170.0,25.0,0.0
709594,-0.033227,-1.369905,-0.7223069999999999,0.364585,-0.164551,0.183304,0.0,22.0,68.0,170.0,25.0,0.0
709595,-0.127945,-1.332199,-0.741206,0.151372,-0.10842,0.264285,0.0,22.0,68.0,170.0,25.0,0.0
709596,-0.2035,-1.28135,-0.7357630000000001,0.044469,0.091723,0.274939,0.0,22.0,68.0,170.0,25.0,0.0
709597,-0.255112,-1.216987,-0.716208,-0.25845300000000004,0.535054,0.144266,0.0,22.0,68.0,170.0,25.0,0.0
709598,-0.28528400000000004,-1.154059,-0.697878,-0.398077,0.64453,0.14324,0.0,22.0,68.0,170.0,25.0,0.0
709599,-0.29914,-1.103954,-0.686046,-0.421015,0.345715,0.208066,0.0,22.0,68.0,170.0,25.0,0.0
709600,-0.2755,-1.062106,-0.6705949999999999,-0.34473200000000004,0.132217,0.038843,0.0,22.0,68.0,170.0,25.0,0.0
709601,-0.212609,-1.028695,-0.644475,-0.652057,0.488757,-0.398511,0.0,22.0,68.0,170.0,25.0,0.0
709602,-0.110357,-1.007922,-0.5933149999999999,-0.280998,0.7369020000000001,-0.400382,0.0,22.0,68.0,170.0,25.0,0.0
709603,-0.02709,-1.000512,-0.541401,0.055487,0.555485,-0.195968,0.0,22.0,68.0,170.0,25.0,0.0
709604,0.032592,-1.008875,-0.485522,0.239946,-0.045528,-0.137285,0.0,22.0,68.0,170.0,25.0,0.0
709605,0.086702,-1.033245,-0.426382,0.306186,-0.216357,-0.036047,0.0,22.0,68.0,170.0,25.0,0.0
709606,0.126641,-1.066023,-0.372135,0.382049,-0.366007,0.037613,0.0,22.0,68.0,170.0,25.0,0.0
709607,0.137355,-1.104517,-0.340265,0.260419,-0.56822,0.247105,0.0,22.0,68.0,170.0,25.0,0.0
709608,0.122796,-1.14707,-0.330687,0.114235,-0.556949,0.232786,0.0,22.0,68.0,170.0,25.0,0.0
709609,0.085351,-1.192626,-0.34783600000000003,0.075184,-0.535741,0.178011,0.0,22.0,68.0,170.0,25.0,0.0
709610,0.019854,-1.236298,-0.400325,0.006575,-0.452449,0.100172,0.0,22.0,68.0,170.0,25.0,0.0
709611,-0.07257899999999999,-1.272417,-0.4880229999999999,-0.100844,-0.346851,-0.036956,0.0,22.0,68.0,170.0,25.0,0.0
709612,-0.164364,-1.3037729999999998,-0.569701,-0.368264,0.035607,-0.23179,0.0,22.0,68.0,170.0,25.0,0.0
709613,-0.226235,-1.326101,-0.601374,-0.365428,0.456653,-0.061093,0.0,22.0,68.0,170.0,25.0,0.0
709614,-0.259741,-1.321785,-0.600564,-0.33457800000000004,0.523077,-0.120433,0.0,22.0,68.0,170.0,25.0,0.0
709615,-0.24933,-1.300426,-0.5630930000000001,-0.201551,0.331723,-0.310537,0.0,22.0,68.0,170.0,25.0,0.0
709616,-0.174646,-1.280504,-0.47084,-0.01635,-0.062988,-0.445859,0.0,22.0,68.0,170.0,25.0,0.0
709617,-0.072585,-1.2704719999999998,-0.386365,-0.045608,-0.650462,-0.40635,0.0,22.0,68.0,170.0,25.0,0.0
709618,0.040021,-1.272751,-0.322929,0.094589,-0.823787,-0.241648,0.0,22.0,68.0,170.0,25.0,0.0
709619,0.136873,-1.278226,-0.278272,-0.082902,-0.486024,0.022762,0.0,22.0,68.0,170.0,25.0,0.0
709620,0.15483,-1.279823,-0.286175,0.031580000000000004,0.10545,0.395483,0.0,22.0,68.0,170.0,25.0,0.0
709621,0.098569,-1.281497,-0.32765900000000003,0.202806,1.0268620000000002,0.293921,0.0,22.0,68.0,170.0,25.0,0.0
709622,0.084075,-1.2873290000000002,-0.325089,0.262676,0.430335,0.372768,0.0,22.0,68.0,170.0,25.0,0.0
709623,0.095452,-1.292147,-0.29717,0.492904,0.025480000000000003,0.327074,0.0,22.0,68.0,170.0,25.0,0.0
709624,0.101717,-1.305205,-0.274745,0.377675,1.007932,0.324096,0.0,22.0,68.0,170.0,25.0,0.0
709625,0.065828,-1.316372,-0.286437,0.5151359999999999,1.540096,0.100752,0.0,22.0,68.0,170.0,25.0,0.0
709626,0.071259,-1.323421,-0.256651,0.168876,0.599594,-0.06642999999999999,0.0,22.0,68.0,170.0,25.0,0.0
709627,0.06704500000000001,-1.333978,-0.243364,-0.30148400000000003,-0.292325,0.286437,0.0,22.0,68.0,170.0,25.0,0.0
709628,0.031882,-1.349668,-0.264585,-0.113101,-0.109516,0.303204,0.0,22.0,68.0,170.0,25.0,0.0
709629,0.0070290000000000005,-1.37333,-0.282362,0.077814,0.387582,0.021498,0.0,22.0,68.0,170.0,25.0,0.0
709630,0.012935,-1.403875,-0.276743,0.050021,0.218016,0.06739400000000001,0.0,22.0,68.0,170.0,25.0,0.0
709631,0.022018,-1.430228,-0.274843,-0.013705000000000002,-0.100351,0.212078,0.0,22.0,68.0,170.0,25.0,0.0
709632,0.004196,-1.4526,-0.29767,-0.016257,-0.30772,0.258882,0.0,22.0,68.0,170.0,25.0,0.0
709633,-0.070561,-1.4738790000000002,-0.373486,-0.021025,-0.417136,0.184324,0.0,22.0,68.0,170.0,25.0,0.0
709634,-0.244991,-1.492567,-0.549407,-0.008892,-0.418771,0.163616,0.0,22.0,68.0,170.0,25.0,0.0
709635,-0.555607,-1.505285,-0.8669,0.098906,-0.41677,0.07395800000000001,0.0,22.0,68.0,170.0,25.0,0.0
709636,-0.984881,-1.5098049999999998,-1.309492,0.15354,-0.313845,0.035979000000000004,0.0,22.0,68.0,170.0,25.0,0.0
709637,-1.42071,-1.503249,-1.75886,0.178903,-0.233453,-0.051569,0.0,22.0,68.0,170.0,25.0,0.0
709638,-1.7227880000000002,-1.487567,-2.069736,0.196768,-0.076464,-0.199339,0.0,22.0,68.0,170.0,25.0,0.0
709639,-1.917294,-1.467467,-2.26724,0.30842600000000003,0.12304,-0.286112,0.0,22.0,68.0,170.0,25.0,0.0
709640,-2.035324,-1.447282,-2.385533,0.431404,0.143284,-0.147403,0.0,22.0,68.0,170.0,25.0,0.0
709641,-2.100395,-1.431392,-2.446002,0.500579,0.132931,-0.10041,0.0,22.0,68.0,170.0,25.0,0.0
709642,-2.139424,-1.419596,-2.477729,0.5628810000000001,0.18867,-0.233329,0.0,22.0,68.0,170.0,25.0,0.0
709643,-2.150504,-1.41131,-2.478214,0.537864,0.245571,-0.330158,0.0,22.0,68.0,170.0,25.0,0.0
709644,-2.123926,-1.407177,-2.432241,0.616888,0.470738,-0.31955300000000003,0.0,22.0,68.0,170.0,25.0,0.0
709645,-2.055432,-1.413546,-2.332353,0.434666,0.600214,-0.12448800000000003,0.0,22.0,68.0,170.0,25.0,0.0
709646,-1.903042,-1.430634,-2.147626,0.316069,0.292338,0.120235,0.0,22.0,68.0,170.0,25.0,0.0
709647,-1.625573,-1.450549,-1.835025,0.233654,0.12978,0.113443,0.0,22.0,68.0,170.0,25.0,0.0
709648,-1.21087,-1.4587370000000002,-1.378168,0.089477,-0.145568,0.18091,0.0,22.0,68.0,170.0,25.0,0.0
709649,-0.779946,-1.441899,-0.892488,-0.060087,-0.036779,0.11276300000000003,0.0,22.0,68.0,170.0,25.0,0.0
709650,-0.48577,-1.404473,-0.541121,-0.141194,0.271917,0.25202600000000003,0.0,22.0,68.0,170.0,25.0,0.0
709651,-0.313154,-1.3547280000000002,-0.324815,-0.144282,0.713773,0.211609,0.0,22.0,68.0,170.0,25.0,0.0
709652,-0.19974,-1.304164,-0.192963,0.029589,0.564542,0.017111,0.0,22.0,68.0,170.0,25.0,0.0
709653,-0.093649,-1.258817,-0.08453,0.146898,0.477334,0.041438,0.0,22.0,68.0,170.0,25.0,0.0
709654,-0.007017,-1.214854,0.015884,0.313053,0.350157,0.110885,0.0,22.0,68.0,170.0,25.0,0.0
709655,0.036819,-1.173555,0.103823,0.32571,0.288592,0.234636,0.0,22.0,68.0,170.0,25.0,0.0
709656,0.058112,-1.133446,0.186793,0.32465900000000003,0.231315,0.277959,0.0,22.0,68.0,170.0,25.0,0.0
709657,0.06871100000000001,-1.098186,0.266572,0.214718,0.078764,0.292288,0.0,22.0,68.0,170.0,25.0,0.0
709658,0.056919,-1.075166,0.339245,0.147169,-0.1389,0.4409270000000001,0.0,22.0,68.0,170.0,25.0,0.0
709659,0.033618,-1.062944,0.404916,0.099194,-0.28204,0.545551,0.0,22.0,68.0,170.0,25.0,0.0
709660,0.003936,-1.059075,0.462954,0.08744299999999999,-0.419556,0.5258079999999999,0.0,22.0,68.0,170.0,25.0,0.0
709661,-0.030834,-1.063674,0.513346,0.028675,-0.498474,0.4961140000000001,0.0,22.0,68.0,170.0,25.0,0.0
709662,-0.06782300000000001,-1.074605,0.556933,0.011925,-0.48159,0.49354,0.0,22.0,68.0,170.0,25.0,0.0
709663,-0.101579,-1.091792,0.594727,-0.039628,-0.372074,0.37185,0.0,22.0,68.0,170.0,25.0,0.0
709664,-0.126149,-1.1149639999999998,0.6283479999999999,-0.103627,-0.318839,0.258856,0.0,22.0,68.0,170.0,25.0,0.0
709665,-0.137724,-1.141458,0.659133,-0.16389,-0.268586,0.151982,0.0,22.0,68.0,170.0,25.0,0.0
709666,-0.135819,-1.1678389999999998,0.6872520000000001,-0.207981,-0.142729,0.015589,0.0,22.0,68.0,170.0,25.0,0.0
709667,-0.124254,-1.19338,0.71326,-0.200605,0.082465,-0.161573,0.0,22.0,68.0,170.0,25.0,0.0
709668,-0.10487,-1.212132,0.747796,-0.15869,0.435673,-0.225428,0.0,22.0,68.0,170.0,25.0,0.0
709669,-0.081251,-1.216658,0.790674,0.096688,0.704587,-0.188725,0.0,22.0,68.0,170.0,25.0,0.0
709670,-0.05949400000000001,-1.205869,0.8372860000000001,0.116831,0.581414,-0.232052,0.0,22.0,68.0,170.0,25.0,0.0
709671,-0.045752,-1.182403,0.891968,0.25216900000000003,0.002155,-0.217855,0.0,22.0,68.0,170.0,25.0,0.0
709672,-0.051328,-1.1635950000000002,0.932535,0.058832,-0.636189,-0.12980999999999998,0.0,22.0,68.0,170.0,25.0,0.0
709673,-0.068481,-1.156264,0.955796,0.221606,-0.773474,-0.122322,0.0,22.0,68.0,170.0,25.0,0.0
709674,-0.081724,-1.1544219999999998,0.97206,0.181942,-0.413463,-0.137735,0.0,22.0,68.0,170.0,25.0,0.0
709675,-0.074192,-1.150507,0.988889,-0.08463899999999999,0.204049,0.058681,0.0,22.0,68.0,170.0,25.0,0.0
709676,-0.058491,-1.142444,1.004984,0.686239,1.7526099999999998,0.024251,0.0,22.0,68.0,170.0,25.0,0.0
709677,-0.035021,-1.158353,1.020548,0.207746,0.918008,0.601333,0.0,22.0,68.0,170.0,25.0,0.0
709678,0.002172,-1.172903,1.07017,0.149763,-0.288472,0.351526,0.0,22.0,68.0,170.0,25.0,0.0
709679,-0.000721,-1.174143,1.09269,0.320393,-0.376537,0.333614,0.0,22.0,68.0,170.0,25.0,0.0
709680,-0.035549000000000004,-1.187067,1.085642,0.380814,-0.425383,0.495254,0.0,22.0,68.0,170.0,25.0,0.0
709681,-0.098352,-1.2133459999999998,1.05199,0.337305,-0.017053,0.461004,0.0,22.0,68.0,170.0,25.0,0.0
709682,-0.18329,-1.241356,0.995203,0.262243,0.262944,0.406351,0.0,22.0,68.0,170.0,25.0,0.0
709683,-0.256058,-1.268359,0.942645,-0.009647,0.575797,0.191595,0.0,22.0,68.0,170.0,25.0,0.0
709684,-0.27932,-1.304418,0.928599,0.061925,0.184561,0.098389,0.0,22.0,68.0,170.0,25.0,0.0
709685,-0.277363,-1.344542,0.931391,0.041788,0.055684,0.092907,0.0,22.0,68.0,170.0,25.0,0.0
709686,-0.289723,-1.3796700000000002,0.922175,0.026042000000000003,-0.207468,0.141566,0.0,22.0,68.0,170.0,25.0,0.0
709687,-0.338398,-1.406729,0.887544,0.096108,-0.25045700000000004,0.102708,0.0,22.0,68.0,170.0,25.0,0.0
709688,-0.419169,-1.42893,0.829744,0.12554,-0.291132,0.057907000000000014,0.0,22.0,68.0,170.0,25.0,0.0
709689,-0.5279189999999999,-1.449656,0.745015,0.140677,-0.263927,0.044577,0.0,22.0,68.0,170.0,25.0,0.0
709690,-0.6759390000000001,-1.4675280000000002,0.616614,0.15374200000000002,-0.183164,0.121388,0.0,22.0,68.0,170.0,25.0,0.0
709691,-0.872266,-1.480664,0.434069,0.101095,-0.116317,0.204965,0.0,22.0,68.0,170.0,25.0,0.0
709692,-1.155483,-1.490252,0.155001,0.040659,0.007011,0.13815999999999998,0.0,22.0,68.0,170.0,25.0,0.0
709693,-1.540488,-1.490682,-0.234215,0.032293,0.071811,-0.043244,0.0,22.0,68.0,170.0,25.0,0.0
709694,-1.879374,-1.477229,-0.578332,0.107604,-0.005605,-0.215204,0.0,22.0,68.0,170.0,25.0,0.0
709695,-2.083358,-1.455345,-0.783979,0.177815,-0.003948,-0.252477,0.0,22.0,68.0,170.0,25.0,0.0
709696,-2.188046,-1.434423,-0.888093,0.34234000000000003,0.108924,-0.122557,0.0,22.0,68.0,170.0,25.0,0.0
709697,-2.233143,-1.420195,-0.93246,0.340431,0.161313,-0.122997,0.0,22.0,68.0,170.0,25.0,0.0
709698,-2.239328,-1.414307,-0.938207,0.342959,0.203855,-0.172377,0.0,22.0,68.0,170.0,25.0,0.0
709699,-2.220698,-1.4133209999999998,-0.917663,0.428032,0.263442,-0.251833,0.0,22.0,68.0,170.0,25.0,0.0
709700,-2.192678,-1.414699,-0.8791110000000001,0.4608310000000001,0.222241,-0.249702,0.0,22.0,68.0,170.0,25.0,0.0
709701,-2.161972,-1.41889,-0.8303309999999999,0.4449770000000001,0.273219,-0.115435,0.0,22.0,68.0,170.0,25.0,0.0
709702,-2.074153,-1.432421,-0.7187819999999999,0.442451,0.314353,0.090081,0.0,22.0,68.0,170.0,25.0,0.0
709703,-1.884328,-1.454998,-0.505163,0.248411,0.204649,-0.009634,0.0,22.0,68.0,170.0,25.0,0.0
709704,-1.5563209999999998,-1.480212,-0.142835,0.012615,0.018245,0.062192,0.0,22.0,68.0,170.0,25.0,0.0
709705,-0.953086,-1.489296,0.504899,-0.114588,-0.014152,0.154527,0.0,22.0,68.0,170.0,25.0,0.0
709706,-0.388045,-1.454923,1.122147,-0.272523,0.241554,0.150491,0.0,22.0,68.0,170.0,25.0,0.0
709707,-0.14036500000000002,-1.390958,1.415151,-0.206588,0.689879,0.200899,0.0,22.0,68.0,170.0,25.0,0.0
709708,-0.034809,-1.320252,1.542857,-0.136208,0.824283,0.306848,0.0,22.0,68.0,170.0,25.0,0.0
709709,0.051627,-1.257499,1.635946,0.089442,0.4427970000000001,0.25657800000000003,0.0,22.0,68.0,170.0,25.0,0.0
709710,0.14669200000000002,-1.204444,1.731296,0.177729,0.430282,0.089183,0.0,22.0,68.0,170.0,25.0,0.0
709711,0.226753,-1.160331,1.828009,0.201413,0.511898,0.082776,0.0,22.0,68.0,170.0,25.0,0.0
709712,0.270168,-1.1203299999999998,1.916661,0.157419,0.516519,0.208823,0.0,22.0,68.0,170.0,25.0,0.0
709713,0.288366,-1.082477,1.991287,6.6e-05,0.189982,0.236179,0.0,22.0,68.0,170.0,25.0,0.0
709714,0.277942,-1.049642,2.050552,-0.123103,-0.127957,0.388381,0.0,22.0,68.0,170.0,25.0,0.0
709715,0.244034,-1.024782,2.096946,-0.163982,-0.400423,0.5069670000000001,0.0,22.0,68.0,170.0,25.0,0.0
709716,0.204532,-1.0096889999999998,2.134624,-0.17361600000000002,-0.556124,0.425955,0.0,22.0,68.0,170.0,25.0,0.0
709717,0.169612,-1.005289,2.163751,-0.237072,-0.574358,0.3324,0.0,22.0,68.0,170.0,25.0,0.0
709718,0.147466,-1.010405,2.186707,-0.178851,-0.5780350000000001,0.211143,0.0,22.0,68.0,170.0,25.0,0.0
709719,0.134022,-1.025987,2.201401,-0.10613,-0.620698,0.14433,0.0,22.0,68.0,170.0,25.0,0.0
709720,0.122974,-1.047487,2.208071,-0.076011,-0.584096,0.093754,0.0,22.0,68.0,170.0,25.0,0.0
709721,0.112575,-1.070875,2.2077400000000003,-0.08555700000000001,-0.610546,0.100056,0.0,22.0,68.0,170.0,25.0,0.0
709722,0.10769,-1.095546,2.203805,-0.06578099999999999,-0.61365,0.100586,0.0,22.0,68.0,170.0,25.0,0.0
709723,0.116855,-1.123129,2.203654,-0.02236,-0.485505,0.181361,0.0,22.0,68.0,170.0,25.0,0.0
709724,0.138527,-1.155353,2.207042,-0.0073599999999999985,-0.434652,0.179774,0.0,22.0,68.0,170.0,25.0,0.0
709725,0.157341,-1.187861,2.204193,0.06318700000000001,-0.326391,0.185313,0.0,22.0,68.0,170.0,25.0,0.0
709726,0.149007,-1.213244,2.177269,0.097198,-0.061024,0.15654400000000002,0.0,22.0,68.0,170.0,25.0,0.0
709727,0.109433,-1.228308,2.126003,0.055409,0.037234,0.111914,0.0,22.0,68.0,170.0,25.0,0.0
709728,0.056144000000000006,-1.237084,2.067982,-0.181543,0.103598,0.003642,0.0,22.0,68.0,170.0,25.0,0.0
709729,0.011676,-1.249182,2.023508,-0.264937,0.090794,0.018301,0.0,22.0,68.0,170.0,25.0,0.0
709730,-0.013646,-1.269266,1.996639,-0.223914,0.098004,0.048816000000000005,0.0,22.0,68.0,170.0,25.0,0.0
709731,-0.02591,-1.292489,1.973749,-0.36863,0.165752,0.08504600000000001,0.0,22.0,68.0,170.0,25.0,0.0
709732,-0.011615,-1.31176,1.971032,-0.368882,0.405143,-0.077837,0.0,22.0,68.0,170.0,25.0,0.0
709733,0.023366,-1.323998,1.994149,-0.001542,0.641232,0.150789,0.0,22.0,68.0,170.0,25.0,0.0
709734,0.075376,-1.331758,2.030432,0.594902,0.173209,0.314877,0.0,22.0,68.0,170.0,25.0,0.0
709735,0.113756,-1.331706,2.069152,0.497227,-0.158413,0.050321,0.0,22.0,68.0,170.0,25.0,0.0
709736,0.136079,-1.325818,2.098585,0.421993,0.188198,-0.170519,0.0,22.0,68.0,170.0,25.0,0.0
709737,0.157051,-1.3224129999999998,2.125608,0.439546,0.522861,-0.17769,0.0,22.0,68.0,170.0,25.0,0.0
709738,0.16780499999999998,-1.3223,2.150892,0.15676800000000002,0.760484,-0.343613,0.0,22.0,68.0,170.0,25.0,0.0
709739,0.180418,-1.318777,2.175853,0.125451,0.919956,-0.22301,0.0,22.0,68.0,170.0,25.0,0.0
709740,0.213084,-1.313399,2.215292,0.309035,-0.059478,0.101483,0.0,22.0,68.0,170.0,25.0,0.0
709741,0.227992,-1.313118,2.2487220000000003,0.386371,-0.164204,0.165982,0.0,22.0,68.0,170.0,25.0,0.0
709742,0.231958,-1.31857,2.277166,0.385364,-0.17233900000000002,0.190005,0.0,22.0,68.0,170.0,25.0,0.0
709743,0.228267,-1.32815,2.3042,0.337032,-0.212115,0.192245,0.0,22.0,68.0,170.0,25.0,0.0
709744,0.215705,-1.339707,2.32567,0.101292,-0.287672,0.186393,0.0,22.0,68.0,170.0,25.0,0.0
709745,0.200479,-1.354436,2.3441650000000003,0.002782,-0.201859,0.08459900000000001,0.0,22.0,68.0,170.0,25.0,0.0
709746,0.188583,-1.368526,2.3586720000000003,-0.033267000000000005,-0.14897,0.019125,0.0,22.0,68.0,170.0,25.0,0.0
709747,0.165739,-1.377212,2.353143,-0.152955,-0.135786,-0.067094,0.0,22.0,68.0,170.0,25.0,0.0
709748,0.119897,-1.377526,2.315762,-0.160486,-0.17973,-0.069533,0.0,22.0,68.0,170.0,25.0,0.0
709749,0.068965,-1.372998,2.27066,-0.089347,-0.244479,-0.049928,0.0,22.0,68.0,170.0,25.0,0.0
709750,0.024216,-1.366329,2.227922,0.000668,-0.205961,-0.079713,0.0,22.0,68.0,170.0,25.0,0.0
709751,-0.01183,-1.357607,2.188939,0.153824,-0.161001,-0.08902,0.0,22.0,68.0,170.0,25.0,0.0
709752,-0.04243,-1.342733,2.152584,0.34670300000000004,-0.157196,-0.022754,0.0,22.0,68.0,170.0,25.0,0.0
709753,-0.07115,-1.315518,2.119933,0.5676800000000001,-0.207309,0.234634,0.0,22.0,68.0,170.0,25.0,0.0
709754,-0.097331,-1.269213,2.105636,0.356852,0.167874,0.130511,0.0,22.0,68.0,170.0,25.0,0.0
709755,-0.117736,-1.204312,2.12384,0.241814,0.382813,0.031452999999999995,0.0,22.0,68.0,170.0,25.0,0.0
709756,-0.124803,-1.12609,2.157156,-0.017266,0.596256,-0.06349500000000001,0.0,22.0,68.0,170.0,25.0,0.0
709757,-0.13153900000000002,-1.049476,2.182353,-0.592928,1.088984,-0.067357,0.0,22.0,68.0,170.0,25.0,0.0
709758,-0.13101300000000002,-0.989941,2.199345,-0.6334529999999999,0.646352,0.195693,0.0,22.0,68.0,170.0,25.0,0.0
709759,-0.113465,-0.946905,2.224253,-0.473483,0.4536020000000001,0.271955,0.0,22.0,68.0,170.0,25.0,0.0
709760,-0.09626,-0.913977,2.250137,-0.059066,-0.050056,0.091936,0.0,22.0,68.0,170.0,25.0,0.0
709761,-0.082164,-0.88766,2.270371,0.021014,-0.126121,-0.061391,0.0,22.0,68.0,170.0,25.0,0.0
709762,-0.07196,-0.872339,2.28155,0.017608000000000002,0.017902,-0.062683,0.0,22.0,68.0,170.0,25.0,0.0
709763,-0.062618,-0.874361,2.293456,-0.031833999999999994,0.061037,0.018526,0.0,22.0,68.0,170.0,25.0,0.0
709764,-0.051813,-0.894877,2.308404,-0.08706,-0.095562,0.094777,0.0,22.0,68.0,170.0,25.0,0.0
709765,-0.031586,-0.932489,2.329264,-0.165937,-0.341985,0.129994,0.0,22.0,68.0,170.0,25.0,0.0
709766,-0.001024,-0.983933,2.356501,-0.157209,-0.509089,0.045618,0.0,22.0,68.0,170.0,25.0,0.0
709767,0.034909,-1.045512,2.386978,-0.103272,-0.6152880000000001,-0.070029,0.0,22.0,68.0,170.0,25.0,0.0
709768,0.073157,-1.108789,2.417002,0.016094999999999998,-0.654544,-0.054043,0.0,22.0,68.0,170.0,25.0,0.0
709769,0.102131,-1.1663290000000002,2.438075,0.0337,-0.665269,-0.066331,0.0,22.0,68.0,170.0,25.0,0.0
709770,0.116986,-1.2188,2.451194,0.044475,-0.575863,0.052392,0.0,22.0,68.0,170.0,25.0,0.0
709771,0.12952,-1.269569,2.462443,-0.001959,0.009642,0.235812,0.0,22.0,68.0,170.0,25.0,0.0
709772,0.136951,-1.310206,2.459982,-0.039402,0.345682,0.189045,0.0,22.0,68.0,170.0,25.0,0.0
709773,0.14335599999999998,-1.329028,2.453724,-0.342799,0.754731,-0.01885,0.0,22.0,68.0,170.0,25.0,0.0
709774,0.177785,-1.333298,2.469405,-0.634107,0.3314,-0.25014200000000003,0.0,22.0,68.0,170.0,25.0,0.0
709775,0.227812,-1.339887,2.495464,-0.5609649999999999,0.019354,-0.265377,0.0,22.0,68.0,170.0,25.0,0.0
709776,0.280778,-1.354808,2.513685,-0.353683,-0.09586,0.2168,0.0,22.0,68.0,170.0,25.0,0.0
709777,0.313299,-1.364991,2.498358,0.13461900000000002,0.05835,0.496058,0.0,22.0,68.0,170.0,25.0,0.0
709778,0.30382,-1.362727,2.449495,0.27273400000000003,0.049431,0.28764,0.0,22.0,68.0,170.0,25.0,0.0
709779,0.30703400000000003,-1.355905,2.424195,0.63886,0.132055,0.07153999999999999,0.0,22.0,68.0,170.0,25.0,0.0
709780,0.35479,-1.351842,2.449897,0.766523,0.097407,-0.30024,0.0,22.0,68.0,170.0,25.0,0.0
709781,0.407276,-1.349785,2.49888,0.596485,-0.023818,-0.035195,0.0,22.0,68.0,170.0,25.0,0.0
709782,0.465199,-1.352191,2.570145,0.353671,0.171413,-0.11433,0.0,22.0,68.0,170.0,25.0,0.0
709783,0.52658,-1.357197,2.655064,0.265595,0.811254,-0.166149,0.0,22.0,68.0,170.0,25.0,0.0
709784,0.585987,-1.356951,2.731098,0.149072,0.5693630000000001,0.012843,0.0,22.0,68.0,170.0,25.0,0.0
709785,0.638375,-1.34808,2.794074,-0.216322,-0.066213,0.166547,0.0,22.0,68.0,170.0,25.0,0.0
709786,0.644439,-1.337481,2.810741,-0.336696,-0.390218,0.139423,0.0,22.0,68.0,170.0,25.0,0.0
709787,0.609442,-1.328415,2.7907900000000003,-0.219632,-0.394155,0.018902,0.0,22.0,68.0,170.0,25.0,0.0
709788,0.566947,-1.324897,2.757206,-0.166975,-0.32493,-0.100504,0.0,22.0,68.0,170.0,25.0,0.0
709789,0.526228,-1.325433,2.717867,-0.0547,-0.275973,-0.123436,0.0,22.0,68.0,170.0,25.0,0.0
709790,0.487975,-1.3259729999999998,2.671943,0.069832,-0.236751,-0.137224,0.0,22.0,68.0,170.0,25.0,0.0
709791,0.457487,-1.324815,2.625686,0.157351,-0.181431,-0.088509,0.0,22.0,68.0,170.0,25.0,0.0
709792,0.427464,-1.320447,2.581938,0.213472,-0.074935,-0.095365,0.0,22.0,68.0,170.0,25.0,0.0
709793,0.388162,-1.311526,2.539055,0.286143,0.045111,-0.069414,0.0,22.0,68.0,170.0,25.0,0.0
709794,0.345992,-1.297492,2.504994,0.396837,-0.002221,0.042036,0.0,22.0,68.0,170.0,25.0,0.0
709795,0.2977,-1.274668,2.471903,0.488255,-0.177482,0.120933,0.0,22.0,68.0,170.0,25.0,0.0
709796,0.233815,-1.241024,2.42849,0.476349,-0.248377,0.213744,0.0,22.0,68.0,170.0,25.0,0.0
709797,0.161072,-1.191844,2.382482,0.255092,-0.10993,0.180085,0.0,22.0,68.0,170.0,25.0,0.0
709798,0.098113,-1.126836,2.349895,-0.082082,0.34817800000000004,-0.119101,0.0,22.0,68.0,170.0,25.0,0.0
709799,0.057655,-1.05646,2.340716,-0.5049560000000001,1.004808,-0.242121,0.0,22.0,68.0,170.0,25.0,0.0
709800,0.02144,-1.000959,2.340626,-0.5662229999999999,0.954139,-0.019986,0.0,22.0,68.0,170.0,25.0,0.0
709801,0.006719,-0.963374,2.354286,-0.619939,0.709884,0.14688099999999998,0.0,22.0,68.0,170.0,25.0,0.0
709802,0.024639,-0.941941,2.376996,-0.44479,0.077087,0.074934,0.0,22.0,68.0,170.0,25.0,0.0
709803,0.06285700000000001,-0.931223,2.404068,-0.238053,0.082324,-0.021269,0.0,22.0,68.0,170.0,25.0,0.0
709804,0.103647,-0.924652,2.424443,-0.100564,0.046361,-0.025111,0.0,22.0,68.0,170.0,25.0,0.0
709805,0.143696,-0.926062,2.437189,0.0435,0.027874,0.047566,0.0,22.0,68.0,170.0,25.0,0.0
709806,0.192527,-0.938252,2.455695,-0.036383,-0.091362,0.126952,0.0,22.0,68.0,170.0,25.0,0.0
709807,0.246097,-0.95932,2.47983,-0.07905,-0.158859,0.142504,0.0,22.0,68.0,170.0,25.0,0.0
709808,0.293157,-0.986623,2.503193,-0.11497,-0.299302,0.115474,0.0,22.0,68.0,170.0,25.0,0.0
709809,0.328852,-1.020783,2.519733,-0.14294600000000002,-0.427087,0.02478,0.0,22.0,68.0,170.0,25.0,0.0
709810,0.351752,-1.063551,2.526769,-0.147548,-0.498521,-0.044796,0.0,22.0,68.0,170.0,25.0,0.0
709811,0.359149,-1.113416,2.526273,-0.125808,-0.550335,-0.103544,0.0,22.0,68.0,170.0,25.0,0.0
709812,0.339386,-1.163513,2.511205,0.041363,-0.367221,-0.042479,0.0,22.0,68.0,170.0,25.0,0.0
709813,0.292618,-1.208156,2.476676,0.035656,-0.185147,-0.050548,0.0,22.0,68.0,170.0,25.0,0.0
709814,0.240166,-1.24308,2.437184,0.014851,-0.106021,-0.072839,0.0,22.0,68.0,170.0,25.0,0.0
709815,0.212587,-1.267316,2.414845,-0.028461,0.128217,-0.07348500000000001,0.0,22.0,68.0,170.0,25.0,0.0
709816,0.215374,-1.278556,2.408628,-0.25555500000000003,0.367167,-0.018973,0.0,22.0,68.0,170.0,25.0,0.0
709817,0.244103,-1.281869,2.422931,-0.317855,0.253272,-0.034329000000000005,0.0,22.0,68.0,170.0,25.0,0.0
709818,0.296336,-1.292833,2.4559740000000003,-0.352117,0.143608,0.15001099999999998,0.0,22.0,68.0,170.0,25.0,0.0
709819,0.361821,-1.316315,2.498995,-0.376663,0.192896,0.365098,0.0,22.0,68.0,170.0,25.0,0.0
709820,0.402322,-1.33565,2.526529,-0.240015,0.031228,0.084713,0.0,22.0,68.0,170.0,25.0,0.0
709821,0.403973,-1.343701,2.523196,-0.13860999999999998,0.060542,-0.037329,0.0,22.0,68.0,170.0,25.0,0.0
709822,0.38483,-1.340664,2.491997,0.338502,0.233685,-0.000277,0.0,22.0,68.0,170.0,25.0,0.0
709823,0.394369,-1.331323,2.471331,0.381262,0.252963,-0.005763,0.0,22.0,68.0,170.0,25.0,0.0
709824,0.425331,-1.329285,2.478144,0.281974,0.279068,-0.087818,0.0,22.0,68.0,170.0,25.0,0.0
709825,0.473144,-1.334591,2.507133,0.379553,0.409633,-0.140739,0.0,22.0,68.0,170.0,25.0,0.0
709826,0.525065,-1.340337,2.540044,0.415313,0.366831,-0.126839,0.0,22.0,68.0,170.0,25.0,0.0
709827,0.5773689999999999,-1.3423889999999998,2.578596,0.358956,0.195863,-0.200001,0.0,22.0,68.0,170.0,25.0,0.0
709828,0.614791,-1.341368,2.61205,0.290259,0.063939,-0.000485,0.0,22.0,68.0,170.0,25.0,0.0
709829,0.627747,-1.341298,2.633416,0.154461,-0.052974,0.055808,0.0,22.0,68.0,170.0,25.0,0.0
709830,0.622039,-1.343245,2.643766,0.051929,-0.136713,0.034137,0.0,22.0,68.0,170.0,25.0,0.0
709831,0.612581,-1.347456,2.649816,-0.073839,-0.17519,-0.043883,0.0,22.0,68.0,170.0,25.0,0.0
709832,0.614514,-1.353335,2.660259,-0.160435,-0.201668,-0.087681,0.0,22.0,68.0,170.0,25.0,0.0
709833,0.631501,-1.358343,2.6751720000000003,-0.167771,-0.213646,-0.082264,0.0,22.0,68.0,170.0,25.0,0.0
709834,0.656941,-1.361619,2.691938,-0.166853,-0.312156,-0.11677,0.0,22.0,68.0,170.0,25.0,0.0
709835,0.677481,-1.362008,2.700168,-0.096082,-0.309246,-0.120408,0.0,22.0,68.0,170.0,25.0,0.0
709836,0.6902729999999999,-1.359855,2.696678,0.051614,-0.26151,-0.097662,0.0,22.0,68.0,170.0,25.0,0.0
709837,0.6966899999999999,-1.356454,2.6907400000000004,0.236314,-0.133,-0.022469,0.0,22.0,68.0,170.0,25.0,0.0
709838,0.69245,-1.351901,2.685716,0.400855,-0.080538,0.039727,0.0,22.0,68.0,170.0,25.0,0.0
709839,0.681182,-1.3461530000000002,2.686473,0.48964,-0.060826,7.2e-05,0.0,22.0,68.0,170.0,25.0,0.0
709840,0.652239,-1.339818,2.679672,0.464303,-0.073876,-0.039255,0.0,22.0,68.0,170.0,25.0,0.0
709841,0.590002,-1.330182,2.647071,0.413501,-0.15873800000000002,0.032149000000000004,0.0,22.0,68.0,170.0,25.0,0.0
709842,0.485305,-1.313094,2.580732,0.320292,-0.189588,0.249556,0.0,22.0,68.0,170.0,25.0,0.0
709843,0.352684,-1.280091,2.493269,0.177086,-0.130115,0.272877,0.0,22.0,68.0,170.0,25.0,0.0
709844,0.2264,-1.224134,2.414047,-0.175799,0.5245,-0.108607,0.0,22.0,68.0,170.0,25.0,0.0
709845,0.139803,-1.152494,2.362564,-0.448618,0.919243,-0.128805,0.0,22.0,68.0,170.0,25.0,0.0
709846,0.0846,-1.087657,2.335421,-0.487131,0.911868,0.011225,0.0,22.0,68.0,170.0,25.0,0.0
709847,0.054751,-1.035023,2.325863,-0.554075,0.340321,0.201345,0.0,22.0,68.0,170.0,25.0,0.0
709848,0.058224,-0.994085,2.329769,-0.4434270000000001,0.14169,0.100377,0.0,22.0,68.0,170.0,25.0,0.0
709849,0.088012,-0.968415,2.341629,-0.31343000000000004,0.07862999999999999,0.04273,0.0,22.0,68.0,170.0,25.0,0.0
709850,0.122716,-0.953478,2.360319,0.10758,0.003978,0.06901900000000001,0.0,22.0,68.0,170.0,25.0,0.0
709851,0.14737,-0.94362,2.378964,0.148064,-0.133876,0.098901,0.0,22.0,68.0,170.0,25.0,0.0
709852,0.159789,-0.944046,2.39148,0.130083,-0.175371,0.12463699999999997,0.0,22.0,68.0,170.0,25.0,0.0
709853,0.180192,-0.958702,2.402289,-0.08993,-0.227001,0.10548699999999997,0.0,22.0,68.0,170.0,25.0,0.0
709854,0.213828,-0.98559,2.419028,-0.12315,-0.314952,0.128201,0.0,22.0,68.0,170.0,25.0,0.0
709855,0.252062,-1.021792,2.4381470000000003,-0.109319,-0.50905,0.123726,0.0,22.0,68.0,170.0,25.0,0.0
709856,0.284002,-1.067648,2.452108,-0.100318,-0.581788,0.088358,0.0,22.0,68.0,170.0,25.0,0.0
709857,0.30559899999999995,-1.118862,2.459463,-0.037365,-0.6347119999999999,0.033706,0.0,22.0,68.0,170.0,25.0,0.0
709858,0.315747,-1.170038,2.461537,0.030897000000000008,-0.464574,0.010906,0.0,22.0,68.0,170.0,25.0,0.0
709859,0.304035,-1.218147,2.447509,0.005472,-0.370849,-0.029785,0.0,22.0,68.0,170.0,25.0,0.0
709860,0.264599,-1.261586,2.407348,-0.061959,0.031923,-0.135651,0.0,22.0,68.0,170.0,25.0,0.0
709861,0.211643,-1.294805,2.35137,-0.30609899999999995,0.773379,-0.195723,0.0,22.0,68.0,170.0,25.0,0.0
709862,0.166472,-1.307119,2.308666,-0.413366,0.7141430000000001,-0.12550899999999998,0.0,22.0,68.0,170.0,25.0,0.0
709863,0.15256,-1.301701,2.29314,-0.419187,0.27780900000000003,-0.018646,0.0,22.0,68.0,170.0,25.0,0.0
709864,0.187364,-1.302893,2.305262,-0.248419,0.130261,0.088966,0.0,22.0,68.0,170.0,25.0,0.0
709865,0.273384,-1.32075,2.346591,-0.085516,0.229799,0.401559,0.0,22.0,68.0,170.0,25.0,0.0
709866,0.363604,-1.340507,2.389199,-0.032992,0.102114,0.404284,0.0,22.0,68.0,170.0,25.0,0.0
709867,0.421453,-1.350424,2.418287,0.18528,-0.067857,0.018679,0.0,22.0,68.0,170.0,25.0,0.0
709868,0.4541560000000001,-1.352711,2.433056,0.445288,0.083379,-0.102095,0.0,22.0,68.0,170.0,25.0,0.0
709869,0.461825,-1.350795,2.421771,0.5582010000000001,0.126459,-0.091068,0.0,22.0,68.0,170.0,25.0,0.0
709870,0.460429,-1.350824,2.412969,0.552017,0.125659,-0.063295,0.0,22.0,68.0,170.0,25.0,0.0
709871,0.467923,-1.354396,2.42448,0.459049,0.084877,-0.081939,0.0,22.0,68.0,170.0,25.0,0.0
709872,0.490524,-1.362485,2.45454,0.229174,0.110028,-0.246715,0.0,22.0,68.0,170.0,25.0,0.0
709873,0.510471,-1.368252,2.482557,0.258938,0.705058,0.09463,0.0,22.0,68.0,170.0,25.0,0.0
709874,0.548025,-1.364758,2.523604,0.139215,0.028674,0.134615,0.0,22.0,68.0,170.0,25.0,0.0
709875,0.594312,-1.356527,2.582101,0.004489,-0.301229,0.101268,0.0,22.0,68.0,170.0,25.0,0.0
709876,0.6228239999999999,-1.349025,2.632205,0.009982,-0.43074,0.0559,0.0,22.0,68.0,170.0,25.0,0.0
709877,0.631901,-1.345326,2.6638490000000004,-0.019018,-0.412433,-0.053735000000000005,0.0,22.0,68.0,170.0,25.0,0.0
709878,0.616045,-1.344544,2.667841,-0.07789199999999999,-0.319012,-0.104234,0.0,22.0,68.0,170.0,25.0,0.0
709879,0.581573,-1.344343,2.645838,-0.091692,-0.207883,-0.143749,0.0,22.0,68.0,170.0,25.0,0.0
709880,0.548231,-1.344992,2.61588,-0.01485,-0.022176,-0.10073,0.0,22.0,68.0,170.0,25.0,0.0
709881,0.5159100000000001,-1.346237,2.585948,0.105342,0.120811,-0.056611,0.0,22.0,68.0,170.0,25.0,0.0
709882,0.476317,-1.344019,2.55148,0.194532,0.096435,-0.029101,0.0,22.0,68.0,170.0,25.0,0.0
709883,0.436642,-1.336253,2.516559,0.249863,-0.0245,0.027092,0.0,22.0,68.0,170.0,25.0,0.0
709884,0.384413,-1.320232,2.474358,0.251512,-0.100395,-0.006321,0.0,22.0,68.0,170.0,25.0,0.0
709885,0.311961,-1.293357,2.423916,0.326656,-0.241866,0.084603,0.0,22.0,68.0,170.0,25.0,0.0
709886,0.218302,-1.2500639999999998,2.360867,0.247076,-0.186599,0.133997,0.0,22.0,68.0,170.0,25.0,0.0
709887,0.123211,-1.190404,2.299715,0.054147,0.0001,0.06511,0.0,22.0,68.0,170.0,25.0,0.0
709888,0.050044,-1.119069,2.258306,-0.221574,0.365717,-0.07753,0.0,22.0,68.0,170.0,25.0,0.0
709889,0.007923000000000001,-1.051288,2.2416150000000004,-0.431973,0.690607,0.000939,0.0,22.0,68.0,170.0,25.0,0.0
709890,-0.021074,-0.999345,2.236273,-0.39615,0.5520109999999999,0.188988,0.0,22.0,68.0,170.0,25.0,0.0
709891,-0.026582,-0.962802,2.2448900000000003,-0.2901,0.11465999999999997,0.19309,0.0,22.0,68.0,170.0,25.0,0.0
709892,-0.004443,-0.942719,2.2630220000000003,-0.121229,-0.102677,0.102721,0.0,22.0,68.0,170.0,25.0,0.0
709893,0.035087,-0.93188,2.289019,-0.125884,-0.038003,0.072506,0.0,22.0,68.0,170.0,25.0,0.0
709894,0.079958,-0.923439,2.314993,-0.114027,0.065861,0.052631,0.0,22.0,68.0,170.0,25.0,0.0
709895,0.121648,-0.924858,2.341324,-0.025896,0.14332899999999998,-0.005696,0.0,22.0,68.0,170.0,25.0,0.0
709896,0.168944,-0.939241,2.379162,-0.00137,0.013157,0.091654,0.0,22.0,68.0,170.0,25.0,0.0
709897,0.222741,-0.96303,2.423455,-0.050704,-0.091998,0.101865,0.0,22.0,68.0,170.0,25.0,0.0
709898,0.274192,-0.992947,2.467006,-0.036633,-0.323342,0.139467,0.0,22.0,68.0,170.0,25.0,0.0
709899,0.312394,-1.030803,2.497307,-0.08559299999999999,-0.457199,0.055317,0.0,22.0,68.0,170.0,25.0,0.0
709900,0.334574,-1.07723,2.508876,-0.092597,-0.506595,-0.033122000000000006,0.0,22.0,68.0,170.0,25.0,0.0
709901,0.333794,-1.127811,2.498511,0.116523,-0.37598,-0.07495399999999999,0.0,22.0,68.0,170.0,25.0,0.0
709902,0.30590700000000004,-1.175945,2.46702,0.117964,-0.107441,-0.126444,0.0,22.0,68.0,170.0,25.0,0.0
709903,0.262563,-1.216969,2.427429,0.077455,0.20779,-0.172586,0.0,22.0,68.0,170.0,25.0,0.0
709904,0.225542,-1.251,2.3915580000000003,0.015419,0.375438,-0.190446,0.0,22.0,68.0,170.0,25.0,0.0
709905,0.210289,-1.276348,2.368223,-0.241976,0.6043470000000001,-0.10615,0.0,22.0,68.0,170.0,25.0,0.0
709906,0.218734,-1.291144,2.364306,-0.5476270000000001,0.174011,0.030248,0.0,22.0,68.0,170.0,25.0,0.0
709907,0.244984,-1.306023,2.375705,-0.533563,-0.029559,-0.0307,0.0,22.0,68.0,170.0,25.0,0.0
709908,0.289904,-1.33307,2.397133,-0.271465,-0.004499,0.295735,0.0,22.0,68.0,170.0,25.0,0.0
709909,0.359945,-1.3619629999999998,2.43093,-0.05663500000000001,0.06550399999999999,0.436572,0.0,22.0,68.0,170.0,25.0,0.0
709910,0.415028,-1.383874,2.454122,0.103764,-0.166541,0.209702,0.0,22.0,68.0,170.0,25.0,0.0
709911,0.445864,-1.396808,2.464722,0.22532,-0.208443,0.031814,0.0,22.0,68.0,170.0,25.0,0.0
709912,0.473688,-1.397993,2.474718,0.432245,-0.107757,-0.240634,0.0,22.0,68.0,170.0,25.0,0.0
709913,0.487693,-1.387656,2.468201,0.483875,-0.017731,-0.160997,0.0,22.0,68.0,170.0,25.0,0.0
709914,0.493496,-1.377077,2.471221,0.433602,0.191114,-0.031174,0.0,22.0,68.0,170.0,25.0,0.0
709915,0.517828,-1.378781,2.509385,0.347813,0.363303,-0.118118,0.0,22.0,68.0,170.0,25.0,0.0
709916,0.574155,-1.38396,2.575539,0.250035,0.409646,-0.184594,0.0,22.0,68.0,170.0,25.0,0.0
709917,0.6802050000000001,-1.387389,2.684965,0.200278,0.440539,-0.108972,0.0,22.0,68.0,170.0,25.0,0.0
709918,0.774922,-1.383109,2.780687,0.106055,0.349669,0.188473,0.0,22.0,68.0,170.0,25.0,0.0
709919,0.817293,-1.371349,2.831096,0.012748,-0.065488,0.161681,0.0,22.0,68.0,170.0,25.0,0.0
709920,0.795198,-1.3574700000000002,2.830111,-0.072031,-0.286673,-0.004328,0.0,22.0,68.0,170.0,25.0,0.0
709921,0.739819,-1.34826,2.801071,-0.088227,-0.405715,-0.091506,0.0,22.0,68.0,170.0,25.0,0.0
709922,0.6845979999999999,-1.343846,2.7625,-0.067121,-0.324577,-0.205622,0.0,22.0,68.0,170.0,25.0,0.0
709923,0.648324,-1.343473,2.726525,-0.054166,-0.313964,-0.278595,0.0,22.0,68.0,170.0,25.0,0.0
709924,0.632428,-1.346016,2.697886,0.036704,-0.246648,-0.16604100000000002,0.0,22.0,68.0,170.0,25.0,0.0
709925,0.617801,-1.34922,2.670676,0.172322,-0.081524,-0.10961300000000003,0.0,22.0,68.0,170.0,25.0,0.0
709926,0.579917,-1.350688,2.637414,0.31552800000000003,0.095308,-0.098824,0.0,22.0,68.0,170.0,25.0,0.0
709927,0.526113,-1.346386,2.596045,0.468023,0.090809,-0.116858,0.0,22.0,68.0,170.0,25.0,0.0
709928,0.457879,-1.332584,2.546396,0.550172,-0.124487,0.024342,0.0,22.0,68.0,170.0,25.0,0.0
709929,0.361832,-1.305098,2.480437,0.540563,-0.214024,0.22846,0.0,22.0,68.0,170.0,25.0,0.0
709930,0.237475,-1.25924,2.40698,0.297958,-0.052459000000000006,0.271967,0.0,22.0,68.0,170.0,25.0,0.0
709931,0.119053,-1.197168,2.355027,-0.151323,0.434363,-0.010176,0.0,22.0,68.0,170.0,25.0,0.0
709932,0.040229,-1.1267049999999998,2.331635,-0.445639,0.8523700000000001,0.004898,0.0,22.0,68.0,170.0,25.0,0.0
709933,-0.011177,-1.064232,2.319634,-0.6224770000000001,0.718784,0.29291500000000004,0.0,22.0,68.0,170.0,25.0,0.0
709934,-0.043959,-1.014347,2.3112630000000003,-0.7330760000000001,0.320756,0.226441,0.0,22.0,68.0,170.0,25.0,0.0
709935,-0.036188,-0.980002,2.3230630000000003,-0.383915,0.044196,0.05757200000000001,0.0,22.0,68.0,170.0,25.0,0.0
709936,0.001413,-0.960222,2.345484,-0.203706,-0.058592,0.079685,0.0,22.0,68.0,170.0,25.0,0.0
709937,0.050905,-0.945799,2.371083,-0.070101,0.125986,0.093401,0.0,22.0,68.0,170.0,25.0,0.0
709938,0.094274,-0.938557,2.393075,0.028188,0.193157,0.119747,0.0,22.0,68.0,170.0,25.0,0.0
709939,0.127826,-0.944802,2.413093,0.016359000000000002,-0.009156999999999998,0.13941199999999998,0.0,22.0,68.0,170.0,25.0,0.0
709940,0.164101,-0.965968,2.436061,-0.037153,-0.241362,0.175788,0.0,22.0,68.0,170.0,25.0,0.0
709941,0.210155,-0.998678,2.465663,-0.034942,-0.448315,0.146797,0.0,22.0,68.0,170.0,25.0,0.0
709942,0.253189,-1.042144,2.49091,0.027025,-0.615242,0.118783,0.0,22.0,68.0,170.0,25.0,0.0
709943,0.27693,-1.09702,2.493069,-0.016876,-0.64684,-0.028465,0.0,22.0,68.0,170.0,25.0,0.0
709944,0.284438,-1.160438,2.476163,0.066914,-0.5400550000000001,-0.122661,0.0,22.0,68.0,170.0,25.0,0.0
709945,0.2694,-1.221752,2.446128,0.12461300000000003,0.027677,-0.160127,0.0,22.0,68.0,170.0,25.0,0.0
709946,0.220791,-1.272375,2.3971880000000003,-0.13255,0.669397,-0.292013,0.0,22.0,68.0,170.0,25.0,0.0
709947,0.174118,-1.310466,2.354953,-0.357183,0.932606,-0.262697,0.0,22.0,68.0,170.0,25.0,0.0
709948,0.162733,-1.331811,2.35376,-0.61605,0.263437,-0.06342300000000001,0.0,22.0,68.0,170.0,25.0,0.0
709949,0.140819,-1.342472,2.34568,-0.448791,-0.402926,0.032485,0.0,22.0,68.0,170.0,25.0,0.0
709950,0.134184,-1.354148,2.341688,0.05155,-0.391296,0.424818,0.0,22.0,68.0,170.0,25.0,0.0
709951,0.166167,-1.362941,2.345561,0.329591,-0.297873,0.8264290000000001,0.0,22.0,68.0,170.0,25.0,0.0
709952,0.203774,-1.371193,2.353721,0.20252,-0.301495,0.230311,0.0,22.0,68.0,170.0,25.0,0.0
709953,0.235924,-1.3785690000000002,2.37916,0.222648,-0.292525,-0.092094,0.0,22.0,68.0,170.0,25.0,0.0
709954,0.284372,-1.370048,2.414953,0.439708,-0.190214,-0.137478,0.0,22.0,68.0,170.0,25.0,0.0
709955,0.331039,-1.354259,2.454809,0.39933,0.210975,-0.119478,0.0,22.0,68.0,170.0,25.0,0.0
709956,0.376988,-1.334274,2.510002,0.318495,0.400537,-0.263241,0.0,22.0,68.0,170.0,25.0,0.0
709957,0.408692,-1.320169,2.562484,0.108759,0.430291,-0.187957,0.0,22.0,68.0,170.0,25.0,0.0
709958,0.433404,-1.31436,2.599117,0.222264,0.520646,-0.052744000000000006,0.0,22.0,68.0,170.0,25.0,0.0
709959,0.435785,-1.306476,2.60889,0.218683,0.13559000000000002,-0.079203,0.0,22.0,68.0,170.0,25.0,0.0
709960,0.415087,-1.298347,2.597869,0.104634,-0.152583,-0.06153,0.0,22.0,68.0,170.0,25.0,0.0
709961,0.374024,-1.293677,2.571186,0.146517,-0.25200900000000004,-0.190686,0.0,22.0,68.0,170.0,25.0,0.0
709962,0.328379,-1.294733,2.540762,0.254653,-0.217568,-0.279195,0.0,22.0,68.0,170.0,25.0,0.0
709963,0.275617,-1.299513,2.505773,0.464795,-0.13425,-0.243397,0.0,22.0,68.0,170.0,25.0,0.0
709964,0.224405,-1.305075,2.473435,0.557347,-0.048384,-0.173987,0.0,22.0,68.0,170.0,25.0,0.0
709965,0.175458,-1.308273,2.451833,0.530367,0.012564,-0.066885,0.0,22.0,68.0,170.0,25.0,0.0
709966,0.12439,-1.306635,2.4399900000000003,0.383728,0.023702,0.040561,0.0,22.0,68.0,170.0,25.0,0.0
709967,0.063546,-1.298153,2.431124,0.279149,-0.043751,0.110654,0.0,22.0,68.0,170.0,25.0,0.0
709968,-0.006692,-1.278582,2.41777,0.23464,-0.108609,0.261654,0.0,22.0,68.0,170.0,25.0,0.0
709969,-0.087226,-1.247326,2.4022080000000003,0.113903,-0.1263,0.281891,0.0,22.0,68.0,170.0,25.0,0.0
709970,-0.171129,-1.2060620000000002,2.388545,-0.15886,0.008790000000000001,0.234639,0.0,22.0,68.0,170.0,25.0,0.0
709971,-0.229255,-1.156583,2.392557,-0.37802,0.301943,0.214816,0.0,22.0,68.0,170.0,25.0,0.0
709972,-0.262222,-1.110162,2.401798,-0.567615,0.491802,0.168731,0.0,22.0,68.0,170.0,25.0,0.0
709973,-0.264091,-1.072352,2.416985,-0.6256229999999999,0.188033,0.058516,0.0,22.0,68.0,170.0,25.0,0.0
709974,-0.228112,-1.047722,2.443477,-0.5453279999999999,0.065445,0.028826,0.0,22.0,68.0,170.0,25.0,0.0
709975,-0.159968,-1.033612,2.479754,-0.37073,0.051125,0.012037,0.0,22.0,68.0,170.0,25.0,0.0
709976,-0.088095,-1.024883,2.518977,0.002772,0.258872,0.073765,0.0,22.0,68.0,170.0,25.0,0.0
709977,-0.023962,-1.021762,2.562912,0.018974,0.314467,0.031861,0.0,22.0,68.0,170.0,25.0,0.0
709978,0.032115,-1.032064,2.608483,0.165655,0.206963,-0.098148,0.0,22.0,68.0,170.0,25.0,0.0
709979,0.081261,-1.056794,2.654673,0.214927,-0.200007,0.067345,0.0,22.0,68.0,170.0,25.0,0.0
709980,0.123341,-1.090265,2.694577,0.148132,-0.291962,0.124495,0.0,22.0,68.0,170.0,25.0,0.0
709981,0.14743699999999998,-1.127674,2.71876,0.052141,-0.418203,0.183632,0.0,22.0,68.0,170.0,25.0,0.0
709982,0.142553,-1.165724,2.716816,-0.055546000000000005,-0.438422,0.096067,0.0,22.0,68.0,170.0,25.0,0.0
709983,0.106242,-1.205391,2.687345,-0.085988,-0.436649,0.006954999999999999,0.0,22.0,68.0,170.0,25.0,0.0
709984,0.036004,-1.246869,2.625968,-0.132597,-0.399622,-0.08029,0.0,22.0,68.0,170.0,25.0,0.0
709985,-0.058742,-1.286771,2.539643,-0.181379,-0.197545,-0.246079,0.0,22.0,68.0,170.0,25.0,0.0
709986,-0.147668,-1.321467,2.4608790000000003,-0.187205,0.136024,-0.37495,0.0,22.0,68.0,170.0,25.0,0.0
709987,-0.208486,-1.34313,2.408139,-0.131461,0.475145,-0.358971,0.0,22.0,68.0,170.0,25.0,0.0
709988,-0.219902,-1.342128,2.3957610000000003,-0.059501,0.5061180000000001,-0.410615,0.0,22.0,68.0,170.0,25.0,0.0
709989,-0.169356,-1.3239530000000002,2.430966,0.029617,0.235695,-0.44923,0.0,22.0,68.0,170.0,25.0,0.0
709990,-0.077862,-1.307431,2.495859,0.027742000000000003,-0.19756,-0.28478400000000004,0.0,22.0,68.0,170.0,25.0,0.0
709991,0.020681,-1.303484,2.564434,0.219437,-0.486732,-0.139939,0.0,22.0,68.0,170.0,25.0,0.0
709992,0.109586,-1.294278,2.622757,0.10152,-0.235968,0.106423,0.0,22.0,68.0,170.0,25.0,0.0
709993,0.136642,-1.279333,2.643436,0.301205,0.060501,0.146721,0.0,22.0,68.0,170.0,25.0,0.0
709994,0.077851,-1.274645,2.610156,0.400963,-0.0008699999999999999,0.550265,0.0,22.0,68.0,170.0,25.0,0.0
709995,-0.002586,-1.281845,2.548788,0.4602100000000001,-0.058702,0.988849,0.0,22.0,68.0,170.0,25.0,0.0
709996,-0.050046,-1.290409,2.528467,0.300693,0.425374,0.333968,0.0,22.0,68.0,170.0,25.0,0.0
709997,-0.08472400000000001,-1.308241,2.522532,0.339575,0.895552,-0.229709,0.0,22.0,68.0,170.0,25.0,0.0
709998,-0.072771,-1.3523,2.553265,0.33231900000000003,1.709353,-0.317243,0.0,22.0,68.0,170.0,25.0,0.0
709999,-0.017343,-1.369416,2.605481,-0.344111,0.028113,0.262324,0.0,22.0,68.0,170.0,25.0,0.0
710000,0.054179999999999985,-1.376957,2.682217,-0.297739,-0.113062,0.177055,0.0,22.0,68.0,170.0,25.0,0.0
710001,0.05544,-1.387422,2.701635,-0.011584,-0.078251,0.181473,0.0,22.0,68.0,170.0,25.0,0.0
710002,0.002168,-1.403436,2.670172,0.12441,0.003978,0.12678399999999998,0.0,22.0,68.0,170.0,25.0,0.0
710003,-0.068661,-1.42824,2.618161,0.094067,-0.102802,0.09996,0.0,22.0,68.0,170.0,25.0,0.0
710004,-0.15598399999999998,-1.457382,2.5364880000000003,0.095401,-0.183196,0.083111,0.0,22.0,68.0,170.0,25.0,0.0
710005,-0.299989,-1.485952,2.387343,0.095507,-0.139042,0.094904,0.0,22.0,68.0,170.0,25.0,0.0
710006,-0.589332,-1.509525,2.087945,0.149588,-0.08125299999999999,0.08706699999999999,0.0,22.0,68.0,170.0,25.0,0.0
710007,-1.071222,-1.5165620000000002,1.599271,0.220084,-0.069971,0.075392,0.0,22.0,68.0,170.0,25.0,0.0
710008,-1.481691,-1.507306,1.185311,0.18403,-0.10321,-0.0076900000000000015,0.0,22.0,68.0,170.0,25.0,0.0
710009,-1.731842,-1.491616,0.928616,0.19192,-0.095851,-0.106769,0.0,22.0,68.0,170.0,25.0,0.0
710010,-1.865231,-1.474637,0.789984,0.133429,0.00436,-0.257232,0.0,22.0,68.0,170.0,25.0,0.0
710011,-1.918811,-1.460494,0.735809,0.180475,0.075642,-0.346821,0.0,22.0,68.0,170.0,25.0,0.0
710012,-1.908759,-1.450263,0.7474609999999999,0.304862,0.095543,-0.285931,0.0,22.0,68.0,170.0,25.0,0.0
710013,-1.843758,-1.4435870000000002,0.817443,0.48423,0.07839299999999999,-0.229438,0.0,22.0,68.0,170.0,25.0,0.0
710014,-1.779019,-1.438634,0.892058,0.5991310000000001,0.12773900000000002,-0.245122,0.0,22.0,68.0,170.0,25.0,0.0
710015,-1.708178,-1.434862,0.979185,0.608956,0.201806,-0.139973,0.0,22.0,68.0,170.0,25.0,0.0
710016,-1.554207,-1.432167,1.157963,0.650893,0.320949,-0.02879,0.0,22.0,68.0,170.0,25.0,0.0
710017,-1.306834,-1.429169,1.442109,0.486119,0.244815,0.05780900000000001,0.0,22.0,68.0,170.0,25.0,0.0
710018,-0.997299,-1.418051,1.8003209999999998,0.257631,-0.069931,0.199909,0.0,22.0,68.0,170.0,25.0,0.0
710019,-0.6966439999999999,-1.388754,2.159096,0.026548,0.026656,0.143358,0.0,22.0,68.0,170.0,25.0,0.0
710020,-0.475634,-1.341898,2.438231,-0.104672,0.458471,0.013059,0.0,22.0,68.0,170.0,25.0,0.0
710021,-0.329444,-1.28717,2.627798,-0.14462,1.128256,0.264119,0.0,22.0,68.0,170.0,25.0,0.0
710022,-0.22918,-1.234967,2.741836,-0.082359,0.984024,0.30387600000000003,0.0,22.0,68.0,170.0,25.0,0.0
710023,-0.135894,-1.193353,2.838466,0.325732,0.31855900000000004,0.004597,0.0,22.0,68.0,170.0,25.0,0.0
710024,-0.048743,-1.158708,2.937782,0.438933,0.268818,0.081139,0.0,22.0,68.0,170.0,25.0,0.0
710025,0.018425,-1.130168,3.045653,0.41243,0.253918,0.157942,0.0,22.0,68.0,170.0,25.0,0.0
710026,0.064457,-1.10523,-3.121716,0.373031,0.266391,0.26374699999999995,0.0,22.0,68.0,170.0,25.0,0.0
710027,0.092474,-1.080534,-3.008992,0.1119,-0.09217,0.396336,0.0,22.0,68.0,170.0,25.0,0.0
710028,0.090835,-1.061844,-2.913361,0.08249400000000001,-0.161433,0.458795,0.0,22.0,68.0,170.0,25.0,0.0
710029,0.068834,-1.053975,-2.826909,0.101848,-0.22938000000000006,0.504683,0.0,22.0,68.0,170.0,25.0,0.0
710030,0.039996,-1.055612,-2.746545,0.132002,-0.334878,0.485938,0.0,22.0,68.0,170.0,25.0,0.0
710031,0.009364,-1.063822,-2.676113,0.117264,-0.351451,0.45759,0.0,22.0,68.0,170.0,25.0,0.0
710032,-0.022912,-1.075344,-2.615771,0.047345,-0.250023,0.412454,0.0,22.0,68.0,170.0,25.0,0.0
710033,-0.051334000000000005,-1.087924,-2.559016,0.049124,-0.128982,0.366591,0.0,22.0,68.0,170.0,25.0,0.0
710034,-0.070086,-1.102837,-2.500858,0.003618,-0.043675,0.355979,0.0,22.0,68.0,170.0,25.0,0.0
710035,-0.07456499999999999,-1.121493,-2.437073,-0.0774,0.052802,0.335444,0.0,22.0,68.0,170.0,25.0,0.0
710036,-0.063277,-1.142206,-2.368522,-0.217937,0.158547,0.236397,0.0,22.0,68.0,170.0,25.0,0.0
710037,-0.036566,-1.1647379999999998,-2.300049,-0.282267,0.169938,0.180723,0.0,22.0,68.0,170.0,25.0,0.0
710038,0.004033,-1.187876,-2.230307,-0.34460100000000005,0.167576,0.124635,0.0,22.0,68.0,170.0,25.0,0.0
710039,0.051275,-1.208652,-2.161537,-0.167938,0.012218,-0.162481,0.0,22.0,68.0,170.0,25.0,0.0
710040,0.104931,-1.227102,-2.09058,-0.054413,-0.105426,-0.27673200000000003,0.0,22.0,68.0,170.0,25.0,0.0
710041,0.153481,-1.239795,-2.027674,0.127898,-0.215661,-0.386624,0.0,22.0,68.0,170.0,25.0,0.0
710042,0.174494,-1.243967,-1.99247,0.367726,-0.26724000000000003,-0.466945,0.0,22.0,68.0,170.0,25.0,0.0
710043,0.157025,-1.242509,-1.985196,0.454172,-0.278581,-0.4320479999999999,0.0,22.0,68.0,170.0,25.0,0.0
710044,0.121544,-1.241191,-1.985359,0.559512,-0.30737600000000004,-0.2127,0.0,22.0,68.0,170.0,25.0,0.0
710045,0.104577,-1.246528,-1.976857,0.30924,-0.136345,-0.116047,0.0,22.0,68.0,170.0,25.0,0.0
710046,0.12518900000000002,-1.257379,-1.946012,0.328066,0.561883,-0.039179000000000005,0.0,22.0,68.0,170.0,25.0,0.0
710047,0.135818,-1.274008,-1.938981,0.8140850000000001,2.389148,0.50039,0.0,22.0,68.0,170.0,25.0,0.0
710048,0.119529,-1.306512,-1.981702,0.288416,1.837867,0.942292,0.0,22.0,68.0,170.0,25.0,0.0
710049,0.196118,-1.319087,-1.925923,-0.485209,-0.431165,0.225837,0.0,22.0,68.0,170.0,25.0,0.0
710050,0.253763,-1.32569,-1.852361,-0.166602,-0.771579,0.132044,0.0,22.0,68.0,170.0,25.0,0.0
710051,0.28070100000000003,-1.345039,-1.787853,-0.116256,-0.786209,0.190089,0.0,22.0,68.0,170.0,25.0,0.0
710052,0.263409,-1.367082,-1.766702,-0.107653,-0.658582,0.240496,0.0,22.0,68.0,170.0,25.0,0.0
710053,0.16306600000000002,-1.385742,-1.833469,-0.151286,-0.398545,0.221156,0.0,22.0,68.0,170.0,25.0,0.0
710054,-0.018604,-1.396671,-1.985512,-0.032330000000000005,0.230164,0.290435,0.0,22.0,68.0,170.0,25.0,0.0
710055,-0.229861,-1.395452,-2.174477,0.115354,1.050017,0.268858,0.0,22.0,68.0,170.0,25.0,0.0
710056,-0.369866,-1.398048,-2.305455,0.208133,0.466391,0.07435900000000001,0.0,22.0,68.0,170.0,25.0,0.0
710057,-0.396639,-1.41579,-2.341299,0.157589,-0.175923,-0.13918599999999998,0.0,22.0,68.0,170.0,25.0,0.0
710058,-0.36979,-1.440164,-2.332393,0.170828,-0.288446,-0.088047,0.0,22.0,68.0,170.0,25.0,0.0
710059,-0.331325,-1.461118,-2.300443,0.240059,-0.258029,-0.019267,0.0,22.0,68.0,170.0,25.0,0.0
710060,-0.30859200000000003,-1.477189,-2.268583,0.249138,-0.20514,-0.020259,0.0,22.0,68.0,170.0,25.0,0.0
710061,-0.328542,-1.491161,-2.26488,0.243472,-0.124333,0.027368,0.0,22.0,68.0,170.0,25.0,0.0
710062,-0.403854,-1.505113,-2.308565,0.229253,-0.096278,0.048225,0.0,22.0,68.0,170.0,25.0,0.0
710063,-0.5367460000000001,-1.5190860000000002,-2.4111990000000003,0.140474,-0.032248,0.069337,0.0,22.0,68.0,170.0,25.0,0.0
710064,-0.756828,-1.531064,-2.611815,0.095283,-0.018513,0.02688,0.0,22.0,68.0,170.0,25.0,0.0
710065,-1.134607,-1.5387540000000002,-2.98118,0.036484,0.036173,-0.151595,0.0,22.0,68.0,170.0,25.0,0.0
710066,-1.651131,-1.537868,2.789072,0.070414,-0.005850999999999999,-0.196017,0.0,22.0,68.0,170.0,25.0,0.0
710067,-2.00583,-1.5277,2.43819,0.115227,-0.018603,-0.199249,0.0,22.0,68.0,170.0,25.0,0.0
710068,-2.146593,-1.515182,2.300603,0.217093,0.018315,-0.097039,0.0,22.0,68.0,170.0,25.0,0.0
710069,-2.182636,-1.506042,2.268453,0.222312,0.124975,-0.085538,0.0,22.0,68.0,170.0,25.0,0.0
710070,-2.159956,-1.501661,2.299937,0.162276,0.13126500000000002,-0.13595,0.0,22.0,68.0,170.0,25.0,0.0
710071,-2.103811,-1.50213,2.371503,0.158155,0.130531,-0.066313,0.0,22.0,68.0,170.0,25.0,0.0
710072,-1.90562,-1.510102,2.5904540000000003,0.285668,0.17425,0.117504,0.0,22.0,68.0,170.0,25.0,0.0
710073,-1.352337,-1.51678,-3.113178,0.361269,0.288797,-0.007295999999999999,0.0,22.0,68.0,170.0,25.0,0.0
710074,-0.689973,-1.503968,-2.417059,0.135294,0.224324,-0.133799,0.0,22.0,68.0,170.0,25.0,0.0
710075,-0.278143,-1.463306,-1.966707,-0.020363,0.106724,0.042537,0.0,22.0,68.0,170.0,25.0,0.0
710076,-0.117619,-1.402858,-1.764849,-0.132302,0.207947,0.222743,0.0,22.0,68.0,170.0,25.0,0.0
710077,-0.048505,-1.335545,-1.65867,-0.171163,0.522097,0.224573,0.0,22.0,68.0,170.0,25.0,0.0
710078,-0.015069,-1.268312,-1.598496,-0.122617,0.725637,0.347602,0.0,22.0,68.0,170.0,25.0,0.0
710079,0.025058,-1.211572,-1.554698,0.058086,0.421176,0.191236,0.0,22.0,68.0,170.0,25.0,0.0
710080,0.084372,-1.165497,-1.499568,0.319418,0.375296,-0.00898,0.0,22.0,68.0,170.0,25.0,0.0
710081,0.142468,-1.1294030000000002,-1.430807,0.274991,0.289523,0.04215,0.0,22.0,68.0,170.0,25.0,0.0
710082,0.192041,-1.09838,-1.3533,0.167438,0.241304,0.101093,0.0,22.0,68.0,170.0,25.0,0.0
710083,0.223476,-1.067565,-1.280093,-0.038015,-0.052375,0.230703,0.0,22.0,68.0,170.0,25.0,0.0
710084,0.223814,-1.041824,-1.218809,-0.13178099999999998,-0.218474,0.376993,0.0,22.0,68.0,170.0,25.0,0.0
710085,0.204722,-1.024427,-1.164818,-0.14156400000000002,-0.267137,0.4158270000000001,0.0,22.0,68.0,170.0,25.0,0.0
710086,0.179774,-1.01565,-1.116357,-0.144308,-0.431351,0.395283,0.0,22.0,68.0,170.0,25.0,0.0
710087,0.156243,-1.015794,-1.074263,-0.127529,-0.4648890000000001,0.34770500000000004,0.0,22.0,68.0,170.0,25.0,0.0
710088,0.135339,-1.024734,-1.043022,-0.119067,-0.424797,0.263265,0.0,22.0,68.0,170.0,25.0,0.0
710089,0.117205,-1.040523,-1.0213709999999998,-0.078567,-0.360197,0.17219,0.0,22.0,68.0,170.0,25.0,0.0
710090,0.105231,-1.060645,-1.004434,-0.06435199999999999,-0.36762,0.138791,0.0,22.0,68.0,170.0,25.0,0.0
710091,0.102739,-1.083245,-0.988264,-0.087077,-0.342375,0.1359,0.0,22.0,68.0,170.0,25.0,0.0
710092,0.108194,-1.107615,-0.97439,-0.135969,-0.357343,0.151673,0.0,22.0,68.0,170.0,25.0,0.0
710093,0.120536,-1.133957,-0.963446,-0.147171,-0.366833,0.141291,0.0,22.0,68.0,170.0,25.0,0.0
710094,0.139375,-1.163533,-0.954114,-0.143986,-0.307964,0.110473,0.0,22.0,68.0,170.0,25.0,0.0
710095,0.157487,-1.19502,-0.946965,-0.104296,-0.223772,0.094387,0.0,22.0,68.0,170.0,25.0,0.0
710096,0.160646,-1.223841,-0.948274,-0.062325,-0.179624,0.116267,0.0,22.0,68.0,170.0,25.0,0.0
710097,0.146035,-1.246633,-0.959907,0.015372,-0.14995899999999998,0.110795,0.0,22.0,68.0,170.0,25.0,0.0
710098,0.121144,-1.2624799999999998,-0.976564,0.008937,-0.132625,0.056419,0.0,22.0,68.0,170.0,25.0,0.0
710099,0.102109,-1.274378,-0.989481,-0.044896,-0.13955499999999998,0.006335,0.0,22.0,68.0,170.0,25.0,0.0
710100,0.104077,-1.289018,-0.991841,-0.123264,-0.051474,-0.025244,0.0,22.0,68.0,170.0,25.0,0.0
710101,0.129158,-1.306994,-0.987181,-0.219467,0.007647,-0.020441,0.0,22.0,68.0,170.0,25.0,0.0
710102,0.172551,-1.326185,-0.975503,-0.320726,0.0043170000000000005,-0.078479,0.0,22.0,68.0,170.0,25.0,0.0
710103,0.219815,-1.34755,-0.952976,-0.456036,0.321432,-0.033412,0.0,22.0,68.0,170.0,25.0,0.0
710104,0.25477,-1.369368,-0.930439,-0.151923,1.0100559999999998,0.331886,0.0,22.0,68.0,170.0,25.0,0.0
710105,0.25497,-1.380964,-0.935556,0.427948,0.169926,0.485863,0.0,22.0,68.0,170.0,25.0,0.0
710106,0.257873,-1.380777,-0.93617,0.470325,-0.134649,0.124954,0.0,22.0,68.0,170.0,25.0,0.0
710107,0.286428,-1.380181,-0.910752,0.541122,-0.077713,-0.002078,0.0,22.0,68.0,170.0,25.0,0.0
710108,0.362839,-1.384594,-0.838007,0.257657,0.250165,-0.187414,0.0,22.0,68.0,170.0,25.0,0.0
710109,0.476574,-1.3871870000000002,-0.727961,0.164703,0.6491939999999999,-0.4752770000000001,0.0,22.0,68.0,170.0,25.0,0.0
710110,0.592566,-1.375432,-0.621146,0.237729,0.745265,-0.018202,0.0,22.0,68.0,170.0,25.0,0.0
710111,0.708767,-1.355395,-0.509849,0.064933,-0.16021,0.133745,0.0,22.0,68.0,170.0,25.0,0.0
710112,0.718205,-1.344109,-0.481129,0.037821,-0.344122,0.186935,0.0,22.0,68.0,170.0,25.0,0.0
710113,0.6768350000000001,-1.343409,-0.49604,0.059199,-0.376709,0.22005,0.0,22.0,68.0,170.0,25.0,0.0
710114,0.619896,-1.347921,-0.525442,0.004799,-0.326035,0.201241,0.0,22.0,68.0,170.0,25.0,0.0
710115,0.568322,-1.357652,-0.5555829999999999,-0.150503,-0.245513,0.081419,0.0,22.0,68.0,170.0,25.0,0.0
710116,0.534592,-1.369437,-0.578954,-0.130601,-0.10153,-0.085426,0.0,22.0,68.0,170.0,25.0,0.0
710117,0.518463,-1.377207,-0.596276,-0.08881900000000001,-0.115323,-0.178374,0.0,22.0,68.0,170.0,25.0,0.0
710118,0.503726,-1.380513,-0.621369,-0.032823000000000005,-0.198564,-0.117024,0.0,22.0,68.0,170.0,25.0,0.0
710119,0.473226,-1.3774110000000002,-0.660662,0.122342,-0.263006,0.014766,0.0,22.0,68.0,170.0,25.0,0.0
710120,0.447976,-1.36981,-0.6906869999999999,0.200501,-0.24775300000000006,0.026388,0.0,22.0,68.0,170.0,25.0,0.0
710121,0.432892,-1.359815,-0.7004630000000001,0.220621,-0.224637,0.07238,0.0,22.0,68.0,170.0,25.0,0.0
710122,0.413337,-1.347343,-0.705063,0.238094,-0.177195,0.009471,0.0,22.0,68.0,170.0,25.0,0.0
710123,0.383783,-1.330884,-0.715685,0.319918,-0.164215,0.042354,0.0,22.0,68.0,170.0,25.0,0.0
710124,0.33773200000000003,-1.311428,-0.7395470000000001,0.405376,-0.209152,0.106788,0.0,22.0,68.0,170.0,25.0,0.0
710125,0.272813,-1.285008,-0.778243,0.306975,-0.073041,0.220584,0.0,22.0,68.0,170.0,25.0,0.0
710126,0.209555,-1.242896,-0.81302,0.087103,0.286434,0.092309,0.0,22.0,68.0,170.0,25.0,0.0
710127,0.164141,-1.182575,-0.833038,-0.160611,0.773207,-0.116185,0.0,22.0,68.0,170.0,25.0,0.0
710128,0.134102,-1.110742,-0.843217,-0.401465,0.756422,-0.083473,0.0,22.0,68.0,170.0,25.0,0.0
710129,0.109906,-1.042633,-0.848275,-0.5891649999999999,0.5796100000000001,-0.006204,0.0,22.0,68.0,170.0,25.0,0.0
710130,0.109628,-0.987921,-0.84321,-0.4371140000000001,0.420534,-0.040875,0.0,22.0,68.0,170.0,25.0,0.0
710131,0.137975,-0.94936,-0.824896,-0.118176,0.179877,0.014552,0.0,22.0,68.0,170.0,25.0,0.0
710132,0.16666199999999998,-0.923076,-0.800825,0.083134,0.016717,0.06490399999999999,0.0,22.0,68.0,170.0,25.0,0.0
710133,0.181275,-0.903041,-0.781675,0.124433,-0.17843299999999998,-0.00315,0.0,22.0,68.0,170.0,25.0,0.0
710134,0.189091,-0.892373,-0.768352,0.041035,-0.053771000000000006,-0.047698,0.0,22.0,68.0,170.0,25.0,0.0
710135,0.197354,-0.8987870000000001,-0.753382,-0.013243,-0.066187,0.027361,0.0,22.0,68.0,170.0,25.0,0.0
710136,0.214417,-0.920953,-0.731154,-0.12351,-0.151495,0.139455,0.0,22.0,68.0,170.0,25.0,0.0
710137,0.239172,-0.950483,-0.702299,-0.234173,-0.240942,0.206223,0.0,22.0,68.0,170.0,25.0,0.0
710138,0.262864,-0.982638,-0.6722819999999999,-0.245016,-0.44024,0.220036,0.0,22.0,68.0,170.0,25.0,0.0
710139,0.275853,-1.019266,-0.650092,-0.188876,-0.588906,0.214051,0.0,22.0,68.0,170.0,25.0,0.0
710140,0.27720700000000004,-1.063565,-0.637777,-0.136051,-0.638238,0.125341,0.0,22.0,68.0,170.0,25.0,0.0
710141,0.273145,-1.116352,-0.629628,-0.047584,-0.53704,0.069189,0.0,22.0,68.0,170.0,25.0,0.0
710142,0.267481,-1.174203,-0.624496,-0.022428,-0.304477,0.021758,0.0,22.0,68.0,170.0,25.0,0.0
710143,0.260658,-1.228819,-0.622556,-0.045211,-0.058427,-0.020781,0.0,22.0,68.0,170.0,25.0,0.0
710144,0.25158200000000003,-1.270615,-0.625442,-0.051499,0.198816,-0.041465,0.0,22.0,68.0,170.0,25.0,0.0
710145,0.238039,-1.295544,-0.638113,-0.16030899999999998,0.4234310000000001,-0.051197,0.0,22.0,68.0,170.0,25.0,0.0
710146,0.23190300000000005,-1.304396,-0.6519050000000001,-0.35854,0.464581,-0.056775,0.0,22.0,68.0,170.0,25.0,0.0
710147,0.246894,-1.305795,-0.6530229999999999,-0.542968,0.122966,-0.000792,0.0,22.0,68.0,170.0,25.0,0.0
710148,0.293533,-1.317443,-0.637473,-0.576368,0.07541,0.08719099999999999,0.0,22.0,68.0,170.0,25.0,0.0
710149,0.363291,-1.34346,-0.61546,-0.512067,0.38364,0.279384,0.0,22.0,68.0,170.0,25.0,0.0
710150,0.429152,-1.363235,-0.596763,-0.092629,0.082285,0.266748,0.0,22.0,68.0,170.0,25.0,0.0
710151,0.469454,-1.3730209999999998,-0.59965,0.132971,0.061776,0.037277,0.0,22.0,68.0,170.0,25.0,0.0
710152,0.504129,-1.379028,-0.594102,0.4699,0.196386,-0.093934,0.0,22.0,68.0,170.0,25.0,0.0
710153,0.557372,-1.383019,-0.560641,0.689968,0.21000700000000005,-0.092844,0.0,22.0,68.0,170.0,25.0,0.0
710154,0.608541,-1.381893,-0.525502,0.598842,0.095014,-0.035656,0.0,22.0,68.0,170.0,25.0,0.0
710155,0.651736,-1.381406,-0.48687,0.382145,0.205533,-0.066086,0.0,22.0,68.0,170.0,25.0,0.0
710156,0.709802,-1.385798,-0.423762,0.279571,0.5860029999999999,-0.083487,0.0,22.0,68.0,170.0,25.0,0.0
710157,0.788795,-1.389835,-0.338401,0.236244,0.558397,-0.03789,0.0,22.0,68.0,170.0,25.0,0.0
710158,0.877128,-1.389247,-0.247766,0.129207,0.152772,0.052480999999999986,0.0,22.0,68.0,170.0,25.0,0.0
710159,0.950111,-1.38575,-0.16938599999999998,0.015563,-0.101122,0.07408,0.0,22.0,68.0,170.0,25.0,0.0
710160,0.984055,-1.3846459999999998,-0.12292,-0.074273,-0.219525,0.100271,0.0,22.0,68.0,170.0,25.0,0.0
710161,0.982849,-1.388021,-0.107095,-0.104867,-0.238317,0.108718,0.0,22.0,68.0,170.0,25.0,0.0
710162,0.97455,-1.396218,-0.099635,-0.154754,-0.181409,0.13636900000000002,0.0,22.0,68.0,170.0,25.0,0.0
710163,0.985747,-1.406455,-0.080427,-0.167201,-0.114563,0.050141000000000005,0.0,22.0,68.0,170.0,25.0,0.0
710164,1.026391,-1.415973,-0.040373,-0.14972,-0.094423,-0.023972,0.0,22.0,68.0,170.0,25.0,0.0
710165,1.0705870000000002,-1.423022,-0.002764,-0.05970900000000001,-0.181469,-0.172502,0.0,22.0,68.0,170.0,25.0,0.0
710166,1.077728,-1.426658,-0.005256,-0.057042,-0.181998,-0.175129,0.0,22.0,68.0,170.0,25.0,0.0
710167,1.028414,-1.425415,-0.064478,0.149649,-0.264353,-0.120519,0.0,22.0,68.0,170.0,25.0,0.0
710168,0.945264,-1.4180780000000002,-0.155747,0.233796,-0.3111,-0.041633,0.0,22.0,68.0,170.0,25.0,0.0
710169,0.857607,-1.403996,-0.243038,0.241028,-0.334372,-0.045505,0.0,22.0,68.0,170.0,25.0,0.0
710170,0.775237,-1.388173,-0.314961,0.178222,-0.320788,-0.132872,0.0,22.0,68.0,170.0,25.0,0.0
710171,0.69528,-1.3732209999999998,-0.380158,0.223406,-0.19429,-0.068861,0.0,22.0,68.0,170.0,25.0,0.0
710172,0.6118319999999999,-1.357329,-0.439266,0.357874,-0.040718,0.051028,0.0,22.0,68.0,170.0,25.0,0.0
710173,0.5199239999999999,-1.3394780000000002,-0.49414,0.429542,0.015816999999999998,0.059562,0.0,22.0,68.0,170.0,25.0,0.0
710174,0.420741,-1.315182,-0.552149,0.405993,0.111151,0.080154,0.0,22.0,68.0,170.0,25.0,0.0
710175,0.32289,-1.277549,-0.608692,0.100173,0.260829,0.1279,0.0,22.0,68.0,170.0,25.0,0.0
710176,0.233064,-1.220187,-0.655725,-0.208173,0.475967,0.065827,0.0,22.0,68.0,170.0,25.0,0.0
710177,0.148228,-1.143191,-0.698025,-0.406261,0.690701,-0.00085,0.0,22.0,68.0,170.0,25.0,0.0
710178,0.064899,-1.063748,-0.7378020000000001,-0.5353680000000001,0.6677489999999999,0.075366,0.0,22.0,68.0,170.0,25.0,0.0
710179,0.009655,-0.99949,-0.7669189999999999,-0.5370659999999999,0.458365,0.12495,0.0,22.0,68.0,170.0,25.0,0.0
710180,-0.004294,-0.953446,-0.783755,-0.25958400000000004,0.221618,0.035613,0.0,22.0,68.0,170.0,25.0,0.0
710181,0.008973,-0.919236,-0.792028,-0.260965,0.257031,-0.094555,0.0,22.0,68.0,170.0,25.0,0.0
710182,0.036282,-0.8962129999999999,-0.794802,-0.057339,0.23243000000000005,-0.240295,0.0,22.0,68.0,170.0,25.0,0.0
710183,0.060637,-0.8855149999999999,-0.794301,0.037712,0.002538,-0.04384,0.0,22.0,68.0,170.0,25.0,0.0
710184,0.077927,-0.8898450000000001,-0.7867,-0.008954,-0.15395799999999998,0.14686300000000002,0.0,22.0,68.0,170.0,25.0,0.0
710185,0.096933,-0.908494,-0.770566,-0.04221,-0.28575500000000004,0.24753000000000006,0.0,22.0,68.0,170.0,25.0,0.0
710186,0.121598,-0.937943,-0.747049,-0.019831,-0.530846,0.24830500000000005,0.0,22.0,68.0,170.0,25.0,0.0
710187,0.150565,-0.975009,-0.722831,-0.123693,-0.562723,0.174776,0.0,22.0,68.0,170.0,25.0,0.0
710188,0.18297,-1.017294,-0.69957,-0.08321,-0.663509,0.104206,0.0,22.0,68.0,170.0,25.0,0.0
710189,0.210788,-1.064378,-0.682455,-0.043168,-0.706778,0.043938,0.0,22.0,68.0,170.0,25.0,0.0
710190,0.227135,-1.116997,-0.6754020000000001,-0.001566,-0.705947,0.021851,0.0,22.0,68.0,170.0,25.0,0.0
710191,0.230984,-1.170968,-0.675908,0.15128699999999998,-0.35022,0.102112,0.0,22.0,68.0,170.0,25.0,0.0
710192,0.23,-1.220259,-0.675484,0.15772,-0.045634,0.135965,0.0,22.0,68.0,170.0,25.0,0.0
710193,0.22502600000000006,-1.260693,-0.680086,0.108423,0.113357,0.109002,0.0,22.0,68.0,170.0,25.0,0.0
710194,0.22316,-1.289353,-0.682801,-0.252538,0.364082,0.040051,0.0,22.0,68.0,170.0,25.0,0.0
710195,0.237538,-1.307658,-0.6678689999999999,-0.370289,0.170026,-0.049194,0.0,22.0,68.0,170.0,25.0,0.0
710196,0.250986,-1.323396,-0.6532,-0.504545,0.006202,-0.153703,0.0,22.0,68.0,170.0,25.0,0.0
710197,0.272421,-1.340876,-0.634857,-0.609553,0.026804,-0.16304200000000002,0.0,22.0,68.0,170.0,25.0,0.0
710198,0.313216,-1.357024,-0.606182,-0.484022,0.28706,-0.04117,0.0,22.0,68.0,170.0,25.0,0.0
710199,0.365079,-1.364771,-0.578968,-0.302682,0.503143,0.16458499999999998,0.0,22.0,68.0,170.0,25.0,0.0
710200,0.42195,-1.366221,-0.555022,-0.062477,0.418283,0.1828,0.0,22.0,68.0,170.0,25.0,0.0
710201,0.472699,-1.364651,-0.541449,0.145821,-0.09075,0.215629,0.0,22.0,68.0,170.0,25.0,0.0
710202,0.5080560000000001,-1.362875,-0.538725,0.162075,-0.241936,0.325754,0.0,22.0,68.0,170.0,25.0,0.0
710203,0.512303,-1.362411,-0.54997,0.278244,-0.064151,0.107734,0.0,22.0,68.0,170.0,25.0,0.0
710204,0.520335,-1.369391,-0.544226,0.503967,0.326518,-0.196959,0.0,22.0,68.0,170.0,25.0,0.0
710205,0.551094,-1.381214,-0.513618,0.482196,0.357135,-0.226124,0.0,22.0,68.0,170.0,25.0,0.0
710206,0.608563,-1.392397,-0.453582,0.250342,0.321154,-0.166659,0.0,22.0,68.0,170.0,25.0,0.0
710207,0.680537,-1.399535,-0.378004,0.15949000000000002,0.46339,-0.153382,0.0,22.0,68.0,170.0,25.0,0.0
710208,0.768699,-1.403529,-0.287744,0.167689,0.566508,-0.108627,0.0,22.0,68.0,170.0,25.0,0.0
710209,0.8439530000000001,-1.4011129999999998,-0.215249,0.148176,0.165714,0.044498,0.0,22.0,68.0,170.0,25.0,0.0
710210,0.909439,-1.39563,-0.147547,0.005889,-0.061403,0.142497,0.0,22.0,68.0,170.0,25.0,0.0
710211,0.939808,-1.391244,-0.108225,-0.082647,-0.241599,0.159053,0.0,22.0,68.0,170.0,25.0,0.0
710212,0.935442,-1.387831,-0.101511,-0.179248,-0.322328,0.112403,0.0,22.0,68.0,170.0,25.0,0.0
710213,0.910057,-1.3858469999999998,-0.118634,-0.214896,-0.354512,0.059025,0.0,22.0,68.0,170.0,25.0,0.0
710214,0.8738469999999999,-1.383397,-0.15651900000000002,-0.18241,-0.352609,-0.073255,0.0,22.0,68.0,170.0,25.0,0.0
710215,0.833109,-1.378549,-0.20970500000000006,-0.183508,-0.35438000000000003,-0.188891,0.0,22.0,68.0,170.0,25.0,0.0
710216,0.793968,-1.3713799999999998,-0.268041,-0.142492,-0.395572,-0.104477,0.0,22.0,68.0,170.0,25.0,0.0
710217,0.7542810000000001,-1.361991,-0.330011,0.025474,-0.333611,-0.080532,0.0,22.0,68.0,170.0,25.0,0.0
710218,0.719536,-1.351736,-0.38218,0.188036,-0.229169,-0.032174,0.0,22.0,68.0,170.0,25.0,0.0
710219,0.70152,-1.34086,-0.406966,0.32355,-0.109957,-0.065177,0.0,22.0,68.0,170.0,25.0,0.0
710220,0.691511,-1.328885,-0.411616,0.476521,0.044423,-0.115124,0.0,22.0,68.0,170.0,25.0,0.0
710221,0.675078,-1.314812,-0.412475,0.519634,0.041695,-0.025957,0.0,22.0,68.0,170.0,25.0,0.0
710222,0.625096,-1.2982790000000002,-0.43441,0.448224,-0.137794,0.08250299999999999,0.0,22.0,68.0,170.0,25.0,0.0
710223,0.531365,-1.272692,-0.491282,0.292947,-0.075127,0.16619,0.0,22.0,68.0,170.0,25.0,0.0
710224,0.415124,-1.228418,-0.5685100000000001,0.018409,0.186474,0.047036,0.0,22.0,68.0,170.0,25.0,0.0
710225,0.298323,-1.164037,-0.650301,-0.371716,0.565387,-0.17118699999999998,0.0,22.0,68.0,170.0,25.0,0.0
710226,0.194929,-1.088176,-0.725855,-0.5867060000000001,0.731055,-0.053599,0.0,22.0,68.0,170.0,25.0,0.0
710227,0.118002,-1.022127,-0.7769159999999999,-0.626709,0.615241,0.113125,0.0,22.0,68.0,170.0,25.0,0.0
710228,0.084797,-0.974689,-0.7968850000000001,-0.564029,0.543887,0.160314,0.0,22.0,68.0,170.0,25.0,0.0
710229,0.095682,-0.939662,-0.79873,-0.051627,0.244964,-0.019373,0.0,22.0,68.0,170.0,25.0,0.0
710230,0.122004,-0.917066,-0.797018,0.1128,0.27415700000000004,-0.044959,0.0,22.0,68.0,170.0,25.0,0.0
710231,0.140456,-0.900795,-0.7943600000000001,0.070261,0.319024,-0.072216,0.0,22.0,68.0,170.0,25.0,0.0
710232,0.145572,-0.896194,-0.7919430000000001,0.040395,0.2515,-0.028641000000000007,0.0,22.0,68.0,170.0,25.0,0.0
710233,0.156836,-0.909777,-0.77888,-0.026478,-0.062209,0.137973,0.0,22.0,68.0,170.0,25.0,0.0
710234,0.186831,-0.938779,-0.752808,-0.155892,-0.290052,0.175052,0.0,22.0,68.0,170.0,25.0,0.0
710235,0.229093,-0.977695,-0.71773,-0.16681700000000002,-0.426181,0.149007,0.0,22.0,68.0,170.0,25.0,0.0
710236,0.269813,-1.023092,-0.68238,-0.074058,-0.676064,0.13519,0.0,22.0,68.0,170.0,25.0,0.0
710237,0.297493,-1.0756290000000002,-0.662125,-0.086994,-0.727485,0.037482,0.0,22.0,68.0,170.0,25.0,0.0
710238,0.311578,-1.13212,-0.6554909999999999,-0.027533,-0.757686,-0.002096,0.0,22.0,68.0,170.0,25.0,0.0
710239,0.308229,-1.185153,-0.661091,0.106558,-0.5735140000000001,0.100524,0.0,22.0,68.0,170.0,25.0,0.0
710240,0.288366,-1.229956,-0.680841,0.094847,-0.384323,0.08366,0.0,22.0,68.0,170.0,25.0,0.0
710241,0.253216,-1.266845,-0.717929,0.024585,-0.062453,-0.010681,0.0,22.0,68.0,170.0,25.0,0.0
710242,0.207053,-1.296327,-0.766848,-0.189721,0.34980900000000004,-0.023709,0.0,22.0,68.0,170.0,25.0,0.0
710243,0.16885999999999998,-1.312437,-0.797246,-0.387848,0.364366,0.081084,0.0,22.0,68.0,170.0,25.0,0.0
710244,0.145852,-1.318386,-0.804264,-0.452388,0.026132,0.082307,0.0,22.0,68.0,170.0,25.0,0.0
710245,0.13608900000000002,-1.326912,-0.8089729999999999,-0.6131439999999999,-0.103678,0.03279,0.0,22.0,68.0,170.0,25.0,0.0
710246,0.168267,-1.341508,-0.793089,-0.60328,0.058154,-0.015062,0.0,22.0,68.0,170.0,25.0,0.0
710247,0.247151,-1.35766,-0.750672,-0.414953,0.342742,0.088094,0.0,22.0,68.0,170.0,25.0,0.0
710248,0.345706,-1.3639139999999998,-0.702304,-0.146418,0.647438,0.223881,0.0,22.0,68.0,170.0,25.0,0.0
710249,0.421743,-1.358196,-0.6813170000000001,0.217367,0.178993,0.162652,0.0,22.0,68.0,170.0,25.0,0.0
710250,0.486472,-1.34948,-0.6671,0.289556,-0.083535,0.035676,0.0,22.0,68.0,170.0,25.0,0.0
710251,0.5386489999999999,-1.347784,-0.655446,0.5440159999999999,-0.10991,-0.044767,0.0,22.0,68.0,170.0,25.0,0.0
710252,0.56038,-1.353411,-0.65635,0.62795,0.183615,-0.053104,0.0,22.0,68.0,170.0,25.0,0.0
710253,0.5438029999999999,-1.360354,-0.667349,0.599486,0.4729890000000001,-0.069608,0.0,22.0,68.0,170.0,25.0,0.0
710254,0.537784,-1.3603610000000002,-0.660347,0.711468,1.049221,-0.226392,0.0,22.0,68.0,170.0,25.0,0.0
710255,0.632328,-1.347753,-0.566994,0.25853400000000004,0.13435999999999998,-0.207526,0.0,22.0,68.0,170.0,25.0,0.0
710256,0.716019,-1.337298,-0.483346,-0.164205,-0.389657,-0.021561,0.0,22.0,68.0,170.0,25.0,0.0
710257,0.713251,-1.333153,-0.470529,-0.07122,-0.323488,0.202076,0.0,22.0,68.0,170.0,25.0,0.0
710258,0.682936,-1.334067,-0.475631,0.01429,-0.193759,0.169918,0.0,22.0,68.0,170.0,25.0,0.0
710259,0.665809,-1.337221,-0.4732810000000001,-0.024211,-0.078955,0.101746,0.0,22.0,68.0,170.0,25.0,0.0
710260,0.667764,-1.341475,-0.462222,-0.147872,-0.135259,0.054406,0.0,22.0,68.0,170.0,25.0,0.0
710261,0.670666,-1.344595,-0.45399,-0.117509,-0.23922,0.018001,0.0,22.0,68.0,170.0,25.0,0.0
710262,0.661788,-1.344284,-0.458855,-0.116771,-0.397521,-0.004684000000000001,0.0,22.0,68.0,170.0,25.0,0.0
710263,0.636462,-1.341284,-0.484716,-0.075525,-0.465995,-0.083414,0.0,22.0,68.0,170.0,25.0,0.0
710264,0.6029680000000001,-1.336087,-0.521472,0.166991,-0.223665,-0.018212,0.0,22.0,68.0,170.0,25.0,0.0
710265,0.574396,-1.3289,-0.553238,0.235648,-0.166427,-0.026055,0.0,22.0,68.0,170.0,25.0,0.0
710266,0.551207,-1.319055,-0.5718810000000001,0.264506,-0.116277,-0.068715,0.0,22.0,68.0,170.0,25.0,0.0
710267,0.542179,-1.306531,-0.570734,0.354783,-0.036147000000000006,-0.024261,0.0,22.0,68.0,170.0,25.0,0.0
710268,0.526598,-1.291925,-0.564922,0.379549,-0.103258,0.016541999999999998,0.0,22.0,68.0,170.0,25.0,0.0
710269,0.48775,-1.273103,-0.5740649999999999,0.4159310000000001,-0.168952,0.045092,0.0,22.0,68.0,170.0,25.0,0.0
710270,0.4253520000000001,-1.246523,-0.603791,0.284021,0.023629,0.083396,0.0,22.0,68.0,170.0,25.0,0.0
710271,0.34662800000000005,-1.208823,-0.643888,0.059734,0.330471,0.035207,0.0,22.0,68.0,170.0,25.0,0.0
710272,0.26605,-1.159794,-0.6827850000000001,-0.170154,0.585675,-0.056194000000000015,0.0,22.0,68.0,170.0,25.0,0.0
710273,0.196376,-1.103146,-0.711867,-0.439748,0.760538,0.013964,0.0,22.0,68.0,170.0,25.0,0.0
710274,0.139574,-1.0479379999999998,-0.7298819999999999,-0.549864,0.680068,0.121181,0.0,22.0,68.0,170.0,25.0,0.0
710275,0.099537,-1.0018129999999998,-0.735232,-0.487484,0.459095,0.111228,0.0,22.0,68.0,170.0,25.0,0.0
710276,0.087982,-0.96699,-0.7268979999999999,-0.278833,0.292024,-0.025816,0.0,22.0,68.0,170.0,25.0,0.0
710277,0.103241,-0.944461,-0.7137760000000001,-0.117829,0.305206,-0.150066,0.0,22.0,68.0,170.0,25.0,0.0
710278,0.136426,-0.935041,-0.7008770000000001,0.054679999999999986,0.221621,-0.14006500000000002,0.0,22.0,68.0,170.0,25.0,0.0
710279,0.169746,-0.935667,-0.687045,0.07561799999999999,0.163572,-0.067314,0.0,22.0,68.0,170.0,25.0,0.0
710280,0.199608,-0.946454,-0.668723,-0.033894,0.08580800000000001,0.062916,0.0,22.0,68.0,170.0,25.0,0.0
710281,0.236639,-0.967053,-0.638316,-0.076196,-0.07173600000000001,0.20565300000000006,0.0,22.0,68.0,170.0,25.0,0.0
710282,0.278395,-0.994687,-0.5989,-0.12943,-0.259517,0.288149,0.0,22.0,68.0,170.0,25.0,0.0
710283,0.31458200000000003,-1.02732,-0.559665,-0.164827,-0.401342,0.309776,0.0,22.0,68.0,170.0,25.0,0.0
710284,0.34115300000000004,-1.063969,-0.526922,-0.187337,-0.522803,0.249928,0.0,22.0,68.0,170.0,25.0,0.0
710285,0.360517,-1.104924,-0.5037119999999999,-0.117169,-0.59654,0.151435,0.0,22.0,68.0,170.0,25.0,0.0
710286,0.369539,-1.150255,-0.498809,-0.08361299999999999,-0.5320550000000001,0.046451,0.0,22.0,68.0,170.0,25.0,0.0
710287,0.368291,-1.196359,-0.5107010000000001,-0.023676,-0.402591,-0.013558,0.0,22.0,68.0,170.0,25.0,0.0
710288,0.358698,-1.238748,-0.535127,-0.023159,-0.157749,-0.09441,0.0,22.0,68.0,170.0,25.0,0.0
710289,0.341118,-1.27421,-0.569028,-0.103158,0.093328,-0.190616,0.0,22.0,68.0,170.0,25.0,0.0
710290,0.314541,-1.300827,-0.602925,-0.186043,0.231716,-0.117767,0.0,22.0,68.0,170.0,25.0,0.0
710291,0.278258,-1.31559,-0.6310600000000001,-0.172217,-0.008246,0.051694,0.0,22.0,68.0,170.0,25.0,0.0
710292,0.229863,-1.319445,-0.665983,-0.194287,-0.247142,0.07253899999999999,0.0,22.0,68.0,170.0,25.0,0.0
710293,0.197499,-1.318461,-0.69521,-0.236062,-0.279184,0.067231,0.0,22.0,68.0,170.0,25.0,0.0
710294,0.21975,-1.3199530000000002,-0.689609,-0.396027,-0.021255,0.026203,0.0,22.0,68.0,170.0,25.0,0.0
710295,0.290848,-1.326454,-0.65333,-0.411292,-0.022848,0.015708,0.0,22.0,68.0,170.0,25.0,0.0
710296,0.378907,-1.3332,-0.6088,-0.303769,0.690233,0.120193,0.0,22.0,68.0,170.0,25.0,0.0
710297,0.4574470000000001,-1.337756,-0.576947,0.277247,-0.252937,0.009988,0.0,22.0,68.0,170.0,25.0,0.0
710298,0.5239739999999999,-1.334664,-0.56445,0.353426,-0.298346,-0.044207,0.0,22.0,68.0,170.0,25.0,0.0
710299,0.576658,-1.327231,-0.556918,0.5221060000000001,-0.109293,0.093065,0.0,22.0,68.0,170.0,25.0,0.0
710300,0.608124,-1.327397,-0.532533,0.701755,0.334148,0.083294,0.0,22.0,68.0,170.0,25.0,0.0
710301,0.626127,-1.330794,-0.4964520000000001,0.8400110000000001,0.693702,-0.271025,0.0,22.0,68.0,170.0,25.0,0.0
710302,0.685193,-1.330578,-0.424046,0.459046,0.961087,-0.29404,0.0,22.0,68.0,170.0,25.0,0.0
710303,0.753588,-1.322853,-0.348532,0.061736,0.444445,-0.011589,0.0,22.0,68.0,170.0,25.0,0.0
710304,0.799542,-1.313856,-0.296048,-0.070124,0.033408,0.0608,0.0,22.0,68.0,170.0,25.0,0.0
710305,0.7994180000000001,-1.30728,-0.284817,-0.003873,-0.059657,0.141348,0.0,22.0,68.0,170.0,25.0,0.0
710306,0.776932,-1.303822,-0.287748,-0.000831,-0.071202,0.146003,0.0,22.0,68.0,170.0,25.0,0.0
710307,0.752016,-1.305563,-0.291154,-0.093465,-0.094197,0.139209,0.0,22.0,68.0,170.0,25.0,0.0
710308,0.735604,-1.313379,-0.290563,-0.215268,-0.140741,0.102665,0.0,22.0,68.0,170.0,25.0,0.0
710309,0.7349319999999999,-1.325204,-0.283937,-0.21922600000000006,-0.191444,0.048186,0.0,22.0,68.0,170.0,25.0,0.0
710310,0.743002,-1.337704,-0.275144,-0.169951,-0.20077,-0.01144,0.0,22.0,68.0,170.0,25.0,0.0
710311,0.751826,-1.349328,-0.269475,-0.036559,-0.215398,-0.064433,0.0,22.0,68.0,170.0,25.0,0.0
710312,0.753546,-1.358622,-0.27499,0.153335,-0.239966,-0.052253,0.0,22.0,68.0,170.0,25.0,0.0
710313,0.731697,-1.362141,-0.304227,0.246655,-0.2342,-0.07544400000000001,0.0,22.0,68.0,170.0,25.0,0.0
710314,0.699052,-1.361036,-0.33562800000000004,0.282528,-0.20510100000000006,-0.08745499999999999,0.0,22.0,68.0,170.0,25.0,0.0
710315,0.662867,-1.356297,-0.358325,0.277199,-0.154909,-0.087681,0.0,22.0,68.0,170.0,25.0,0.0
710316,0.614549,-1.3463969999999998,-0.384489,0.240059,-0.096449,-0.073503,0.0,22.0,68.0,170.0,25.0,0.0
710317,0.5555829999999999,-1.331933,-0.4148810000000001,0.233806,-0.100148,-0.052772,0.0,22.0,68.0,170.0,25.0,0.0
710318,0.484029,-1.314412,-0.451303,0.295447,-0.118329,-0.019259,0.0,22.0,68.0,170.0,25.0,0.0
710319,0.396995,-1.293239,-0.500011,0.27323600000000003,-0.06477000000000001,0.06416000000000001,0.0,22.0,68.0,170.0,25.0,0.0
710320,0.29990100000000003,-1.266342,-0.556693,0.128664,0.093627,0.122696,0.0,22.0,68.0,170.0,25.0,0.0
710321,0.2057,-1.229968,-0.610414,-0.108421,0.333416,0.027263,0.0,22.0,68.0,170.0,25.0,0.0
710322,0.128194,-1.18367,-0.651837,-0.272538,0.501599,0.006466,0.0,22.0,68.0,170.0,25.0,0.0
710323,0.06918200000000001,-1.133835,-0.6772699999999999,-0.375994,0.485483,0.110652,0.0,22.0,68.0,170.0,25.0,0.0
710324,0.024471,-1.083695,-0.6948810000000001,-0.493768,0.421925,0.169022,0.0,22.0,68.0,170.0,25.0,0.0
710325,0.001355,-1.03945,-0.705689,-0.469818,0.304363,0.053966,0.0,22.0,68.0,170.0,25.0,0.0
710326,0.005312,-1.005149,-0.707178,-0.144983,0.268261,-0.049204000000000005,0.0,22.0,68.0,170.0,25.0,0.0
710327,0.017902,-0.980413,-0.706209,-0.040758,0.233955,-0.01209,0.0,22.0,68.0,170.0,25.0,0.0
710328,0.03355,-0.965805,-0.700584,-0.1041,0.206912,-0.061494000000000014,0.0,22.0,68.0,170.0,25.0,0.0
710329,0.055544,-0.961971,-0.686893,-0.090374,0.12911199999999998,-0.12726600000000002,0.0,22.0,68.0,170.0,25.0,0.0
710330,0.08390299999999999,-0.969477,-0.6671279999999999,-0.11883699999999997,0.062037,-0.031169,0.0,22.0,68.0,170.0,25.0,0.0
710331,0.121444,-0.987098,-0.6379729999999999,-0.111016,-0.087741,0.164685,0.0,22.0,68.0,170.0,25.0,0.0
710332,0.15978299999999998,-1.010683,-0.606582,-0.089366,-0.273327,0.333383,0.0,22.0,68.0,170.0,25.0,0.0
710333,0.192669,-1.037588,-0.581331,-0.08780700000000001,-0.389638,0.334511,0.0,22.0,68.0,170.0,25.0,0.0
710334,0.21879,-1.068776,-0.562954,-0.113507,-0.437647,0.220444,0.0,22.0,68.0,170.0,25.0,0.0
710335,0.2408,-1.10654,-0.548381,-0.048783,-0.4719140000000001,0.124612,0.0,22.0,68.0,170.0,25.0,0.0
710336,0.258221,-1.150354,-0.542654,0.003101,-0.4829310000000001,0.024545,0.0,22.0,68.0,170.0,25.0,0.0
710337,0.265681,-1.1968379999999998,-0.551177,0.027909,-0.416698,-0.038459,0.0,22.0,68.0,170.0,25.0,0.0
710338,0.257128,-1.242301,-0.577519,0.035465,-0.370601,-0.092711,0.0,22.0,68.0,170.0,25.0,0.0
710339,0.233011,-1.283484,-0.616604,0.029491000000000007,-0.071268,-0.167947,0.0,22.0,68.0,170.0,25.0,0.0
710340,0.200014,-1.317367,-0.655269,0.02889,0.099157,-0.20189,0.0,22.0,68.0,170.0,25.0,0.0
710341,0.17252,-1.338541,-0.676327,-0.14263199999999998,0.275629,-0.034674,0.0,22.0,68.0,170.0,25.0,0.0
710342,0.152825,-1.346223,-0.683404,-0.192424,0.142069,0.045885,0.0,22.0,68.0,170.0,25.0,0.0
710343,0.156846,-1.344326,-0.6716409999999999,-0.359918,-0.036812,0.040768,0.0,22.0,68.0,170.0,25.0,0.0
710344,0.204099,-1.341874,-0.6266390000000001,-0.35585500000000003,-0.070774,-0.013332,0.0,22.0,68.0,170.0,25.0,0.0
710345,0.29938400000000004,-1.350565,-0.551447,-0.119178,0.011992,0.265119,0.0,22.0,68.0,170.0,25.0,0.0
710346,0.382734,-1.363171,-0.488596,-0.131732,0.009316,0.247604,0.0,22.0,68.0,170.0,25.0,0.0
710347,0.409764,-1.369062,-0.479056,0.161233,-0.194427,0.271977,0.0,22.0,68.0,170.0,25.0,0.0
710348,0.415558,-1.368155,-0.494967,0.371404,-0.029145,0.061845,0.0,22.0,68.0,170.0,25.0,0.0
710349,0.43608,-1.370441,-0.490316,0.4774600000000001,0.243179,-0.063809,0.0,22.0,68.0,170.0,25.0,0.0
710350,0.468866,-1.369998,-0.4693640000000001,0.531669,0.731243,-0.299643,0.0,22.0,68.0,170.0,25.0,0.0
710351,0.514668,-1.36714,-0.423575,0.39591,0.5316529999999999,-0.326054,0.0,22.0,68.0,170.0,25.0,0.0
710352,0.583034,-1.363146,-0.349682,0.28826,0.287519,-0.095048,0.0,22.0,68.0,170.0,25.0,0.0
710353,0.6397729999999999,-1.359718,-0.290003,0.295586,0.294732,-0.066372,0.0,22.0,68.0,170.0,25.0,0.0
710354,0.6541359999999999,-1.355969,-0.269963,0.289918,0.057624,-0.034837,0.0,22.0,68.0,170.0,25.0,0.0
710355,0.636267,-1.355773,-0.270777,0.168183,-0.193692,0.12681900000000002,0.0,22.0,68.0,170.0,25.0,0.0
710356,0.604823,-1.360528,-0.2752,0.145584,-0.281442,0.107349,0.0,22.0,68.0,170.0,25.0,0.0
710357,0.57558,-1.3685040000000002,-0.275877,0.034955,-0.280665,-0.070684,0.0,22.0,68.0,170.0,25.0,0.0
710358,0.5578350000000001,-1.379004,-0.271564,-0.066419,-0.214574,-0.15601199999999998,0.0,22.0,68.0,170.0,25.0,0.0
710359,0.5457270000000001,-1.390632,-0.269825,-0.10053,-0.125874,-0.22205,0.0,22.0,68.0,170.0,25.0,0.0
710360,0.53313,-1.402035,-0.274575,-0.018652,-0.046539,-0.122224,0.0,22.0,68.0,170.0,25.0,0.0
710361,0.5045069999999999,-1.410208,-0.296375,0.122843,0.003406,-0.087149,0.0,22.0,68.0,170.0,25.0,0.0
710362,0.45178,-1.411632,-0.340996,0.276159,-0.066843,-0.069628,0.0,22.0,68.0,170.0,25.0,0.0
710363,0.367237,-1.403275,-0.41162,0.28231300000000004,-0.134484,-0.053485000000000005,0.0,22.0,68.0,170.0,25.0,0.0
710364,0.249021,-1.38077,-0.5028100000000001,0.308612,-0.230046,0.033538,0.0,22.0,68.0,170.0,25.0,0.0
710365,0.112726,-1.340343,-0.59755,0.124574,-0.239035,0.15778599999999998,0.0,22.0,68.0,170.0,25.0,0.0
710366,-0.011991,-1.286773,-0.669413,0.06911,-0.185232,0.204608,0.0,22.0,68.0,170.0,25.0,0.0
710367,-0.100039,-1.223592,-0.70398,-0.246122,0.103801,0.198264,0.0,22.0,68.0,170.0,25.0,0.0
710368,-0.145744,-1.1577110000000002,-0.71021,-0.300373,0.413825,0.232248,0.0,22.0,68.0,170.0,25.0,0.0
710369,-0.16125699999999998,-1.098764,-0.703337,-0.305779,0.5729770000000001,0.131492,0.0,22.0,68.0,170.0,25.0,0.0
710370,-0.144478,-1.050825,-0.682401,-0.334517,0.344462,-0.037359,0.0,22.0,68.0,170.0,25.0,0.0
710371,-0.093953,-1.022198,-0.643356,-0.214626,0.112228,-0.097996,0.0,22.0,68.0,170.0,25.0,0.0
710372,-0.018545,-1.008424,-0.590309,-0.134446,0.037888,-0.054130999999999985,0.0,22.0,68.0,170.0,25.0,0.0
710373,0.064426,-0.999351,-0.533262,-0.03418,0.231756,-0.147866,0.0,22.0,68.0,170.0,25.0,0.0
710374,0.128458,-0.998894,-0.485677,0.088411,0.227136,-0.155564,0.0,22.0,68.0,170.0,25.0,0.0
710375,0.177602,-1.012826,-0.442517,0.123684,0.031582,0.060215,0.0,22.0,68.0,170.0,25.0,0.0
710376,0.216862,-1.036514,-0.401944,0.07041,-0.275841,0.196698,0.0,22.0,68.0,170.0,25.0,0.0
710377,0.244528,-1.067777,-0.367175,-0.000971,-0.404955,0.197407,0.0,22.0,68.0,170.0,25.0,0.0
710378,0.2626,-1.108691,-0.343509,-0.099271,-0.444875,0.063286,0.0,22.0,68.0,170.0,25.0,0.0
710379,0.271282,-1.16,-0.334503,-0.078766,-0.45083,-0.075425,0.0,22.0,68.0,170.0,25.0,0.0
710380,0.26301,-1.218136,-0.346412,-0.010148,-0.391658,-0.1475,0.0,22.0,68.0,170.0,25.0,0.0
710381,0.227128,-1.274841,-0.384338,-4.7e-05,-0.143795,-0.204347,0.0,22.0,68.0,170.0,25.0,0.0
710382,0.165632,-1.318263,-0.440163,-0.08668200000000001,0.307489,-0.314185,0.0,22.0,68.0,170.0,25.0,0.0
710383,0.10965,-1.341616,-0.483036,-0.21808200000000005,0.648065,-0.294494,0.0,22.0,68.0,170.0,25.0,0.0
710384,0.090983,-1.341159,-0.492987,-0.061911,0.268347,-0.245165,0.0,22.0,68.0,170.0,25.0,0.0
710385,0.107571,-1.320878,-0.47334,-0.06465499999999999,0.042435,-0.189133,0.0,22.0,68.0,170.0,25.0,0.0
710386,0.15768,-1.298802,-0.436365,-0.09785,-0.235286,-0.113311,0.0,22.0,68.0,170.0,25.0,0.0
710387,0.224061,-1.287041,-0.40481,-0.005183,0.013256,0.108811,0.0,22.0,68.0,170.0,25.0,0.0
710388,0.275304,-1.276106,-0.394754,0.13706500000000002,0.174959,0.237392,0.0,22.0,68.0,170.0,25.0,0.0
710389,0.284997,-1.2721559999999998,-0.407983,0.230374,0.17258900000000002,0.392628,0.0,22.0,68.0,170.0,25.0,0.0
710390,0.260818,-1.269224,-0.446458,0.318075,0.134927,0.406056,0.0,22.0,68.0,170.0,25.0,0.0
710391,0.224194,-1.2665879999999998,-0.48582,0.4733850000000001,-0.12924000000000002,0.566517,0.0,22.0,68.0,170.0,25.0,0.0
710392,0.187378,-1.279321,-0.503922,0.487591,0.841297,0.21686,0.0,22.0,68.0,170.0,25.0,0.0
710393,0.168655,-1.31255,-0.485937,0.577585,1.3404120000000002,-0.06847400000000001,0.0,22.0,68.0,170.0,25.0,0.0
710394,0.201701,-1.336825,-0.420497,0.16403299999999998,0.485346,0.150574,0.0,22.0,68.0,170.0,25.0,0.0
710395,0.254066,-1.347445,-0.343583,-0.08503,0.06564099999999999,0.088091,0.0,22.0,68.0,170.0,25.0,0.0
710396,0.28631,-1.360801,-0.284738,-0.225237,-0.10378,0.072925,0.0,22.0,68.0,170.0,25.0,0.0
710397,0.270969,-1.375874,-0.270848,-0.193324,-0.098021,0.20517800000000005,0.0,22.0,68.0,170.0,25.0,0.0
710398,0.230233,-1.393945,-0.284871,-0.13016,-0.058163,0.240381,0.0,22.0,68.0,170.0,25.0,0.0
710399,0.199673,-1.41611,-0.300685,-0.078716,-0.173729,0.162499,0.0,22.0,68.0,170.0,25.0,0.0
710400,0.17387,-1.439909,-0.325613,-0.049571,-0.271369,0.095877,0.0,22.0,68.0,170.0,25.0,0.0
710401,0.127012,-1.464164,-0.382425,0.016822,-0.284344,0.043714,0.0,22.0,68.0,170.0,25.0,0.0
710402,0.005999,-1.488424,-0.5148020000000001,0.120295,-0.22453,0.080386,0.0,22.0,68.0,170.0,25.0,0.0
710403,-0.286188,-1.509066,-0.809497,0.226537,-0.182589,0.140146,0.0,22.0,68.0,170.0,25.0,0.0
710404,-0.8231280000000001,-1.519782,-1.345036,0.333229,-0.090999,0.055164,0.0,22.0,68.0,170.0,25.0,0.0
710405,-1.387055,-1.513203,-1.905576,0.345441,-0.012548,-0.013851,0.0,22.0,68.0,170.0,25.0,0.0
710406,-1.7121669999999998,-1.497184,-2.2233110000000003,0.198377,0.179054,-0.252825,0.0,22.0,68.0,170.0,25.0,0.0
710407,-1.869778,-1.48225,-2.372046,0.193806,0.149944,-0.321106,0.0,22.0,68.0,170.0,25.0,0.0
710408,-1.921277,-1.472846,-2.415428,0.355903,0.147555,-0.242791,0.0,22.0,68.0,170.0,25.0,0.0
710409,-1.909128,-1.46797,-2.393993,0.484567,0.171465,-0.217098,0.0,22.0,68.0,170.0,25.0,0.0
710410,-1.870258,-1.463936,-2.343939,0.518749,0.18855,-0.228562,0.0,22.0,68.0,170.0,25.0,0.0
710411,-1.7983209999999998,-1.4604,-2.254842,0.522845,0.27478,-0.102915,0.0,22.0,68.0,170.0,25.0,0.0
710412,-1.639485,-1.45806,-2.069413,0.472568,0.331543,-0.039994,0.0,22.0,68.0,170.0,25.0,0.0
710413,-1.378804,-1.456251,-1.774091,0.412731,0.203544,0.056263,0.0,22.0,68.0,170.0,25.0,0.0
710414,-1.047348,-1.4452120000000002,-1.397197,0.252648,0.03969,0.26421,0.0,22.0,68.0,170.0,25.0,0.0
710415,-0.729442,-1.415944,-1.021317,0.068381,0.049762,0.215345,0.0,22.0,68.0,170.0,25.0,0.0
710416,-0.510279,-1.370251,-0.738535,-0.067088,0.377159,0.16107,0.0,22.0,68.0,170.0,25.0,0.0
710417,-0.3667510000000001,-1.316794,-0.541443,-0.109083,0.8621639999999999,0.248638,0.0,22.0,68.0,170.0,25.0,0.0
710418,-0.262897,-1.264123,-0.412656,-0.0010279999999999998,0.6646380000000001,0.20799,0.0,22.0,68.0,170.0,25.0,0.0
710419,-0.170375,-1.219631,-0.315991,0.22388200000000005,0.38842,0.020896,0.0,22.0,68.0,170.0,25.0,0.0
710420,-0.08441699999999999,-1.179702,-0.223544,0.350074,0.341056,0.030783,0.0,22.0,68.0,170.0,25.0,0.0
710421,-0.017075999999999997,-1.142658,-0.126582,0.437082,0.339512,0.200778,0.0,22.0,68.0,170.0,25.0,0.0
710422,0.022494,-1.110096,-0.023546,0.403422,0.283015,0.336538,0.0,22.0,68.0,170.0,25.0,0.0
710423,0.043158,-1.079838,0.084763,0.307707,0.128113,0.362786,0.0,22.0,68.0,170.0,25.0,0.0
710424,0.033485,-1.053782,0.177714,0.195198,-0.124273,0.522895,0.0,22.0,68.0,170.0,25.0,0.0
710425,0.000771,-1.037983,0.259233,0.193655,-0.236686,0.595224,0.0,22.0,68.0,170.0,25.0,0.0
710426,-0.038662,-1.0327309999999998,0.33355,0.206835,-0.351576,0.613549,0.0,22.0,68.0,170.0,25.0,0.0
710427,-0.081083,-1.034262,0.397293,0.112324,-0.434207,0.544683,0.0,22.0,68.0,170.0,25.0,0.0
710428,-0.120948,-1.04227,0.453437,0.043293,-0.415599,0.484708,0.0,22.0,68.0,170.0,25.0,0.0
710429,-0.154069,-1.056438,0.505051,-0.013307,-0.26543,0.420521,0.0,22.0,68.0,170.0,25.0,0.0
710430,-0.178661,-1.074324,0.552867,-0.045188,-0.201488,0.351374,0.0,22.0,68.0,170.0,25.0,0.0
710431,-0.189059,-1.097932,0.600212,-0.067072,-0.183023,0.316158,0.0,22.0,68.0,170.0,25.0,0.0
710432,-0.18678,-1.127769,0.643208,-0.239793,0.07431,0.218188,0.0,22.0,68.0,170.0,25.0,0.0
710433,-0.181868,-1.160883,0.6709510000000001,-0.247316,0.060613,0.188924,0.0,22.0,68.0,170.0,25.0,0.0
710434,-0.172751,-1.192999,0.688326,-0.488473,0.443934,0.07798300000000001,0.0,22.0,68.0,170.0,25.0,0.0
710435,-0.149586,-1.21572,0.719661,-0.346961,0.337862,-0.126191,0.0,22.0,68.0,170.0,25.0,0.0
710436,-0.123683,-1.224141,0.760868,-0.165452,0.226982,-0.223662,0.0,22.0,68.0,170.0,25.0,0.0
710437,-0.098987,-1.218715,0.8006939999999999,0.038993,-0.049878,-0.271079,0.0,22.0,68.0,170.0,25.0,0.0
710438,-0.08362,-1.19981,0.834426,0.245276,-0.252756,-0.341475,0.0,22.0,68.0,170.0,25.0,0.0
710439,-0.07542,-1.176878,0.8648040000000001,0.490254,-0.374081,-0.273059,0.0,22.0,68.0,170.0,25.0,0.0
710440,-0.056825,-1.161701,0.8968139999999999,0.604669,-0.29588400000000004,-0.124408,0.0,22.0,68.0,170.0,25.0,0.0
710441,0.008017,-1.157828,0.963973,0.337008,0.10658800000000003,-0.108769,0.0,22.0,68.0,170.0,25.0,0.0
710442,0.097868,-1.165553,1.0509879999999998,0.8630129999999999,1.139755,0.201331,0.0,22.0,68.0,170.0,25.0,0.0
710443,0.161701,-1.194908,1.106356,0.282069,1.070169,0.739157,0.0,22.0,68.0,170.0,25.0,0.0
710444,0.17619500000000002,-1.212934,1.145125,-0.245693,-0.255938,0.235979,0.0,22.0,68.0,170.0,25.0,0.0
710445,0.118051,-1.218921,1.141465,-0.212834,-0.583091,0.266683,0.0,22.0,68.0,170.0,25.0,0.0
710446,0.03833,-1.234734,1.103873,0.059857000000000014,-0.5282279999999999,0.324754,0.0,22.0,68.0,170.0,25.0,0.0
710447,-0.058092,-1.2531219999999998,1.040391,0.174446,-0.087858,0.4975,0.0,22.0,68.0,170.0,25.0,0.0
710448,-0.158712,-1.271348,0.966609,0.152076,0.118781,0.39532,0.0,22.0,68.0,170.0,25.0,0.0
710449,-0.243094,-1.293058,0.8937290000000001,0.064807,0.270622,0.240623,0.0,22.0,68.0,170.0,25.0,0.0
710450,-0.277575,-1.326444,0.8560989999999999,0.18104,0.261197,0.040651,0.0,22.0,68.0,170.0,25.0,0.0
710451,-0.277472,-1.360109,0.8494870000000001,0.17835,0.105029,0.034538,0.0,22.0,68.0,170.0,25.0,0.0
710452,-0.289597,-1.384673,0.8378950000000001,0.15074400000000002,-0.186037,0.028907,0.0,22.0,68.0,170.0,25.0,0.0
710453,-0.327433,-1.402209,0.8132199999999999,0.177926,-0.256804,0.047349,0.0,22.0,68.0,170.0,25.0,0.0
710454,-0.379706,-1.417509,0.7828390000000001,0.206526,-0.256188,0.064663,0.0,22.0,68.0,170.0,25.0,0.0
710455,-0.446873,-1.434431,0.742748,0.169114,-0.203348,0.084478,0.0,22.0,68.0,170.0,25.0,0.0
710456,-0.548489,-1.453039,0.6717770000000001,0.127922,-0.181688,0.10763699999999997,0.0,22.0,68.0,170.0,25.0,0.0
710457,-0.709287,-1.469768,0.537876,0.131208,-0.099653,0.156657,0.0,22.0,68.0,170.0,25.0,0.0
710458,-0.936938,-1.482845,0.324304,0.097066,-0.054117999999999986,0.120047,0.0,22.0,68.0,170.0,25.0,0.0
710459,-1.2418,-1.489106,0.021774,0.125639,0.075799,-0.015994,0.0,22.0,68.0,170.0,25.0,0.0
710460,-1.577421,-1.485898,-0.315863,0.161669,0.08426,-0.18649,0.0,22.0,68.0,170.0,25.0,0.0
710461,-1.83415,-1.474318,-0.571203,0.267507,-0.002063,-0.212851,0.0,22.0,68.0,170.0,25.0,0.0
710462,-1.989181,-1.462156,-0.71892,0.385634,0.016165000000000002,-0.090652,0.0,22.0,68.0,170.0,25.0,0.0
710463,-2.061946,-1.453708,-0.780667,0.361526,0.056926,-0.073789,0.0,22.0,68.0,170.0,25.0,0.0
710464,-2.073236,-1.449768,-0.777408,0.33667800000000003,0.164618,-0.174428,0.0,22.0,68.0,170.0,25.0,0.0
710465,-2.053428,-1.448115,-0.7390720000000001,0.234753,0.186898,-0.25931,0.0,22.0,68.0,170.0,25.0,0.0
710466,-2.02535,-1.448395,-0.690235,0.362445,0.231542,-0.162632,0.0,22.0,68.0,170.0,25.0,0.0
710467,-1.933885,-1.452883,-0.5790529999999999,0.360016,0.252854,-0.030902,0.0,22.0,68.0,170.0,25.0,0.0
710468,-1.716633,-1.465244,-0.336069,0.337438,0.357769,-0.015707,0.0,22.0,68.0,170.0,25.0,0.0
710469,-1.347541,-1.476525,0.065319,0.350188,0.150436,0.07996900000000001,0.0,22.0,68.0,170.0,25.0,0.0
710470,-0.8353879999999999,-1.472338,0.616001,0.02016,-0.0505,0.165741,0.0,22.0,68.0,170.0,25.0,0.0
710471,-0.39791,-1.437282,1.099561,-0.162727,0.078266,0.139747,0.0,22.0,68.0,170.0,25.0,0.0
710472,-0.166478,-1.377825,1.376496,-0.262837,0.452979,0.081337,0.0,22.0,68.0,170.0,25.0,0.0
710473,-0.058069,-1.308539,1.516016,-0.262785,0.717497,0.180013,0.0,22.0,68.0,170.0,25.0,0.0
710474,0.00615,-1.243756,1.590826,0.09301,0.417932,0.179771,0.0,22.0,68.0,170.0,25.0,0.0
710475,0.07775800000000001,-1.188077,1.663384,0.065977,0.437277,0.230852,0.0,22.0,68.0,170.0,25.0,0.0
710476,0.153379,-1.141424,1.7401919999999995,0.204068,0.472807,0.088766,0.0,22.0,68.0,170.0,25.0,0.0
710477,0.205469,-1.102436,1.814545,0.148025,0.40043,0.181735,0.0,22.0,68.0,170.0,25.0,0.0
710478,0.243808,-1.066223,1.8923,0.042387,0.376985,0.177893,0.0,22.0,68.0,170.0,25.0,0.0
710479,0.265925,-1.033453,1.961329,-0.063365,0.286314,0.18759,0.0,22.0,68.0,170.0,25.0,0.0
710480,0.262033,-1.009931,2.019591,-0.200047,-0.240396,0.461226,0.0,22.0,68.0,170.0,25.0,0.0
710481,0.239888,-0.994461,2.067659,-0.169777,-0.35969,0.506004,0.0,22.0,68.0,170.0,25.0,0.0
710482,0.210568,-0.986101,2.103379,-0.127252,-0.5644560000000001,0.444783,0.0,22.0,68.0,170.0,25.0,0.0
710483,0.18502,-0.987396,2.126402,-0.13758,-0.6443479999999999,0.314321,0.0,22.0,68.0,170.0,25.0,0.0
710484,0.167239,-0.999295,2.138457,-0.099529,-0.679286,0.232675,0.0,22.0,68.0,170.0,25.0,0.0
710485,0.156361,-1.020242,2.141335,-0.039019,-0.612061,0.053857,0.0,22.0,68.0,170.0,25.0,0.0
710486,0.14833,-1.043913,2.137926,-0.080859,-0.556868,0.01084,0.0,22.0,68.0,170.0,25.0,0.0
710487,0.142285,-1.0666,2.130894,-0.105586,-0.545027,-0.003834,0.0,22.0,68.0,170.0,25.0,0.0
710488,0.136139,-1.08766,2.11999,-0.12553399999999998,-0.468657,0.06846100000000001,0.0,22.0,68.0,170.0,25.0,0.0
710489,0.127604,-1.106866,2.103766,-0.116392,-0.353789,0.161327,0.0,22.0,68.0,170.0,25.0,0.0
710490,0.114176,-1.123465,2.081367,-0.058802,-0.306176,0.222179,0.0,22.0,68.0,170.0,25.0,0.0
710491,0.093474,-1.13778,2.056619,0.017612,-0.275883,0.233606,0.0,22.0,68.0,170.0,25.0,0.0
710492,0.066357,-1.1525450000000002,2.031509,0.04335,-0.27046,0.217723,0.0,22.0,68.0,170.0,25.0,0.0
710493,0.037433,-1.171473,2.006273,0.071647,-0.228224,0.174396,0.0,22.0,68.0,170.0,25.0,0.0
710494,0.007915,-1.196046,1.979442,0.088152,-0.141323,0.13031099999999998,0.0,22.0,68.0,170.0,25.0,0.0
710495,-0.016238,-1.225702,1.954463,0.038742,-0.017566,0.066772,0.0,22.0,68.0,170.0,25.0,0.0
710496,-0.023714,-1.2597969999999998,1.938235,-0.136665,0.105391,-0.027816000000000004,0.0,22.0,68.0,170.0,25.0,0.0
710497,-0.009133,-1.29496,1.941731,-0.355987,0.327307,-0.15991,0.0,22.0,68.0,170.0,25.0,0.0
710498,0.033289,-1.321499,1.976962,-0.4911680000000001,0.838607,-0.062099,0.0,22.0,68.0,170.0,25.0,0.0
710499,0.107537,-1.341938,2.029451,-0.064526,0.480389,0.403641,0.0,22.0,68.0,170.0,25.0,0.0
710500,0.179931,-1.350508,2.078795,0.354144,-0.092778,0.304507,0.0,22.0,68.0,170.0,25.0,0.0
710501,0.201575,-1.345022,2.093509,0.428813,-0.089398,0.131591,0.0,22.0,68.0,170.0,25.0,0.0
710502,0.204758,-1.345838,2.100633,0.609429,0.415013,-0.167276,0.0,22.0,68.0,170.0,25.0,0.0
710503,0.217986,-1.34919,2.126589,0.602002,1.421747,-0.386586,0.0,22.0,68.0,170.0,25.0,0.0
710504,0.270867,-1.3398,2.181393,0.091451,0.358059,0.154423,0.0,22.0,68.0,170.0,25.0,0.0
710505,0.343091,-1.330729,2.264116,0.001176,-0.238839,0.288501,0.0,22.0,68.0,170.0,25.0,0.0
710506,0.36561,-1.327785,2.311143,0.192872,-0.349402,0.068579,0.0,22.0,68.0,170.0,25.0,0.0
710507,0.362027,-1.332979,2.333282,0.213027,-0.38372,0.000387,0.0,22.0,68.0,170.0,25.0,0.0
710508,0.353615,-1.344674,2.349255,0.159376,-0.308375,0.092256,0.0,22.0,68.0,170.0,25.0,0.0
710509,0.335664,-1.357742,2.3501,0.054755,-0.16341,0.090668,0.0,22.0,68.0,170.0,25.0,0.0
710510,0.312333,-1.368013,2.341694,0.00591,-0.097704,-0.012326,0.0,22.0,68.0,170.0,25.0,0.0
710511,0.292393,-1.373372,2.330127,-0.102833,-0.167465,-0.147965,0.0,22.0,68.0,170.0,25.0,0.0
710512,0.263966,-1.372463,2.300839,-0.11812,-0.204197,-0.098501,0.0,22.0,68.0,170.0,25.0,0.0
710513,0.218196,-1.366773,2.253774,0.034953,-0.229153,0.017371,0.0,22.0,68.0,170.0,25.0,0.0
710514,0.172138,-1.36073,2.207923,0.182895,-0.214483,-0.029496,0.0,22.0,68.0,170.0,25.0,0.0
710515,0.13386199999999998,-1.354365,2.168682,0.320491,-0.198746,-0.052922,0.0,22.0,68.0,170.0,25.0,0.0
710516,0.104372,-1.34395,2.139277,0.388922,-0.169586,-0.017712000000000002,0.0,22.0,68.0,170.0,25.0,0.0
710517,0.076453,-1.324466,2.117489,0.52645,-0.155468,0.134446,0.0,22.0,68.0,170.0,25.0,0.0
710518,0.038035,-1.28709,2.09773,0.488608,0.006528,0.227452,0.0,22.0,68.0,170.0,25.0,0.0
710519,-0.000161,-1.227057,2.094495,0.195962,0.392911,0.073689,0.0,22.0,68.0,170.0,25.0,0.0
710520,-0.023958,-1.150225,2.113058,-0.152115,0.68303,-0.134666,0.0,22.0,68.0,170.0,25.0,0.0
710521,-0.044383,-1.070543,2.134876,-0.523351,0.922756,-0.061504,0.0,22.0,68.0,170.0,25.0,0.0
710522,-0.06539199999999999,-1.0021209999999998,2.147629,-0.73451,0.749304,0.086788,0.0,22.0,68.0,170.0,25.0,0.0
710523,-0.050764,-0.951905,2.170782,-0.356702,0.258079,0.008935,0.0,22.0,68.0,170.0,25.0,0.0
710524,-0.016627,-0.919109,2.199681,-0.123277,-0.08368099999999999,0.009064,0.0,22.0,68.0,170.0,25.0,0.0
710525,0.023661,-0.8912979999999999,2.229113,-0.032735,0.119634,-0.119866,0.0,22.0,68.0,170.0,25.0,0.0
710526,0.060484,-0.872467,2.248104,-0.033905000000000005,0.192563,-0.13063699999999998,0.0,22.0,68.0,170.0,25.0,0.0
710527,0.092886,-0.8718889999999999,2.264093,-0.009367,0.172,-0.121416,0.0,22.0,68.0,170.0,25.0,0.0
710528,0.130399,-0.890689,2.286793,0.00212,-0.261972,0.165422,0.0,22.0,68.0,170.0,25.0,0.0
710529,0.173876,-0.923127,2.314837,-0.020484,-0.281959,0.13611700000000002,0.0,22.0,68.0,170.0,25.0,0.0
710530,0.214199,-0.963446,2.345236,0.005354,-0.563183,0.14339100000000002,0.0,22.0,68.0,170.0,25.0,0.0
710531,0.238588,-1.010965,2.370216,-0.113646,-0.673852,0.041803,0.0,22.0,68.0,170.0,25.0,0.0
710532,0.250082,-1.065087,2.389011,-0.098159,-0.7424310000000001,0.022978,0.0,22.0,68.0,170.0,25.0,0.0
710533,0.249886,-1.119613,2.399201,-0.046533,-0.766127,-0.0062840000000000005,0.0,22.0,68.0,170.0,25.0,0.0
710534,0.235542,-1.169909,2.396904,0.034145,-0.571121,0.027348,0.0,22.0,68.0,170.0,25.0,0.0
710535,0.21365,-1.214561,2.384875,0.08702,-0.283042,-0.010515,0.0,22.0,68.0,170.0,25.0,0.0
710536,0.198329,-1.252406,2.37259,-0.013079,0.094571,-0.055373,0.0,22.0,68.0,170.0,25.0,0.0
710537,0.213052,-1.275643,2.381832,-0.2619,0.409285,-0.079582,0.0,22.0,68.0,170.0,25.0,0.0
710538,0.272572,-1.285349,2.428968,-0.393448,0.318632,0.092648,0.0,22.0,68.0,170.0,25.0,0.0
710539,0.359425,-1.299165,2.496135,-0.300228,-0.238328,0.335555,0.0,22.0,68.0,170.0,25.0,0.0
710540,0.440937,-1.32255,2.563073,-0.0398,-0.52359,0.511037,0.0,22.0,68.0,170.0,25.0,0.0
710541,0.477587,-1.338883,2.606042,0.07671499999999999,-0.416664,0.491537,0.0,22.0,68.0,170.0,25.0,0.0
710542,0.471318,-1.341905,2.615334,0.170275,-0.308178,0.316066,0.0,22.0,68.0,170.0,25.0,0.0
710543,0.485023,-1.32807,2.639008,0.439181,0.984193,-0.5022909999999999,0.0,22.0,68.0,170.0,25.0,0.0
710544,0.557441,-1.313999,2.702523,0.310676,1.260438,-0.224499,0.0,22.0,68.0,170.0,25.0,0.0
710545,0.6612680000000001,-1.302107,2.795612,0.176098,0.8903270000000001,-0.104056,0.0,22.0,68.0,170.0,25.0,0.0
710546,0.7357090000000001,-1.279726,2.861279,0.30748200000000003,0.6041810000000001,-0.116044,0.0,22.0,68.0,170.0,25.0,0.0
710547,0.785784,-1.2621790000000002,2.911656,0.281844,0.308918,-0.094433,0.0,22.0,68.0,170.0,25.0,0.0
710548,0.799179,-1.2509549999999998,2.935047,0.092533,-0.422811,0.127886,0.0,22.0,68.0,170.0,25.0,0.0
710549,0.77037,-1.247416,2.918517,0.075638,-0.288331,-0.080604,0.0,22.0,68.0,170.0,25.0,0.0
710550,0.713966,-1.24987,2.881705,0.041115,-0.047119,-0.177199,0.0,22.0,68.0,170.0,25.0,0.0
710551,0.661014,-1.256332,2.841912,-0.134561,0.059185,-0.308882,0.0,22.0,68.0,170.0,25.0,0.0
710552,0.611196,-1.260728,2.791069,-0.132996,0.037555,-0.306741,0.0,22.0,68.0,170.0,25.0,0.0
710553,0.562433,-1.260821,2.731116,-0.071335,-0.076548,-0.019952,0.0,22.0,68.0,170.0,25.0,0.0
710554,0.493453,-1.253347,2.652715,-0.029735,-0.158912,0.188648,0.0,22.0,68.0,170.0,25.0,0.0
710555,0.400138,-1.229073,2.556005,0.08502,-0.219156,0.283325,0.0,22.0,68.0,170.0,25.0,0.0
710556,0.302704,-1.184688,2.457748,0.129316,-0.046484,0.322156,0.0,22.0,68.0,170.0,25.0,0.0
710557,0.209639,-1.1158370000000002,2.368949,0.124205,0.2022,0.220256,0.0,22.0,68.0,170.0,25.0,0.0
710558,0.14243499999999998,-1.035068,2.313133,0.0063490000000000005,0.4183770000000001,0.046253,0.0,22.0,68.0,170.0,25.0,0.0
710559,0.10973,-0.962485,2.291925,-0.30985100000000004,0.708408,-0.040628,0.0,22.0,68.0,170.0,25.0,0.0
710560,0.088362,-0.908957,2.280521,-0.25156100000000003,0.822984,-0.051952,0.0,22.0,68.0,170.0,25.0,0.0
710561,0.08492100000000001,-0.875179,2.279326,-0.259512,0.366283,-0.099457,0.0,22.0,68.0,170.0,25.0,0.0
710562,0.107332,-0.8570469999999999,2.292238,-0.341602,-0.155174,-0.108433,0.0,22.0,68.0,170.0,25.0,0.0
710563,0.148161,-0.855773,2.310473,-0.195509,-0.281964,-0.057938,0.0,22.0,68.0,170.0,25.0,0.0
710564,0.192544,-0.874295,2.323671,-0.101354,-0.25844,-0.052996,0.0,22.0,68.0,170.0,25.0,0.0
710565,0.235292,-0.905977,2.333146,0.011759,-0.321498,0.037083,0.0,22.0,68.0,170.0,25.0,0.0
710566,0.27993,-0.944801,2.343793,0.001879,-0.387193,0.052584000000000006,0.0,22.0,68.0,170.0,25.0,0.0
710567,0.33357800000000004,-0.990955,2.363318,0.012348,-0.425905,-0.05131,0.0,22.0,68.0,170.0,25.0,0.0
710568,0.377748,-1.046264,2.384615,0.054438,-0.479328,-0.13535999999999998,0.0,22.0,68.0,170.0,25.0,0.0
710569,0.392276,-1.107613,2.392842,0.08995,-0.524518,-0.152616,0.0,22.0,68.0,170.0,25.0,0.0
710570,0.374745,-1.168733,2.38361,0.157026,-0.27218400000000004,0.025065,0.0,22.0,68.0,170.0,25.0,0.0
710571,0.334757,-1.225269,2.357246,0.162636,-0.160715,0.04145,0.0,22.0,68.0,170.0,25.0,0.0
710572,0.290731,-1.27045,2.326316,0.109789,-0.014438,0.048801,0.0,22.0,68.0,170.0,25.0,0.0
710573,0.26741,-1.300194,2.312744,-0.201706,0.155042,0.031112,0.0,22.0,68.0,170.0,25.0,0.0
710574,0.280147,-1.318116,2.322917,-0.200197,0.15040599999999998,0.013553999999999998,0.0,22.0,68.0,170.0,25.0,0.0
710575,0.32924000000000003,-1.332564,2.357789,-0.448568,0.188964,-0.156695,0.0,22.0,68.0,170.0,25.0,0.0
710576,0.400373,-1.350009,2.410381,-0.424652,0.326338,-0.017544,0.0,22.0,68.0,170.0,25.0,0.0
710577,0.479414,-1.364584,2.46848,-0.220208,0.370704,0.348038,0.0,22.0,68.0,170.0,25.0,0.0
710578,0.535623,-1.367502,2.510133,0.096557,-0.062827,0.275077,0.0,22.0,68.0,170.0,25.0,0.0
710579,0.5575869999999999,-1.357725,2.520259,0.259216,-0.225296,0.213719,0.0,22.0,68.0,170.0,25.0,0.0
710580,0.562593,-1.341923,2.522174,0.283878,-0.113083,0.15526099999999998,0.0,22.0,68.0,170.0,25.0,0.0
710581,0.5472130000000001,-1.327351,2.517678,0.372475,0.412742,-0.106467,0.0,22.0,68.0,170.0,25.0,0.0
710582,0.540702,-1.315806,2.52058,0.357942,0.505112,-0.164819,0.0,22.0,68.0,170.0,25.0,0.0
710583,0.544832,-1.311417,2.528887,0.148979,0.399555,-0.110839,0.0,22.0,68.0,170.0,25.0,0.0
710584,0.5569810000000001,-1.312087,2.539735,0.034499,0.238006,-0.022504,0.0,22.0,68.0,170.0,25.0,0.0
710585,0.5729569999999999,-1.313323,2.5461720000000003,0.219667,0.173085,-0.007965999999999999,0.0,22.0,68.0,170.0,25.0,0.0
710586,0.588903,-1.314882,2.553631,0.213311,0.076925,0.020641,0.0,22.0,68.0,170.0,25.0,0.0
710587,0.5967779999999999,-1.316997,2.5639999999999996,0.203424,-0.010797,0.048398,0.0,22.0,68.0,170.0,25.0,0.0
710588,0.5968359999999999,-1.320095,2.573837,0.102391,-0.166874,0.03483,0.0,22.0,68.0,170.0,25.0,0.0
710589,0.591166,-1.323516,2.581182,0.052701,-0.176232,0.010128,0.0,22.0,68.0,170.0,25.0,0.0
710590,0.581879,-1.325891,2.583653,-0.003893,-0.189505,-0.020979,0.0,22.0,68.0,170.0,25.0,0.0
710591,0.572282,-1.327847,2.582884,-0.13829,-0.271506,-0.159702,0.0,22.0,68.0,170.0,25.0,0.0
710592,0.563686,-1.3292190000000002,2.578562,-0.110826,-0.288299,-0.146349,0.0,22.0,68.0,170.0,25.0,0.0
710593,0.555175,-1.329511,2.568414,-0.077472,-0.307473,-0.128893,0.0,22.0,68.0,170.0,25.0,0.0
710594,0.5362020000000001,-1.32821,2.548172,0.142967,-0.278444,-0.042278,0.0,22.0,68.0,170.0,25.0,0.0
710595,0.503944,-1.324926,2.519949,0.190633,-0.22363400000000005,-0.034554,0.0,22.0,68.0,170.0,25.0,0.0
710596,0.4650220000000001,-1.31767,2.492089,0.239182,-0.14947,-0.04206,0.0,22.0,68.0,170.0,25.0,0.0
710597,0.424994,-1.304669,2.468718,0.423499,-0.074995,0.007775,0.0,22.0,68.0,170.0,25.0,0.0
710598,0.374125,-1.284837,2.439464,0.471497,-0.12516300000000002,0.043023,0.0,22.0,68.0,170.0,25.0,0.0
710599,0.308003,-1.255054,2.400621,0.419032,-0.168889,0.15179,0.0,22.0,68.0,170.0,25.0,0.0
710600,0.239721,-1.214252,2.364567,0.248472,-0.115392,0.199393,0.0,22.0,68.0,170.0,25.0,0.0
710601,0.182522,-1.164356,2.340719,0.06081,0.061278999999999986,0.163037,0.0,22.0,68.0,170.0,25.0,0.0
710602,0.14091099999999998,-1.10583,2.330304,-0.257799,0.485771,-0.130698,0.0,22.0,68.0,170.0,25.0,0.0
710603,0.106404,-1.050411,2.328633,-0.39355,0.7476520000000001,-0.14498699999999998,0.0,22.0,68.0,170.0,25.0,0.0
710604,0.074245,-1.008841,2.332351,-0.422368,0.754692,-0.027143,0.0,22.0,68.0,170.0,25.0,0.0
710605,0.071373,-0.98303,2.348354,-0.279518,0.233889,0.031851,0.0,22.0,68.0,170.0,25.0,0.0
710606,0.09429,-0.972043,2.372627,-0.120295,0.003933,-0.021532,0.0,22.0,68.0,170.0,25.0,0.0
710607,0.128827,-0.969128,2.3995990000000003,-0.160196,-0.003820000000000001,0.009052,0.0,22.0,68.0,170.0,25.0,0.0
710608,0.166801,-0.968479,2.423422,-0.154184,0.260845,-0.110621,0.0,22.0,68.0,170.0,25.0,0.0
710609,0.207309,-0.977159,2.448486,-0.092644,0.259925,0.015465,0.0,22.0,68.0,170.0,25.0,0.0
710610,0.248406,-0.995942,2.47761,-0.132151,0.049965,0.19107,0.0,22.0,68.0,170.0,25.0,0.0
710611,0.29286100000000004,-1.022196,2.512312,-0.120553,-0.207045,0.217276,0.0,22.0,68.0,170.0,25.0,0.0
710612,0.333031,-1.05636,2.54362,-0.111843,-0.438762,0.182432,0.0,22.0,68.0,170.0,25.0,0.0
710613,0.358299,-1.097459,2.561646,-0.120067,-0.602042,0.095748,0.0,22.0,68.0,170.0,25.0,0.0
710614,0.362576,-1.143022,2.5608310000000003,-0.084914,-0.725214,0.022702,0.0,22.0,68.0,170.0,25.0,0.0
710615,0.345265,-1.189404,2.542774,-0.028165,-0.724198,0.011746,0.0,22.0,68.0,170.0,25.0,0.0
710616,0.305788,-1.232215,2.506332,0.00447,-0.536748,-0.053117,0.0,22.0,68.0,170.0,25.0,0.0
710617,0.24787,-1.269222,2.453139,0.036137,-0.26705,-0.112704,0.0,22.0,68.0,170.0,25.0,0.0
710618,0.191928,-1.296422,2.402592,0.014219999999999997,0.007573999999999998,-0.102911,0.0,22.0,68.0,170.0,25.0,0.0
710619,0.173099,-1.309403,2.379751,-0.145905,0.527362,-0.049833,0.0,22.0,68.0,170.0,25.0,0.0
710620,0.187748,-1.309819,2.384545,-0.374606,0.823657,-0.088337,0.0,22.0,68.0,170.0,25.0,0.0
710621,0.231821,-1.315138,2.414658,-0.469141,0.494264,-0.066993,0.0,22.0,68.0,170.0,25.0,0.0
710622,0.331618,-1.339143,2.478176,-0.457163,0.227807,0.219444,0.0,22.0,68.0,170.0,25.0,0.0
710623,0.451896,-1.364507,2.562202,-0.148998,-0.25655300000000003,0.348988,0.0,22.0,68.0,170.0,25.0,0.0
710624,0.507013,-1.3725120000000002,2.588451,0.053717,-0.289229,0.228954,0.0,22.0,68.0,170.0,25.0,0.0
710625,0.505612,-1.36878,2.57031,0.173907,-0.221379,0.04909,0.0,22.0,68.0,170.0,25.0,0.0
710626,0.488469,-1.3653959999999998,2.543291,0.519308,0.164148,-0.06942000000000001,0.0,22.0,68.0,170.0,25.0,0.0
710627,0.515378,-1.367334,2.56511,0.390432,0.264508,-0.186017,0.0,22.0,68.0,170.0,25.0,0.0
710628,0.5658989999999999,-1.3695540000000002,2.613376,0.257709,0.343988,-0.394186,0.0,22.0,68.0,170.0,25.0,0.0
710629,0.633301,-1.3704809999999998,2.670559,0.170268,0.954826,-0.16935,0.0,22.0,68.0,170.0,25.0,0.0
710630,0.7174189999999999,-1.3654110000000002,2.734951,0.280225,0.248618,-0.060027,0.0,22.0,68.0,170.0,25.0,0.0
710631,0.77223,-1.360871,2.779829,0.22102600000000006,-0.15196600000000002,0.025317,0.0,22.0,68.0,170.0,25.0,0.0
710632,0.7678649999999999,-1.361819,2.778964,0.215227,-0.296267,0.11676,0.0,22.0,68.0,170.0,25.0,0.0
710633,0.733769,-1.366206,2.7610740000000003,0.242653,-0.258502,0.149524,0.0,22.0,68.0,170.0,25.0,0.0
