index,attitude.roll,attitude.pitch,attitude.yaw,userAcceleration.x,userAcceleration.y,userAcceleration.z,act,id,weight,height,age,gender
745671,-2.384464,-0.894073,0.379113,0.401684,-0.537533,-0.019353,0.0,23.0,74.0,173.0,18.0,0.0
745672,-2.374238,-0.94916,0.429119,0.278092,-0.639541,-0.022414,0.0,23.0,74.0,173.0,18.0,0.0
745673,-2.362836,-1.02025,0.490475,-0.080996,-0.569387,0.106356,0.0,23.0,74.0,173.0,18.0,0.0
745674,-2.340799,-1.107704,0.5565479999999999,-0.183113,-0.346244,0.226316,0.0,23.0,74.0,173.0,18.0,0.0
745675,-2.341509,-1.19211,0.6025020000000001,-0.308716,0.039049,0.41817,0.0,23.0,74.0,173.0,18.0,0.0
745676,-2.339518,-1.250382,0.643884,-0.234667,1.280418,0.449416,0.0,23.0,74.0,173.0,18.0,0.0
745677,-2.295936,-1.270058,0.7072510000000001,0.247286,0.808004,0.261204,0.0,23.0,74.0,173.0,18.0,0.0
745678,-2.269788,-1.254536,0.771985,0.025326,-0.027233,0.279005,0.0,23.0,74.0,173.0,18.0,0.0
745679,-2.3088610000000003,-1.221971,0.778205,0.376583,-0.757203,-0.5576770000000001,0.0,23.0,74.0,173.0,18.0,0.0
745680,-2.289181,-1.219699,0.776087,0.580451,-0.787003,-1.177718,0.0,23.0,74.0,173.0,18.0,0.0
745681,-2.190039,-1.263794,0.801746,1.153117,-0.217968,-1.575779,0.0,23.0,74.0,173.0,18.0,0.0
745682,-2.355776,-1.306278,0.751266,1.25001,1.961799,1.434242,0.0,23.0,74.0,173.0,18.0,0.0
745683,-2.448825,-1.317688,0.679064,-1.513682,2.765565,2.608366,0.0,23.0,74.0,173.0,18.0,0.0
745684,-2.288794,-1.308475,0.725821,-2.423105,1.828826,-0.956736,0.0,23.0,74.0,173.0,18.0,0.0
745685,-2.37014,-1.280726,0.700244,-0.195903,-0.341677,-1.09169,0.0,23.0,74.0,173.0,18.0,0.0
745686,-2.3366860000000003,-1.299961,0.736583,0.211966,-0.977403,-0.493159,0.0,23.0,74.0,173.0,18.0,0.0
745687,-2.1572400000000003,-1.352955,0.865265,0.479343,-1.030749,-0.281636,0.0,23.0,74.0,173.0,18.0,0.0
745688,-2.052932,-1.395047,0.973311,0.316414,-0.1231,-0.144441,0.0,23.0,74.0,173.0,18.0,0.0
745689,-1.881167,-1.429538,1.191214,-0.360078,0.8875850000000001,-0.045989,0.0,23.0,74.0,173.0,18.0,0.0
745690,-1.628925,-1.433171,1.469313,-0.8778879999999999,-0.294072,0.067881,0.0,23.0,74.0,173.0,18.0,0.0
745691,-1.44297,-1.431168,1.637968,-0.5941069999999999,-0.455996,0.251598,0.0,23.0,74.0,173.0,18.0,0.0
745692,-1.23754,-1.4269120000000002,1.820534,0.071748,-0.250439,0.474213,0.0,23.0,74.0,173.0,18.0,0.0
745693,-1.06234,-1.428399,2.012123,0.530091,0.051976,0.728681,0.0,23.0,74.0,173.0,18.0,0.0
745694,-0.913915,-1.435142,2.172725,0.353296,0.074739,0.793292,0.0,23.0,74.0,173.0,18.0,0.0
745695,-0.802936,-1.444351,2.263201,0.064782,0.169147,0.616571,0.0,23.0,74.0,173.0,18.0,0.0
745696,-0.7236229999999999,-1.454616,2.307689,-0.169587,0.177777,-0.055508,0.0,23.0,74.0,173.0,18.0,0.0
745697,-0.754632,-1.463668,2.282011,-0.641081,-0.081593,-0.042084,0.0,23.0,74.0,173.0,18.0,0.0
745698,-1.104676,-1.473256,1.971779,-1.189919,0.198982,0.7496550000000001,0.0,23.0,74.0,173.0,18.0,0.0
745699,-1.6531,-1.453486,1.456023,-1.2636040000000002,0.540458,0.228049,0.0,23.0,74.0,173.0,18.0,0.0
745700,-2.003555,-1.425059,1.177189,-0.747423,0.532299,-0.441854,0.0,23.0,74.0,173.0,18.0,0.0
745701,-2.225172,-1.386701,1.035496,-0.068502,0.566733,-0.90648,0.0,23.0,74.0,173.0,18.0,0.0
745702,-2.3630880000000003,-1.333821,0.962517,0.260833,0.907922,-0.8537889999999999,0.0,23.0,74.0,173.0,18.0,0.0
745703,-2.4561580000000003,-1.28041,0.935692,0.395021,0.668011,-0.62702,0.0,23.0,74.0,173.0,18.0,0.0
745704,-2.498675,-1.226265,0.945811,-0.094929,0.235478,-0.439634,0.0,23.0,74.0,173.0,18.0,0.0
745705,-2.495133,-1.173963,0.994219,-0.305532,0.13751,-0.360957,0.0,23.0,74.0,173.0,18.0,0.0
745706,-2.488366,-1.129481,1.045767,-0.236246,0.236328,-0.381919,0.0,23.0,74.0,173.0,18.0,0.0
745707,-2.508433,-1.0933620000000002,1.084231,-0.089351,0.165473,-0.353557,0.0,23.0,74.0,173.0,18.0,0.0
745708,-2.546631,-1.0624790000000002,1.113916,0.003257,-0.057311,-0.44896,0.0,23.0,74.0,173.0,18.0,0.0
745709,-2.584038,-1.039075,1.142498,0.153951,-0.256787,-0.548257,0.0,23.0,74.0,173.0,18.0,0.0
745710,-2.617832,-1.022485,1.172855,0.282578,-0.38223,-0.646806,0.0,23.0,74.0,173.0,18.0,0.0
745711,-2.651789,-1.008966,1.203822,0.269243,-0.456435,-0.653831,0.0,23.0,74.0,173.0,18.0,0.0
745712,-2.6863200000000003,-0.999314,1.233218,0.186116,-0.400228,-0.585518,0.0,23.0,74.0,173.0,18.0,0.0
745713,-2.717411,-0.996523,1.258775,0.12851600000000002,-0.331424,-0.583476,0.0,23.0,74.0,173.0,18.0,0.0
745714,-2.744777,-0.999769,1.277392,0.06094400000000001,-0.189094,-0.597924,0.0,23.0,74.0,173.0,18.0,0.0
745715,-2.7709200000000003,-1.008022,1.289477,0.138978,-0.078475,-0.587249,0.0,23.0,74.0,173.0,18.0,0.0
745716,-2.794293,-1.021356,1.299288,0.229634,-0.047534,-0.500858,0.0,23.0,74.0,173.0,18.0,0.0
745717,-2.812546,-1.041639,1.30957,0.321205,-0.097211,-0.379014,0.0,23.0,74.0,173.0,18.0,0.0
745718,-2.825372,-1.069732,1.325772,0.30132800000000004,-0.129498,-0.241973,0.0,23.0,74.0,173.0,18.0,0.0
745719,-2.8328330000000004,-1.104607,1.348092,0.205253,-0.062065,-0.099845,0.0,23.0,74.0,173.0,18.0,0.0
745720,-2.845026,-1.142061,1.367904,0.080794,0.112236,0.170146,0.0,23.0,74.0,173.0,18.0,0.0
745721,-2.895155,-1.167238,1.35931,-0.234494,0.682808,0.753555,0.0,23.0,74.0,173.0,18.0,0.0
745722,-2.978749,-1.166801,1.338095,-0.649725,0.6919529999999999,0.785323,0.0,23.0,74.0,173.0,18.0,0.0
745723,-3.034724,-1.166319,1.353541,-0.877136,0.453174,0.683154,0.0,23.0,74.0,173.0,18.0,0.0
745724,-3.070713,-1.175916,1.389524,-0.252907,-0.176537,0.305691,0.0,23.0,74.0,173.0,18.0,0.0
745725,-3.063684,-1.185844,1.454364,-0.089991,-0.172834,0.237288,0.0,23.0,74.0,173.0,18.0,0.0
745726,-3.01289,-1.188769,1.540848,0.083188,-0.124047,0.096406,0.0,23.0,74.0,173.0,18.0,0.0
745727,-2.94075,-1.188462,1.636184,0.098492,-0.079057,-0.485353,0.0,23.0,74.0,173.0,18.0,0.0
745728,-2.821059,-1.191434,1.722002,0.084378,-0.16956300000000002,-0.871135,0.0,23.0,74.0,173.0,18.0,0.0
745729,-2.73429,-1.209331,1.748893,0.221527,-0.079484,-1.109519,0.0,23.0,74.0,173.0,18.0,0.0
745730,-2.842194,-1.209019,1.684752,-0.152123,1.765338,1.158879,0.0,23.0,74.0,173.0,18.0,0.0
745731,-2.92655,-1.209331,1.677157,-0.342932,1.38124,0.699712,0.0,23.0,74.0,173.0,18.0,0.0
745732,-2.899885,-1.211946,1.720589,-0.24748,-0.005439,-0.7830060000000001,0.0,23.0,74.0,173.0,18.0,0.0
745733,-2.875702,-1.225109,1.767534,0.011248,-0.688584,-1.498399,0.0,23.0,74.0,173.0,18.0,0.0
745734,-2.894018,-1.263925,1.7669529999999998,0.145726,-0.974981,-1.28414,0.0,23.0,74.0,173.0,18.0,0.0
745735,-2.940491,-1.315202,1.731927,0.028223,-0.92604,-1.1237629999999998,0.0,23.0,74.0,173.0,18.0,0.0
745736,-2.9597450000000003,-1.3533190000000002,1.745122,-0.966854,0.203227,-0.059729,0.0,23.0,74.0,173.0,18.0,0.0
745737,-2.929642,-1.385825,1.827316,-0.833777,0.4805140000000001,-0.271813,0.0,23.0,74.0,173.0,18.0,0.0
745738,-2.869774,-1.407306,1.938295,-0.628633,0.610961,-0.446857,0.0,23.0,74.0,173.0,18.0,0.0
745739,-2.799655,-1.427628,2.045087,0.6164,0.213036,0.07335900000000001,0.0,23.0,74.0,173.0,18.0,0.0
745740,-2.782494,-1.446936,2.078389,0.7451840000000001,-0.017592,0.151212,0.0,23.0,74.0,173.0,18.0,0.0
745741,-2.7378150000000003,-1.460015,2.121303,0.242823,-0.194233,-0.019542,0.0,23.0,74.0,173.0,18.0,0.0
745742,-2.692778,-1.4728450000000002,2.156109,-0.035418,-0.177091,-0.197301,0.0,23.0,74.0,173.0,18.0,0.0
745743,-2.674326,-1.487847,2.161107,-0.108705,-0.161158,-0.173673,0.0,23.0,74.0,173.0,18.0,0.0
745744,-2.675691,-1.504658,2.14751,-0.385975,-0.038783,-0.090861,0.0,23.0,74.0,173.0,18.0,0.0
745745,-2.683019,-1.520704,2.140985,-0.567465,0.03876,-0.307883,0.0,23.0,74.0,173.0,18.0,0.0
745746,-2.570941,-1.538176,2.279849,-0.54595,-0.008761,-0.307706,0.0,23.0,74.0,173.0,18.0,0.0
745747,-1.7395349999999998,-1.553032,3.140348,-0.394814,-0.154673,-0.006813,0.0,23.0,74.0,173.0,18.0,0.0
745748,-0.831832,-1.544167,-2.2111970000000003,-0.326221,-0.038784,0.127689,0.0,23.0,74.0,173.0,18.0,0.0
745749,-0.5263909999999999,-1.528674,-1.895218,-0.080696,0.010759,-0.019484,0.0,23.0,74.0,173.0,18.0,0.0
745750,-0.35533000000000003,-1.507798,-1.715917,0.271552,-0.010467,-0.178112,0.0,23.0,74.0,173.0,18.0,0.0
745751,-0.256416,-1.483162,-1.608663,0.34727,-0.17907,-0.051402,0.0,23.0,74.0,173.0,18.0,0.0
745752,-0.163119,-1.46087,-1.519178,0.131524,-0.123847,0.133273,0.0,23.0,74.0,173.0,18.0,0.0
745753,-0.075456,-1.443902,-1.451568,-0.117794,0.14923,0.269474,0.0,23.0,74.0,173.0,18.0,0.0
745754,0.010103,-1.432572,-1.400113,-0.1832,0.351167,0.335791,0.0,23.0,74.0,173.0,18.0,0.0
745755,0.061044000000000015,-1.42677,-1.390094,-0.111494,0.224816,0.261808,0.0,23.0,74.0,173.0,18.0,0.0
745756,0.106435,-1.426829,-1.3838700000000002,-0.090925,-0.039886000000000005,0.075291,0.0,23.0,74.0,173.0,18.0,0.0
745757,0.17632799999999998,-1.432221,-1.343058,-0.209686,-0.133923,0.022373,0.0,23.0,74.0,173.0,18.0,0.0
745758,0.245275,-1.438972,-1.293039,-0.402294,-0.106726,0.069464,0.0,23.0,74.0,173.0,18.0,0.0
745759,0.26674200000000003,-1.44562,-1.269628,-0.560085,0.220349,0.087872,0.0,23.0,74.0,173.0,18.0,0.0
745760,0.230831,-1.451667,-1.285753,-0.7154229999999999,0.403526,0.240909,0.0,23.0,74.0,173.0,18.0,0.0
745761,0.163159,-1.465526,-1.331708,-0.955026,0.431134,0.328504,0.0,23.0,74.0,173.0,18.0,0.0
745762,-0.011216,-1.496512,-1.479734,-1.181998,0.474026,0.220406,0.0,23.0,74.0,173.0,18.0,0.0
745763,-0.735624,-1.5346030000000002,-2.176282,-1.027202,0.445891,0.279589,0.0,23.0,74.0,173.0,18.0,0.0
745764,-2.2184,-1.51056,2.660864,-0.431528,0.50247,0.276321,0.0,23.0,74.0,173.0,18.0,0.0
745765,-2.607789,-1.43667,2.321146,0.247407,0.571665,0.101173,0.0,23.0,74.0,173.0,18.0,0.0
745766,-2.743742,-1.348506,2.230909,0.753476,0.7293930000000001,-0.29391300000000004,0.0,23.0,74.0,173.0,18.0,0.0
745767,-2.761068,-1.266888,2.240917,0.8584129999999999,0.8365360000000001,-0.501632,0.0,23.0,74.0,173.0,18.0,0.0
745768,-2.734173,-1.20331,2.279366,0.294793,0.402734,-0.920225,0.0,23.0,74.0,173.0,18.0,0.0
745769,-2.676889,-1.144946,2.33648,-0.148517,0.095721,-0.747691,0.0,23.0,74.0,173.0,18.0,0.0
745770,-2.603852,-1.081128,2.400509,-0.507632,0.061511,-0.473107,0.0,23.0,74.0,173.0,18.0,0.0
745771,-2.542179,-1.008661,2.447198,-0.595334,0.197247,-0.274777,0.0,23.0,74.0,173.0,18.0,0.0
745772,-2.516347,-0.940764,2.474016,-0.326516,0.291754,-0.32852600000000004,0.0,23.0,74.0,173.0,18.0,0.0
745773,-2.523056,-0.8895200000000001,2.497412,-0.30618,0.322992,-0.363918,0.0,23.0,74.0,173.0,18.0,0.0
745774,-2.550123,-0.854449,2.524023,0.216408,-0.208708,-0.6966060000000001,0.0,23.0,74.0,173.0,18.0,0.0
745775,-2.589051,-0.827757,2.552264,0.285986,-0.446087,-0.689459,0.0,23.0,74.0,173.0,18.0,0.0
745776,-2.621579,-0.8136680000000001,2.579092,0.25821500000000003,-0.503514,-0.611228,0.0,23.0,74.0,173.0,18.0,0.0
745777,-2.640275,-0.813129,2.604911,0.308053,-0.583665,-0.6554909999999999,0.0,23.0,74.0,173.0,18.0,0.0
745778,-2.64663,-0.824667,2.632347,0.27973600000000004,-0.641365,-0.550858,0.0,23.0,74.0,173.0,18.0,0.0
745779,-2.639932,-0.849825,2.662364,0.348397,-0.808004,-0.489576,0.0,23.0,74.0,173.0,18.0,0.0
745780,-2.621671,-0.887912,2.686148,0.5211,-0.967193,-0.370523,0.0,23.0,74.0,173.0,18.0,0.0
745781,-2.599549,-0.939133,2.698608,0.658416,-0.815271,-0.259904,0.0,23.0,74.0,173.0,18.0,0.0
745782,-2.579987,-1.0004959999999998,2.708116,0.618919,-0.723621,-0.226856,0.0,23.0,74.0,173.0,18.0,0.0
745783,-2.565879,-1.057962,2.719546,0.4661,-0.552937,-0.153791,0.0,23.0,74.0,173.0,18.0,0.0
745784,-2.568284,-1.100378,2.724333,-0.6084390000000001,0.708108,0.075801,0.0,23.0,74.0,173.0,18.0,0.0
745785,-2.593237,-1.12784,2.716882,-0.75884,0.927047,0.052748,0.0,23.0,74.0,173.0,18.0,0.0
745786,-2.623638,-1.154697,2.702967,-0.35321,0.149964,-0.003828,0.0,23.0,74.0,173.0,18.0,0.0
745787,-2.618963,-1.182771,2.713567,-0.008173999999999999,-0.354217,-0.165652,0.0,23.0,74.0,173.0,18.0,0.0
745788,-2.565243,-1.2050809999999998,2.7626310000000003,0.138676,-0.418716,-0.342816,0.0,23.0,74.0,173.0,18.0,0.0
745789,-2.507315,-1.220834,2.81592,0.17166900000000002,-0.248819,-0.258063,0.0,23.0,74.0,173.0,18.0,0.0
745790,-2.496173,-1.236669,2.832703,0.243382,-0.012553,0.099106,0.0,23.0,74.0,173.0,18.0,0.0
745791,-2.535476,-1.250833,2.813262,0.222273,0.192233,0.245174,0.0,23.0,74.0,173.0,18.0,0.0
745792,-2.562292,-1.257887,2.809295,0.087279,1.356892,0.06785,0.0,23.0,74.0,173.0,18.0,0.0
745793,-2.504169,-1.257429,2.87806,0.007736,1.489541,-0.104206,0.0,23.0,74.0,173.0,18.0,0.0
745794,-2.4575240000000003,-1.240058,2.950756,0.020574,0.765714,-0.094542,0.0,23.0,74.0,173.0,18.0,0.0
745795,-2.448913,-1.224502,2.976485,0.08204600000000001,-0.512551,-0.877541,0.0,23.0,74.0,173.0,18.0,0.0
745796,-2.446807,-1.2292379999999998,2.978482,-0.089876,-0.396198,0.238738,0.0,23.0,74.0,173.0,18.0,0.0
745797,-2.470861,-1.242316,2.929411,-0.33885,0.265838,1.232908,0.0,23.0,74.0,173.0,18.0,0.0
745798,-2.484898,-1.250935,2.907474,-0.522728,1.102494,-1.195723,0.0,23.0,74.0,173.0,18.0,0.0
745799,-2.4747,-1.242152,2.919061,-0.337009,-0.194772,-0.257652,0.0,23.0,74.0,173.0,18.0,0.0
745800,-2.4395330000000004,-1.241528,2.944051,-0.016036,-0.398245,-0.470775,0.0,23.0,74.0,173.0,18.0,0.0
745801,-2.378847,-1.254437,2.992537,-0.009936,-0.32021700000000003,-0.092986,0.0,23.0,74.0,173.0,18.0,0.0
745802,-2.316187,-1.280895,3.046159,-0.481031,0.057261,0.017952000000000003,0.0,23.0,74.0,173.0,18.0,0.0
745803,-2.257825,-1.308272,3.108827,-0.426798,0.083853,-0.27270700000000003,0.0,23.0,74.0,173.0,18.0,0.0
745804,-2.1879,-1.327546,-3.098869,-0.273308,-0.054484000000000005,-0.006795000000000001,0.0,23.0,74.0,173.0,18.0,0.0
745805,-2.107715,-1.336333,-3.0069470000000003,-0.14476,-0.158201,0.026251,0.0,23.0,74.0,173.0,18.0,0.0
745806,-2.042554,-1.342997,-2.932734,0.058863,-0.158461,0.064529,0.0,23.0,74.0,173.0,18.0,0.0
745807,-2.015941,-1.352313,-2.904416,0.13358399999999998,-0.175095,0.28238800000000003,0.0,23.0,74.0,173.0,18.0,0.0
745808,-2.025451,-1.362269,-2.915413,0.176803,-0.170659,0.285582,0.0,23.0,74.0,173.0,18.0,0.0
745809,-2.056638,-1.369157,-2.953652,0.222159,-0.204776,0.302187,0.0,23.0,74.0,173.0,18.0,0.0
745810,-2.089316,-1.374537,-2.995232,0.045255,-0.310377,0.068824,0.0,23.0,74.0,173.0,18.0,0.0
745811,-2.12566,-1.3769790000000002,-3.044639,-0.17467,-0.30461,0.097611,0.0,23.0,74.0,173.0,18.0,0.0
745812,-2.162367,-1.375482,-3.095241,-0.23275,-0.30343600000000004,0.037813,0.0,23.0,74.0,173.0,18.0,0.0
745813,-2.208422,-1.369746,3.130229,-0.219255,-0.443877,0.0015140000000000002,0.0,23.0,74.0,173.0,18.0,0.0
745814,-2.248675,-1.362668,3.081223,-0.135351,-0.541636,-0.123177,0.0,23.0,74.0,173.0,18.0,0.0
745815,-2.291481,-1.354663,3.033464,-0.187761,-0.589527,-0.092995,0.0,23.0,74.0,173.0,18.0,0.0
745816,-2.327295,-1.346525,2.993942,-0.283592,-0.326366,-0.002837,0.0,23.0,74.0,173.0,18.0,0.0
745817,-2.362866,-1.338933,2.962244,-0.099144,-0.144886,-0.080041,0.0,23.0,74.0,173.0,18.0,0.0
745818,-2.420082,-1.320429,2.920657,-0.386932,0.351171,0.310516,0.0,23.0,74.0,173.0,18.0,0.0
745819,-2.471379,-1.278589,2.888482,-0.665732,1.09578,0.331374,0.0,23.0,74.0,173.0,18.0,0.0
745820,-2.5142740000000003,-1.210846,2.862182,-0.6328199999999999,1.2283620000000002,0.363501,0.0,23.0,74.0,173.0,18.0,0.0
745821,-2.563741,-1.131298,2.834075,0.033726,1.0558809999999998,0.022458,0.0,23.0,74.0,173.0,18.0,0.0
745822,-2.5906860000000003,-1.058073,2.8151080000000004,0.32609,0.827349,-0.104773,0.0,23.0,74.0,173.0,18.0,0.0
745823,-2.593934,-0.996937,2.812768,0.385759,0.6586310000000001,-0.18435,0.0,23.0,74.0,173.0,18.0,0.0
745824,-2.586354,-0.949459,2.821998,0.223627,0.418665,-0.272338,0.0,23.0,74.0,173.0,18.0,0.0
745825,-2.571078,-0.91684,2.827563,-0.05876,0.111972,-0.065941,0.0,23.0,74.0,173.0,18.0,0.0
745826,-2.551944,-0.8948879999999999,2.827702,0.012736,-0.12933599999999998,-0.34375500000000003,0.0,23.0,74.0,173.0,18.0,0.0
745827,-2.540206,-0.8885129999999999,2.829793,0.05272,-0.245922,-0.52523,0.0,23.0,74.0,173.0,18.0,0.0
745828,-2.53255,-0.89571,2.835251,0.057589,-0.386946,-0.512975,0.0,23.0,74.0,173.0,18.0,0.0
745829,-2.518788,-0.913988,2.845934,0.117795,-0.601577,-0.563928,0.0,23.0,74.0,173.0,18.0,0.0
745830,-2.49942,-0.939238,2.860873,0.214759,-0.71313,-0.5829,0.0,23.0,74.0,173.0,18.0,0.0
745831,-2.480151,-0.972595,2.878833,0.251516,-0.843684,-0.518564,0.0,23.0,74.0,173.0,18.0,0.0
745832,-2.469032,-1.017233,2.902092,0.248541,-0.958002,-0.491939,0.0,23.0,74.0,173.0,18.0,0.0
745833,-2.462987,-1.075445,2.928221,0.252996,-1.013133,-0.435366,0.0,23.0,74.0,173.0,18.0,0.0
745834,-2.460379,-1.149056,2.9498830000000003,0.382187,-0.708276,-0.280159,0.0,23.0,74.0,173.0,18.0,0.0
745835,-2.474319,-1.23248,2.9666740000000003,0.223736,-0.206544,-0.036223000000000005,0.0,23.0,74.0,173.0,18.0,0.0
745836,-2.516316,-1.311994,2.975009,-0.272673,0.824257,0.413362,0.0,23.0,74.0,173.0,18.0,0.0
745837,-2.519148,-1.356557,3.007585,-0.547983,1.580387,0.780088,0.0,23.0,74.0,173.0,18.0,0.0
745838,-2.4003,-1.3604040000000002,3.1054310000000003,-0.253847,0.559084,0.7842210000000001,0.0,23.0,74.0,173.0,18.0,0.0
745839,-2.278492,-1.34781,-3.081862,0.114098,0.066629,1.026435,0.0,23.0,74.0,173.0,18.0,0.0
745840,-2.223255,-1.344201,-3.048308,0.289949,0.283086,0.15978699999999998,0.0,23.0,74.0,173.0,18.0,0.0
745841,-2.192023,-1.344491,-3.033589,0.690316,0.759965,-1.314007,0.0,23.0,74.0,173.0,18.0,0.0
745842,-2.210703,-1.341514,-3.028219,0.8741770000000001,0.75258,-1.301744,0.0,23.0,74.0,173.0,18.0,0.0
745843,-2.268863,-1.336394,-3.03577,-0.338075,0.071841,0.73475,0.0,23.0,74.0,173.0,18.0,0.0
745844,-2.2602830000000003,-1.33187,-3.032565,-0.989885,0.17773,-0.289404,0.0,23.0,74.0,173.0,18.0,0.0
745845,-2.250491,-1.338581,-3.046434,-0.99023,0.891084,0.191926,0.0,23.0,74.0,173.0,18.0,0.0
745846,-2.27508,-1.3405200000000002,-3.075982,-0.373865,0.496505,-0.355779,0.0,23.0,74.0,173.0,18.0,0.0
745847,-2.251728,-1.337723,-3.066805,-0.068221,-0.03537,-0.261747,0.0,23.0,74.0,173.0,18.0,0.0
745848,-2.193951,-1.341023,-3.021589,-0.041141,-0.300058,-0.097961,0.0,23.0,74.0,173.0,18.0,0.0
745849,-2.113068,-1.349747,-2.9455240000000003,-0.171103,-0.419897,-0.098871,0.0,23.0,74.0,173.0,18.0,0.0
745850,-2.042473,-1.359109,-2.883553,-0.189602,-0.340898,0.004277,0.0,23.0,74.0,173.0,18.0,0.0
745851,-2.027964,-1.3664,-2.867353,-0.062787,-0.196499,0.128117,0.0,23.0,74.0,173.0,18.0,0.0
745852,-2.0747150000000003,-1.372262,-2.901768,0.26532100000000003,-0.271586,0.124918,0.0,23.0,74.0,173.0,18.0,0.0
745853,-2.125935,-1.375009,-2.941351,0.228297,-0.286345,0.17915899999999998,0.0,23.0,74.0,173.0,18.0,0.0
745854,-2.1745520000000003,-1.373745,-2.991367,0.129581,-0.237423,0.164346,0.0,23.0,74.0,173.0,18.0,0.0
745855,-2.212212,-1.369257,-3.0539110000000003,-0.107979,-0.192406,0.211069,0.0,23.0,74.0,173.0,18.0,0.0
745856,-2.246011,-1.363635,-3.1214470000000003,-0.014972,-0.3307,-0.121546,0.0,23.0,74.0,173.0,18.0,0.0
745857,-2.29071,-1.354467,3.097399,0.031349,-0.397316,-0.118815,0.0,23.0,74.0,173.0,18.0,0.0
745858,-2.339398,-1.345192,3.046852,-0.246721,-0.532185,0.017797,0.0,23.0,74.0,173.0,18.0,0.0
745859,-2.380801,-1.3331,3.006042,-0.547045,-0.441594,0.173465,0.0,23.0,74.0,173.0,18.0,0.0
745860,-2.433626,-1.314426,2.954847,-0.5269229999999999,-0.022019,0.299858,0.0,23.0,74.0,173.0,18.0,0.0
745861,-2.50579,-1.275711,2.891147,-0.514605,0.5615939999999999,0.342499,0.0,23.0,74.0,173.0,18.0,0.0
745862,-2.584784,-1.218693,2.832888,-0.237465,1.15745,0.217521,0.0,23.0,74.0,173.0,18.0,0.0
745863,-2.650639,-1.148981,2.785727,0.037845,1.370108,0.029795,0.0,23.0,74.0,173.0,18.0,0.0
745864,-2.683799,-1.073584,2.758422,0.136667,0.887152,-0.116782,0.0,23.0,74.0,173.0,18.0,0.0
745865,-2.674488,-1.005785,2.758748,0.306884,0.510001,-0.382518,0.0,23.0,74.0,173.0,18.0,0.0
745866,-2.645135,-0.95165,2.776776,0.13964400000000002,0.253253,-0.524774,0.0,23.0,74.0,173.0,18.0,0.0
745867,-2.6179810000000003,-0.913971,2.79439,-0.203785,0.098232,-0.274081,0.0,23.0,74.0,173.0,18.0,0.0
745868,-2.590148,-0.891533,2.8039080000000003,-0.398128,-0.014959,-0.232913,0.0,23.0,74.0,173.0,18.0,0.0
745869,-2.568074,-0.886367,2.81077,-0.315175,-0.15098499999999998,-0.391027,0.0,23.0,74.0,173.0,18.0,0.0
745870,-2.555083,-0.8992290000000001,2.816917,-0.026557,-0.355006,-0.419107,0.0,23.0,74.0,173.0,18.0,0.0
745871,-2.541489,-0.926597,2.828951,0.231181,-0.686177,-0.499091,0.0,23.0,74.0,173.0,18.0,0.0
745872,-2.5257080000000003,-0.963488,2.8496080000000004,0.25008400000000003,-0.8053640000000001,-0.470477,0.0,23.0,74.0,173.0,18.0,0.0
745873,-2.509443,-1.010853,2.876032,0.1983,-0.994776,-0.355579,0.0,23.0,74.0,173.0,18.0,0.0
745874,-2.488899,-1.069922,2.910333,0.151345,-1.11015,-0.246586,0.0,23.0,74.0,173.0,18.0,0.0
745875,-2.442851,-1.143442,2.953807,0.231114,-1.139787,-0.201857,0.0,23.0,74.0,173.0,18.0,0.0
745876,-2.385065,-1.227681,2.994318,0.299005,-0.659317,-0.27032,0.0,23.0,74.0,173.0,18.0,0.0
745877,-2.392913,-1.304787,2.999985,0.16253399999999998,-0.164748,-0.203861,0.0,23.0,74.0,173.0,18.0,0.0
745878,-2.459912,-1.356946,2.985298,-0.193625,1.151319,0.189941,0.0,23.0,74.0,173.0,18.0,0.0
745879,-2.412541,-1.376938,3.062652,-0.493111,1.05108,0.409073,0.0,23.0,74.0,173.0,18.0,0.0
745880,-2.279262,-1.378525,-3.08103,-0.268118,0.000193,0.7476119999999999,0.0,23.0,74.0,173.0,18.0,0.0
745881,-2.186577,-1.3668360000000002,-2.987584,-0.021315,0.013541,0.465833,0.0,23.0,74.0,173.0,18.0,0.0
745882,-2.131311,-1.359003,-2.965873,0.418236,0.286077,-0.704604,0.0,23.0,74.0,173.0,18.0,0.0
745883,-2.129585,-1.369156,-2.9424,1.188018,0.657803,-0.25421900000000003,0.0,23.0,74.0,173.0,18.0,0.0
745884,-2.254317,-1.375927,-2.988886,0.856864,0.325735,0.15012799999999998,0.0,23.0,74.0,173.0,18.0,0.0
745885,-2.259194,-1.373601,-2.989606,-0.95792,0.352983,-0.235201,0.0,23.0,74.0,173.0,18.0,0.0
745886,-2.220782,-1.3766040000000002,-2.988012,-1.221726,0.512311,-0.087227,0.0,23.0,74.0,173.0,18.0,0.0
745887,-2.204057,-1.384594,-2.991313,-0.707625,-0.011233,-0.313748,0.0,23.0,74.0,173.0,18.0,0.0
745888,-2.1770970000000003,-1.391284,-2.974386,-0.399753,-0.009672,-0.06506100000000001,0.0,23.0,74.0,173.0,18.0,0.0
745889,-2.140448,-1.39478,-2.936543,-0.195072,0.122827,0.038782,0.0,23.0,74.0,173.0,18.0,0.0
745890,-2.100179,-1.395412,-2.898181,0.002912,-0.032816000000000005,0.11896099999999997,0.0,23.0,74.0,173.0,18.0,0.0
745891,-2.0716,-1.392764,-2.87073,0.11552,-0.237933,-0.005224,0.0,23.0,74.0,173.0,18.0,0.0
745892,-2.0988740000000004,-1.389184,-2.890025,0.206045,-0.35322800000000004,0.058513,0.0,23.0,74.0,173.0,18.0,0.0
745893,-2.1593880000000003,-1.386614,-2.94716,0.090572,-0.454415,0.31806,0.0,23.0,74.0,173.0,18.0,0.0
745894,-2.227335,-1.385638,-3.019797,0.107285,-0.470258,0.121881,0.0,23.0,74.0,173.0,18.0,0.0
745895,-2.295637,-1.384204,-3.101425,-0.070857,-0.415625,0.283588,0.0,23.0,74.0,173.0,18.0,0.0
745896,-2.354737,-1.378733,3.103164,-0.190114,-0.256911,0.14937,0.0,23.0,74.0,173.0,18.0,0.0
745897,-2.424194,-1.360807,3.0229630000000003,-0.346603,-0.09519,0.114139,0.0,23.0,74.0,173.0,18.0,0.0
745898,-2.506885,-1.318017,2.946695,-0.413139,0.004481000000000001,0.125897,0.0,23.0,74.0,173.0,18.0,0.0
745899,-2.583243,-1.250844,2.888521,-0.394803,0.023451,0.060531,0.0,23.0,74.0,173.0,18.0,0.0
745900,-2.640454,-1.172105,2.845939,0.053893,0.211548,0.07370800000000001,0.0,23.0,74.0,173.0,18.0,0.0
745901,-2.677211,-1.100686,2.810249,0.318738,0.7615890000000001,-0.223479,0.0,23.0,74.0,173.0,18.0,0.0
745902,-2.702605,-1.045766,2.776098,0.404566,1.024065,-0.5876239999999999,0.0,23.0,74.0,173.0,18.0,0.0
745903,-2.689785,-0.997116,2.770313,0.39642,0.8535879999999999,-0.5784189999999999,0.0,23.0,74.0,173.0,18.0,0.0
745904,-2.65524,-0.969104,2.780816,-0.397312,0.426903,-0.335715,0.0,23.0,74.0,173.0,18.0,0.0
745905,-2.608201,-0.942776,2.80107,-0.305309,0.290982,-0.470084,0.0,23.0,74.0,173.0,18.0,0.0
745906,-2.561725,-0.930374,2.821702,-0.194317,0.130606,-0.544978,0.0,23.0,74.0,173.0,18.0,0.0
745907,-2.5253520000000003,-0.941041,2.8408,-0.077605,-0.486028,-0.53637,0.0,23.0,74.0,173.0,18.0,0.0
745908,-2.496828,-0.969848,2.858061,-0.060076,-0.614061,-0.433661,0.0,23.0,74.0,173.0,18.0,0.0
745909,-2.472715,-1.015813,2.884687,-0.020874,-0.740839,-0.339319,0.0,23.0,74.0,173.0,18.0,0.0
745910,-2.445725,-1.08083,2.9289,0.15520699999999998,-1.077371,-0.138419,0.0,23.0,74.0,173.0,18.0,0.0
745911,-2.403619,-1.164287,2.99202,0.259067,-0.991581,-0.021584,0.0,23.0,74.0,173.0,18.0,0.0
745912,-2.3401110000000003,-1.256062,3.067539,0.296117,-0.895993,0.01143,0.0,23.0,74.0,173.0,18.0,0.0
745913,-2.284836,-1.335911,-3.137581,0.097526,-0.097205,-0.138879,0.0,23.0,74.0,173.0,18.0,0.0
745914,-2.308976,-1.386639,-3.123163,-0.102357,0.383883,-0.063917,0.0,23.0,74.0,173.0,18.0,0.0
745915,-2.368868,-1.402479,3.128022,-0.306348,1.392855,0.7310800000000001,0.0,23.0,74.0,173.0,18.0,0.0
745916,-2.292824,-1.405837,-3.088404,-0.23054,0.960337,0.941123,0.0,23.0,74.0,173.0,18.0,0.0
745917,-2.148641,-1.403549,-2.952984,0.253516,0.441703,0.136183,0.0,23.0,74.0,173.0,18.0,0.0
745918,-2.072033,-1.397318,-2.899777,0.9806,0.2494,-0.820886,0.0,23.0,74.0,173.0,18.0,0.0
745919,-2.1407830000000003,-1.400112,-2.955806,1.452589,-0.067332,-0.814986,0.0,23.0,74.0,173.0,18.0,0.0
745920,-2.276001,-1.404109,-3.035181,0.394866,-0.380335,0.095106,0.0,23.0,74.0,173.0,18.0,0.0
745921,-2.334066,-1.42233,-3.095898,-0.475101,-0.037217,0.8473139999999999,0.0,23.0,74.0,173.0,18.0,0.0
745922,-2.252856,-1.431292,-3.090503,-2.223341,1.772517,-0.787029,0.0,23.0,74.0,173.0,18.0,0.0
745923,-2.264016,-1.412829,-3.118844,-0.585952,-0.30542,0.077484,0.0,23.0,74.0,173.0,18.0,0.0
745924,-2.300494,-1.404401,3.118425,0.047604,-0.608777,-0.4698060000000001,0.0,23.0,74.0,173.0,18.0,0.0
745925,-2.27686,-1.4079620000000002,-3.121338,0.085882,-0.8552709999999999,-0.247568,0.0,23.0,74.0,173.0,18.0,0.0
745926,-2.249375,-1.425907,-3.077115,0.072785,-0.836873,0.107188,0.0,23.0,74.0,173.0,18.0,0.0
745927,-2.184296,-1.445907,-3.0324310000000003,-0.064426,0.059913,0.13630699999999998,0.0,23.0,74.0,173.0,18.0,0.0
745928,-2.154302,-1.455786,-3.0213330000000003,0.034245,-0.073838,0.174705,0.0,23.0,74.0,173.0,18.0,0.0
745929,-2.172341,-1.456547,-3.047095,-0.015355,-0.080868,0.187331,0.0,23.0,74.0,173.0,18.0,0.0
745930,-2.207513,-1.451595,-3.085919,-0.233636,-0.16328399999999998,0.156529,0.0,23.0,74.0,173.0,18.0,0.0
745931,-2.261602,-1.441748,3.126082,-0.186153,-0.22783,0.300526,0.0,23.0,74.0,173.0,18.0,0.0
745932,-2.328087,-1.426069,3.0344450000000003,-0.197592,-0.235471,0.3443,0.0,23.0,74.0,173.0,18.0,0.0
745933,-2.388178,-1.398004,2.950691,-0.39388,-0.296525,0.147075,0.0,23.0,74.0,173.0,18.0,0.0
745934,-2.457541,-1.350828,2.883658,-0.370016,-0.269575,0.248662,0.0,23.0,74.0,173.0,18.0,0.0
745935,-2.525223,-1.286384,2.841948,-0.32481,0.101483,0.291319,0.0,23.0,74.0,173.0,18.0,0.0
745936,-2.584373,-1.212099,2.812067,0.224848,0.478318,-0.087272,0.0,23.0,74.0,173.0,18.0,0.0
745937,-2.643927,-1.1368200000000002,2.773231,0.306151,0.750246,-0.096772,0.0,23.0,74.0,173.0,18.0,0.0
745938,-2.684564,-1.069908,2.737204,0.314568,0.991252,-0.52644,0.0,23.0,74.0,173.0,18.0,0.0
745939,-2.684869,-1.008894,2.732281,0.106475,0.082773,-0.186011,0.0,23.0,74.0,173.0,18.0,0.0
745940,-2.655779,-0.960935,2.743183,0.108026,-0.110453,-0.07987799999999999,0.0,23.0,74.0,173.0,18.0,0.0
745941,-2.610173,-0.929021,2.756106,-0.132925,0.071631,-0.480143,0.0,23.0,74.0,173.0,18.0,0.0
745942,-2.577643,-0.919757,2.76529,-0.16128299999999998,0.06271499999999999,-0.5936239999999999,0.0,23.0,74.0,173.0,18.0,0.0
745943,-2.5543150000000003,-0.929974,2.776779,-0.088622,-0.35263,-0.600438,0.0,23.0,74.0,173.0,18.0,0.0
745944,-2.537012,-0.955101,2.786713,-0.022082,-0.624584,-0.43214,0.0,23.0,74.0,173.0,18.0,0.0
745945,-2.519956,-0.990275,2.805272,0.033546,-0.929179,-0.35332800000000003,0.0,23.0,74.0,173.0,18.0,0.0
745946,-2.510713,-1.041383,2.834991,0.160396,-1.236928,-0.333412,0.0,23.0,74.0,173.0,18.0,0.0
745947,-2.50834,-1.113153,2.867086,0.382207,-1.207658,-0.320705,0.0,23.0,74.0,173.0,18.0,0.0
745948,-2.496551,-1.202018,2.89118,0.462121,-0.8058609999999999,-0.195228,0.0,23.0,74.0,173.0,18.0,0.0
745949,-2.500235,-1.295549,2.898007,0.11518,0.082945,-0.003086,0.0,23.0,74.0,173.0,18.0,0.0
745950,-2.5592080000000004,-1.36612,2.870759,-0.25828,1.486877,0.7100609999999999,0.0,23.0,74.0,173.0,18.0,0.0
745951,-2.538167,-1.388019,2.910684,-0.572821,2.1228740000000004,0.975369,0.0,23.0,74.0,173.0,18.0,0.0
745952,-2.371626,-1.377141,3.072062,-0.281715,0.331437,-0.114727,0.0,23.0,74.0,173.0,18.0,0.0
745953,-2.193163,-1.372895,-3.0493200000000003,0.319903,-0.456556,-1.156609,0.0,23.0,74.0,173.0,18.0,0.0
745954,-2.143709,-1.37605,-2.990754,1.091161,-0.172534,0.306093,0.0,23.0,74.0,173.0,18.0,0.0
745955,-2.310266,-1.380043,-3.06446,0.270589,0.312999,0.840217,0.0,23.0,74.0,173.0,18.0,0.0
745956,-2.347392,-1.389182,-3.102799,-0.932948,0.495786,-0.447479,0.0,23.0,74.0,173.0,18.0,0.0
745957,-2.267833,-1.39614,-3.056035,-0.537722,-0.13363599999999998,-0.163096,0.0,23.0,74.0,173.0,18.0,0.0
745958,-2.200629,-1.405315,-3.0087740000000003,-0.784345,0.430165,0.8664290000000001,0.0,23.0,74.0,173.0,18.0,0.0
745959,-2.145868,-1.406783,-2.977947,-0.7335430000000001,1.155815,-0.31292800000000004,0.0,23.0,74.0,173.0,18.0,0.0
745960,-2.148519,-1.399357,-2.980443,0.014008,-0.116016,-0.278593,0.0,23.0,74.0,173.0,18.0,0.0
745961,-2.217859,-1.387879,-3.025929,0.051059,-0.265681,0.312782,0.0,23.0,74.0,173.0,18.0,0.0
745962,-2.264579,-1.38116,-3.050559,0.010054,-0.292894,0.068214,0.0,23.0,74.0,173.0,18.0,0.0
745963,-2.30362,-1.374447,-3.0916650000000003,-0.08669600000000001,-0.362743,0.184493,0.0,23.0,74.0,173.0,18.0,0.0
745964,-2.374888,-1.361908,3.104157,-0.066352,-0.225958,0.260608,0.0,23.0,74.0,173.0,18.0,0.0
745965,-2.446547,-1.337723,3.020698,-0.087358,-0.13153,0.349908,0.0,23.0,74.0,173.0,18.0,0.0
745966,-2.51331,-1.293501,2.954971,-0.045565,-0.026359,0.156802,0.0,23.0,74.0,173.0,18.0,0.0
745967,-2.587637,-1.228283,2.8900490000000003,0.137464,0.107464,-0.057937,0.0,23.0,74.0,173.0,18.0,0.0
745968,-2.650326,-1.156226,2.837905,0.145965,0.159692,-0.3905,0.0,23.0,74.0,173.0,18.0,0.0
745969,-2.684718,-1.086639,2.81344,0.163833,0.156116,-0.543623,0.0,23.0,74.0,173.0,18.0,0.0
745970,-2.675946,-1.026653,2.817958,0.140049,0.043034,-0.3412,0.0,23.0,74.0,173.0,18.0,0.0
745971,-2.649324,-0.980498,2.825391,0.107535,0.1135,-0.346293,0.0,23.0,74.0,173.0,18.0,0.0
745972,-2.62591,-0.942909,2.827891,-0.07753600000000001,0.12461300000000003,-0.333752,0.0,23.0,74.0,173.0,18.0,0.0
745973,-2.603357,-0.923839,2.842635,-0.416002,0.208182,-0.58329,0.0,23.0,74.0,173.0,18.0,0.0
745974,-2.585912,-0.924621,2.858344,-0.31511100000000003,0.052163,-0.631261,0.0,23.0,74.0,173.0,18.0,0.0
745975,-2.575597,-0.946394,2.867974,-0.12083900000000003,-0.337405,-0.543311,0.0,23.0,74.0,173.0,18.0,0.0
745976,-2.566363,-0.985845,2.879576,-0.082469,-0.5338729999999999,-0.30389,0.0,23.0,74.0,173.0,18.0,0.0
745977,-2.562867,-1.047299,2.890272,0.053063,-0.688418,-0.16193,0.0,23.0,74.0,173.0,18.0,0.0
745978,-2.561156,-1.134225,2.906411,0.18215,-0.749865,-0.065941,0.0,23.0,74.0,173.0,18.0,0.0
745979,-2.561623,-1.232542,2.927149,0.179498,-0.585288,0.058192,0.0,23.0,74.0,173.0,18.0,0.0
745980,-2.553764,-1.322631,2.951055,0.056425,-0.100438,-0.142522,0.0,23.0,74.0,173.0,18.0,0.0
745981,-2.550724,-1.392423,2.962975,-0.098911,0.796689,-0.362252,0.0,23.0,74.0,173.0,18.0,0.0
745982,-2.545421,-1.432685,2.989379,-0.149186,0.733903,0.4905390000000001,0.0,23.0,74.0,173.0,18.0,0.0
745983,-2.466509,-1.44875,3.101221,-0.227824,0.256141,1.013511,0.0,23.0,74.0,173.0,18.0,0.0
745984,-2.382745,-1.440063,-3.067777,0.104348,-0.068172,-0.08754400000000001,0.0,23.0,74.0,173.0,18.0,0.0
745985,-2.250633,-1.440604,-2.931421,0.586191,-0.236532,-0.823987,0.0,23.0,74.0,173.0,18.0,0.0
745986,-2.2075150000000003,-1.449068,-2.830889,0.742334,-0.078889,0.30671,0.0,23.0,74.0,173.0,18.0,0.0
745987,-2.352154,-1.454823,-2.906162,-0.758516,0.431369,0.689521,0.0,23.0,74.0,173.0,18.0,0.0
745988,-2.287054,-1.462348,-2.883278,-0.8195899999999999,0.7259369999999999,-0.6208229999999999,0.0,23.0,74.0,173.0,18.0,0.0
745989,-2.1449740000000004,-1.468861,-2.79707,-0.223809,0.026858,0.077069,0.0,23.0,74.0,173.0,18.0,0.0
745990,-2.035612,-1.483456,-2.706063,-0.5468890000000001,0.629666,0.5775680000000001,0.0,23.0,74.0,173.0,18.0,0.0
745991,-1.889102,-1.498727,-2.566775,-1.000825,0.683855,-0.209348,0.0,23.0,74.0,173.0,18.0,0.0
745992,-1.796153,-1.5017969999999998,-2.461429,-0.522139,-0.308091,-0.010783,0.0,23.0,74.0,173.0,18.0,0.0
745993,-1.913149,-1.49973,-2.561742,-0.174676,-0.553323,0.49017,0.0,23.0,74.0,173.0,18.0,0.0
745994,-2.052021,-1.496715,-2.67968,0.15253699999999998,-0.598179,0.27223,0.0,23.0,74.0,173.0,18.0,0.0
745995,-2.183726,-1.495928,-2.79721,0.153314,-0.463721,0.15721300000000002,0.0,23.0,74.0,173.0,18.0,0.0
745996,-2.396077,-1.494634,-3.013705,0.109583,-0.477341,0.280262,0.0,23.0,74.0,173.0,18.0,0.0
745997,-2.633181,-1.488584,3.032327,-0.06184700000000001,-0.428278,0.191847,0.0,23.0,74.0,173.0,18.0,0.0
745998,-2.7759560000000003,-1.471986,2.903193,-0.255591,-0.238866,0.17064300000000002,0.0,23.0,74.0,173.0,18.0,0.0
745999,-2.849382,-1.4396799999999998,2.857399,-0.32391,-0.0214,0.109528,0.0,23.0,74.0,173.0,18.0,0.0
746000,-2.893143,-1.390987,2.839412,-0.188368,0.264352,-0.029612,0.0,23.0,74.0,173.0,18.0,0.0
746001,-2.92486,-1.33121,2.838023,-0.063106,0.7003010000000001,-0.119872,0.0,23.0,74.0,173.0,18.0,0.0
746002,-2.910566,-1.265658,2.879825,-0.220547,0.991416,-0.217019,0.0,23.0,74.0,173.0,18.0,0.0
746003,-2.846538,-1.201572,2.945122,-0.23950700000000005,0.6173350000000001,-0.258353,0.0,23.0,74.0,173.0,18.0,0.0
746004,-2.770701,-1.146576,3.003361,-0.223402,0.188234,-0.091065,0.0,23.0,74.0,173.0,18.0,0.0
746005,-2.7026830000000004,-1.102915,3.068236,-0.25569000000000003,0.183448,-0.080063,0.0,23.0,74.0,173.0,18.0,0.0
746006,-2.657618,-1.07471,3.1236330000000003,-0.672535,0.307315,-0.026149,0.0,23.0,74.0,173.0,18.0,0.0
746007,-2.624315,-1.062827,-3.122367,-0.653478,0.313033,-0.027595,0.0,23.0,74.0,173.0,18.0,0.0
746008,-2.605223,-1.070775,-3.104927,-0.007481999999999998,-0.06713200000000001,-0.221548,0.0,23.0,74.0,173.0,18.0,0.0
746009,-2.59286,-1.0959,-3.087227,0.265801,-0.543759,-0.378092,0.0,23.0,74.0,173.0,18.0,0.0
746010,-2.568804,-1.13184,-3.0534060000000003,0.25763600000000003,-0.5596140000000001,-0.345139,0.0,23.0,74.0,173.0,18.0,0.0
746011,-2.530287,-1.176778,-3.009926,0.233443,-0.83852,-0.299744,0.0,23.0,74.0,173.0,18.0,0.0
746012,-2.476285,-1.226632,-2.958277,0.241106,-0.945233,-0.252785,0.0,23.0,74.0,173.0,18.0,0.0
746013,-2.408546,-1.282001,-2.8900900000000003,0.166521,-0.991013,-0.236226,0.0,23.0,74.0,173.0,18.0,0.0
746014,-2.334963,-1.346647,-2.804088,0.070234,-1.068871,-0.228661,0.0,23.0,74.0,173.0,18.0,0.0
746015,-2.322356,-1.416401,-2.760018,-0.040368,0.268594,0.752423,0.0,23.0,74.0,173.0,18.0,0.0
746016,-2.53487,-1.46677,-2.874232,-0.361646,0.909108,1.286383,0.0,23.0,74.0,173.0,18.0,0.0
746017,-2.7458720000000003,-1.466069,-2.988452,-1.319156,1.775514,1.103189,0.0,23.0,74.0,173.0,18.0,0.0
746018,-2.692731,-1.422322,-2.900596,-0.777329,0.725907,0.264017,0.0,23.0,74.0,173.0,18.0,0.0
746019,-2.685179,-1.369005,-2.874968,0.001847,-0.432147,0.617286,0.0,23.0,74.0,173.0,18.0,0.0
746020,-2.6161830000000004,-1.333834,-2.828367,0.414283,-1.152231,0.724219,0.0,23.0,74.0,173.0,18.0,0.0
746021,-2.457473,-1.32798,-2.755716,1.073875,-1.179435,-0.891152,0.0,23.0,74.0,173.0,18.0,0.0
746022,-2.34831,-1.349163,-2.761159,1.712018,0.105072,-1.909808,0.0,23.0,74.0,173.0,18.0,0.0
746023,-2.62795,-1.39666,-2.989301,1.834932,1.070498,-1.7315580000000002,0.0,23.0,74.0,173.0,18.0,0.0
746024,-3.052519,-1.416426,2.994122,-0.317545,2.274419,-0.352489,0.0,23.0,74.0,173.0,18.0,0.0
746025,-3.016892,-1.434346,3.003109,-1.841449,2.46126,1.136314,0.0,23.0,74.0,173.0,18.0,0.0
746026,-2.8197400000000004,-1.422594,-3.123426,-1.22505,0.039648,-1.331439,0.0,23.0,74.0,173.0,18.0,0.0
746027,-2.83121,-1.427343,-3.110314,-0.022712,-0.049939,-0.397132,0.0,23.0,74.0,173.0,18.0,0.0
746028,-2.788045,-1.457205,-3.046476,0.418425,0.070882,-0.392378,0.0,23.0,74.0,173.0,18.0,0.0
746029,-2.713039,-1.498617,-2.965959,0.35478200000000004,0.033411,-0.113111,0.0,23.0,74.0,173.0,18.0,0.0
746030,-2.766971,-1.546681,-3.020334,0.212619,0.117509,0.044364,0.0,23.0,74.0,173.0,18.0,0.0
746031,0.505777,-1.545439,0.242099,-0.367921,0.349107,-0.076726,0.0,23.0,74.0,173.0,18.0,0.0
746032,0.43647,-1.501306,0.162215,-0.5068,0.016818,0.202634,0.0,23.0,74.0,173.0,18.0,0.0
746033,0.434822,-1.463846,0.146739,-0.297118,-0.256707,0.369701,0.0,23.0,74.0,173.0,18.0,0.0
746034,0.422142,-1.430101,0.123771,0.096872,-0.251685,0.370536,0.0,23.0,74.0,173.0,18.0,0.0
746035,0.441429,-1.399183,0.141798,0.096413,-0.196202,0.443358,0.0,23.0,74.0,173.0,18.0,0.0
746036,0.493034,-1.371419,0.194414,-0.197517,-0.107464,0.490312,0.0,23.0,74.0,173.0,18.0,0.0
746037,0.568706,-1.3506209999999998,0.267343,-0.366535,-0.063872,0.570773,0.0,23.0,74.0,173.0,18.0,0.0
746038,0.652317,-1.339017,0.334899,-0.729284,0.098335,0.942174,0.0,23.0,74.0,173.0,18.0,0.0
746039,0.716411,-1.334791,0.381636,-0.8652920000000001,0.113917,0.572199,0.0,23.0,74.0,173.0,18.0,0.0
746040,0.7363810000000001,-1.3347719999999998,0.409113,-0.8821459999999999,0.095291,0.387074,0.0,23.0,74.0,173.0,18.0,0.0
746041,0.75645,-1.348235,0.461887,-0.964438,0.08316699999999999,0.5818409999999999,0.0,23.0,74.0,173.0,18.0,0.0
746042,0.863087,-1.38586,0.615222,-0.6927949999999999,0.285057,1.291508,0.0,23.0,74.0,173.0,18.0,0.0
746043,1.27111,-1.435289,1.076233,-0.354139,0.637845,0.653469,0.0,23.0,74.0,173.0,18.0,0.0
746044,1.877983,-1.441474,1.7602799999999998,-0.216386,1.040455,-1.04928,0.0,23.0,74.0,173.0,18.0,0.0
746045,2.293504,-1.432945,2.265078,-0.593923,1.458217,-1.378791,0.0,23.0,74.0,173.0,18.0,0.0
746046,2.673544,-1.411728,2.709168,-0.813954,0.929998,-0.825018,0.0,23.0,74.0,173.0,18.0,0.0
746047,3.058838,-1.375636,3.106814,-1.310585,0.354433,-0.69886,0.0,23.0,74.0,173.0,18.0,0.0
746048,-2.855761,-1.321393,-2.792199,-1.475786,0.07249,-0.521403,0.0,23.0,74.0,173.0,18.0,0.0
746049,-2.665512,-1.268153,-2.565616,-0.778003,0.617103,-0.463998,0.0,23.0,74.0,173.0,18.0,0.0
746050,-2.617138,-1.222398,-2.437877,0.096563,0.88297,-0.634605,0.0,23.0,74.0,173.0,18.0,0.0
746051,-2.628574,-1.186357,-2.340076,0.273489,0.252206,-0.775825,0.0,23.0,74.0,173.0,18.0,0.0
746052,-2.657099,-1.162113,-2.255837,0.25089,-0.280362,-0.624599,0.0,23.0,74.0,173.0,18.0,0.0
746053,-2.677149,-1.145713,-2.17488,0.30743400000000004,-0.5317930000000001,-0.614821,0.0,23.0,74.0,173.0,18.0,0.0
746054,-2.685674,-1.13289,-2.091762,0.330256,-0.57213,-0.6488430000000001,0.0,23.0,74.0,173.0,18.0,0.0
746055,-2.689983,-1.127975,-2.0132830000000004,0.322863,-0.488874,-0.678593,0.0,23.0,74.0,173.0,18.0,0.0
746056,-2.690243,-1.134096,-1.943199,0.312352,-0.48002,-0.742185,0.0,23.0,74.0,173.0,18.0,0.0
746057,-2.688452,-1.149581,-1.873793,0.313658,-0.506968,-0.7489680000000001,0.0,23.0,74.0,173.0,18.0,0.0
746058,-2.686489,-1.172319,-1.800037,0.327674,-0.500495,-0.6461600000000001,0.0,23.0,74.0,173.0,18.0,0.0
746059,-2.673692,-1.203409,-1.726606,0.46601,-0.50468,-0.494324,0.0,23.0,74.0,173.0,18.0,0.0
746060,-2.6386580000000004,-1.245186,-1.651984,0.416957,-0.372032,-0.331805,0.0,23.0,74.0,173.0,18.0,0.0
746061,-2.563133,-1.293613,-1.5590959999999998,0.057068,-0.146507,-0.156282,0.0,23.0,74.0,173.0,18.0,0.0
746062,-2.429355,-1.347604,-1.435991,-0.038237,0.390588,0.206748,0.0,23.0,74.0,173.0,18.0,0.0
746063,-2.469552,-1.365528,-1.451816,-0.6744140000000001,2.602201,1.750389,0.0,23.0,74.0,173.0,18.0,0.0
746064,-2.567151,-1.319569,-1.468219,-0.7869659999999999,0.878682,1.383653,0.0,23.0,74.0,173.0,18.0,0.0
746065,-2.534018,-1.29591,-1.366251,-0.73759,-0.412179,0.6144970000000001,0.0,23.0,74.0,173.0,18.0,0.0
746066,-2.37567,-1.275049,-1.178273,-0.752843,-0.929561,-0.411434,0.0,23.0,74.0,173.0,18.0,0.0
746067,-2.246706,-1.262673,-1.09173,-0.470469,-0.8061149999999999,-1.744752,0.0,23.0,74.0,173.0,18.0,0.0
746068,-2.0512240000000004,-1.279062,-0.984647,0.33765100000000003,-0.153944,-1.478459,0.0,23.0,74.0,173.0,18.0,0.0
746069,-2.025494,-1.306082,-0.980149,0.477223,1.328442,-0.311623,0.0,23.0,74.0,173.0,18.0,0.0
746070,-2.359683,-1.3152469999999998,-1.184101,0.408005,0.8293659999999999,1.262409,0.0,23.0,74.0,173.0,18.0,0.0
746071,-2.428727,-1.347734,-1.133815,0.657799,0.014155,-0.237371,0.0,23.0,74.0,173.0,18.0,0.0
746072,-2.333206,-1.368861,-0.986297,-0.024542,-0.6517229999999999,-0.577596,0.0,23.0,74.0,173.0,18.0,0.0
746073,-2.147977,-1.402462,-0.782139,-0.081005,-0.319331,-0.409887,0.0,23.0,74.0,173.0,18.0,0.0
746074,-1.886973,-1.427459,-0.533337,-0.256796,0.198839,-0.438261,0.0,23.0,74.0,173.0,18.0,0.0
746075,-1.769872,-1.435704,-0.41576,-0.343945,0.270342,0.096076,0.0,23.0,74.0,173.0,18.0,0.0
746076,-1.686697,-1.447602,-0.319322,-0.085659,0.073085,0.436702,0.0,23.0,74.0,173.0,18.0,0.0
746077,-1.467977,-1.457912,-0.088891,0.20049,-0.129591,0.143321,0.0,23.0,74.0,173.0,18.0,0.0
746078,-1.19025,-1.465627,0.213411,0.353249,-0.214705,-0.00207,0.0,23.0,74.0,173.0,18.0,0.0
746079,-0.8453930000000001,-1.47153,0.579285,0.318644,-0.222448,0.035628,0.0,23.0,74.0,173.0,18.0,0.0
746080,-0.514684,-1.46459,0.918823,-0.016116,-0.159649,0.200382,0.0,23.0,74.0,173.0,18.0,0.0
746081,-0.308646,-1.452166,1.117345,-0.230528,-0.06275,0.066617,0.0,23.0,74.0,173.0,18.0,0.0
746082,-0.171262,-1.441618,1.244194,-0.290439,-0.045318,-0.035342,0.0,23.0,74.0,173.0,18.0,0.0
746083,-0.072699,-1.431668,1.349472,-0.306654,-0.040356,-0.139931,0.0,23.0,74.0,173.0,18.0,0.0
746084,-0.007285,-1.415202,1.42804,-0.297501,-0.003392,0.006205,0.0,23.0,74.0,173.0,18.0,0.0
746085,0.017712000000000002,-1.393393,1.471047,-0.278211,0.02662,0.13001400000000002,0.0,23.0,74.0,173.0,18.0,0.0
746086,0.001013,-1.372202,1.483335,-0.33770900000000004,0.301775,0.522502,0.0,23.0,74.0,173.0,18.0,0.0
746087,-0.030407,-1.358622,1.4841719999999998,-0.417853,0.466166,0.685846,0.0,23.0,74.0,173.0,18.0,0.0
746088,-0.058061,-1.353954,1.485623,-0.411771,0.467159,0.690142,0.0,23.0,74.0,173.0,18.0,0.0
746089,-0.094094,-1.363038,1.468293,-0.357558,0.132619,0.745881,0.0,23.0,74.0,173.0,18.0,0.0
746090,-0.152726,-1.389716,1.426532,-0.247428,0.269463,1.035692,0.0,23.0,74.0,173.0,18.0,0.0
746091,-0.283081,-1.441418,1.320402,-0.17390899999999998,0.569164,0.884335,0.0,23.0,74.0,173.0,18.0,0.0
746092,-0.544925,-1.485754,1.073244,-0.181175,0.593671,0.008185,0.0,23.0,74.0,173.0,18.0,0.0
746093,-1.281521,-1.513281,0.356279,-0.125888,0.399313,-0.740987,0.0,23.0,74.0,173.0,18.0,0.0
746094,-2.184657,-1.475453,-0.534736,-0.10074,0.455424,-0.7833979999999999,0.0,23.0,74.0,173.0,18.0,0.0
746095,-2.399642,-1.396364,-0.7391840000000001,-0.029548,0.546303,-0.702563,0.0,23.0,74.0,173.0,18.0,0.0
746096,-2.381455,-1.313358,-0.7025359999999999,-0.387469,0.553508,-0.5969979999999999,0.0,23.0,74.0,173.0,18.0,0.0
746097,-2.317944,-1.230617,-0.603973,-0.318116,0.577859,-0.639211,0.0,23.0,74.0,173.0,18.0,0.0
746098,-2.2702150000000003,-1.144456,-0.523638,-0.121265,0.5240239999999999,-0.505637,0.0,23.0,74.0,173.0,18.0,0.0
746099,-2.269001,-1.064601,-0.48736,0.286664,0.5566939999999999,-0.263726,0.0,23.0,74.0,173.0,18.0,0.0
746100,-2.290759,-0.991589,-0.467735,0.326791,0.5943930000000001,-0.312948,0.0,23.0,74.0,173.0,18.0,0.0
746101,-2.321286,-0.925075,-0.446787,0.204622,0.075174,-0.42585,0.0,23.0,74.0,173.0,18.0,0.0
746102,-2.350522,-0.869445,-0.423333,0.503993,-0.30738200000000004,-0.443458,0.0,23.0,74.0,173.0,18.0,0.0
746103,-2.371862,-0.824459,-0.394123,0.519266,-0.291141,-0.475517,0.0,23.0,74.0,173.0,18.0,0.0
746104,-2.391585,-0.799802,-0.362813,0.4960600000000001,-0.329446,-0.50116,0.0,23.0,74.0,173.0,18.0,0.0
746105,-2.409243,-0.792238,-0.331183,0.590787,-0.651853,-0.539335,0.0,23.0,74.0,173.0,18.0,0.0
746106,-2.424048,-0.797204,-0.298817,0.674317,-0.723035,-0.509807,0.0,23.0,74.0,173.0,18.0,0.0
746107,-2.435257,-0.81604,-0.271721,0.814789,-0.840835,-0.407822,0.0,23.0,74.0,173.0,18.0,0.0
746108,-2.433789,-0.847435,-0.252301,0.870383,-0.9035,-0.316343,0.0,23.0,74.0,173.0,18.0,0.0
746109,-2.412177,-0.8878020000000001,-0.234974,0.762487,-0.8378959999999999,-0.279377,0.0,23.0,74.0,173.0,18.0,0.0
746110,-2.369592,-0.933736,-0.207409,0.520881,-0.7150270000000001,-0.274415,0.0,23.0,74.0,173.0,18.0,0.0
746111,-2.317214,-0.985535,-0.16657,0.167873,-0.380305,-0.222816,0.0,23.0,74.0,173.0,18.0,0.0
746112,-2.27042,-1.04051,-0.122262,-0.144713,0.269448,-0.075473,0.0,23.0,74.0,173.0,18.0,0.0
746113,-2.272917,-1.094572,-0.105055,-0.4977970000000001,1.407716,0.145596,0.0,23.0,74.0,173.0,18.0,0.0
746114,-2.302654,-1.141597,-0.099378,-0.443927,1.181887,0.194903,0.0,23.0,74.0,173.0,18.0,0.0
746115,-2.269859,-1.177314,-0.048255,-0.023936,0.07034800000000001,0.214718,0.0,23.0,74.0,173.0,18.0,0.0
746116,-2.1777900000000003,-1.201054,0.030251,0.258644,-0.417497,-0.098036,0.0,23.0,74.0,173.0,18.0,0.0
746117,-2.082586,-1.21011,0.101261,0.35036,-0.302797,-0.0999,0.0,23.0,74.0,173.0,18.0,0.0
746118,-2.031904,-1.214644,0.144016,0.5315850000000001,-0.093099,0.055281,0.0,23.0,74.0,173.0,18.0,0.0
746119,-2.041119,-1.216042,0.156857,0.282057,0.045911,0.055995,0.0,23.0,74.0,173.0,18.0,0.0
746120,-2.041629,-1.216958,0.175762,0.06453500000000001,0.01979,-0.778414,0.0,23.0,74.0,173.0,18.0,0.0
746121,-2.031933,-1.216931,0.218912,0.23013000000000006,0.217004,0.05113,0.0,23.0,74.0,173.0,18.0,0.0
746122,-2.0887830000000003,-1.205524,0.217059,-0.560596,0.93429,0.225389,0.0,23.0,74.0,173.0,18.0,0.0
746123,-2.099771,-1.1905370000000002,0.212588,-0.062472,0.437047,-0.767674,0.0,23.0,74.0,173.0,18.0,0.0
746124,-2.09353,-1.187471,0.201333,0.232325,-0.056256,0.47412,0.0,23.0,74.0,173.0,18.0,0.0
746125,-2.072066,-1.19445,0.207988,0.075941,0.683832,0.372737,0.0,23.0,74.0,173.0,18.0,0.0
746126,-2.029677,-1.202226,0.235263,-0.183627,0.743854,-0.372476,0.0,23.0,74.0,173.0,18.0,0.0
746127,-2.005036,-1.197902,0.249372,-0.33063200000000004,-0.01311,0.217912,0.0,23.0,74.0,173.0,18.0,0.0
746128,-2.003626,-1.185144,0.241522,-0.206377,-0.40983,0.116422,0.0,23.0,74.0,173.0,18.0,0.0
746129,-2.015717,-1.175423,0.226687,0.103424,-0.497407,-0.055504,0.0,23.0,74.0,173.0,18.0,0.0
746130,-2.037556,-1.176222,0.198269,0.08774,-0.627186,0.245716,0.0,23.0,74.0,173.0,18.0,0.0
746131,-2.075455,-1.180715,0.151595,-0.115001,-0.348248,0.549797,0.0,23.0,74.0,173.0,18.0,0.0
746132,-2.124951,-1.175574,0.097383,-0.062544,0.093996,0.430254,0.0,23.0,74.0,173.0,18.0,0.0
746133,-2.1787810000000003,-1.148919,0.038491,0.087332,0.300126,0.22495,0.0,23.0,74.0,173.0,18.0,0.0
746134,-2.251775,-1.100079,-0.025572,0.213897,0.218147,-0.044842,0.0,23.0,74.0,173.0,18.0,0.0
746135,-2.335488,-1.0425,-0.09898,0.30155,0.171093,-0.229524,0.0,23.0,74.0,173.0,18.0,0.0
746136,-2.408045,-1.004822,-0.171015,0.346932,0.170674,-0.371938,0.0,23.0,74.0,173.0,18.0,0.0
746137,-2.439697,-0.948363,-0.217294,0.21562,0.181297,-0.471645,0.0,23.0,74.0,173.0,18.0,0.0
746138,-2.420106,-0.8858309999999999,-0.241717,0.192995,0.086506,-0.218216,0.0,23.0,74.0,173.0,18.0,0.0
746139,-2.382295,-0.836482,-0.247132,-0.08787400000000001,0.485081,-0.34236,0.0,23.0,74.0,173.0,18.0,0.0
746140,-2.378068,-0.813891,-0.24091,-0.19187,0.255244,-0.420739,0.0,23.0,74.0,173.0,18.0,0.0
746141,-2.375402,-0.806829,-0.231138,0.127406,-0.377553,-0.440004,0.0,23.0,74.0,173.0,18.0,0.0
746142,-2.366925,-0.819858,-0.222955,0.153007,-0.601166,-0.36525,0.0,23.0,74.0,173.0,18.0,0.0
746143,-2.343591,-0.8516100000000001,-0.20667600000000005,0.094993,-0.714378,-0.259689,0.0,23.0,74.0,173.0,18.0,0.0
746144,-2.3071740000000003,-0.904262,-0.17948699999999998,0.355126,-0.563649,-0.055385,0.0,23.0,74.0,173.0,18.0,0.0
746145,-2.258976,-0.982341,-0.12550999999999998,0.4341600000000001,-0.5375939999999999,0.000984,0.0,23.0,74.0,173.0,18.0,0.0
746146,-2.206706,-1.071734,-0.05294,0.432383,-0.50732,0.026194,0.0,23.0,74.0,173.0,18.0,0.0
746147,-2.15736,-1.151858,0.028259,0.030918,0.285102,-0.160295,0.0,23.0,74.0,173.0,18.0,0.0
746148,-2.096927,-1.214742,0.119357,-0.185792,0.61135,-0.104161,0.0,23.0,74.0,173.0,18.0,0.0
746149,-2.044218,-1.251266,0.196807,-0.30484,0.814289,0.036027,0.0,23.0,74.0,173.0,18.0,0.0
746150,-2.033284,-1.2472530000000002,0.231513,-0.092669,0.323934,0.6204930000000001,0.0,23.0,74.0,173.0,18.0,0.0
746151,-2.025916,-1.226246,0.26915900000000004,0.338104,0.08868,-0.166892,0.0,23.0,74.0,173.0,18.0,0.0
746152,-1.981693,-1.217566,0.343248,0.602155,-0.171964,-0.981987,0.0,23.0,74.0,173.0,18.0,0.0
746153,-2.075638,-1.212581,0.333868,0.170407,0.4612729999999999,1.356547,0.0,23.0,74.0,173.0,18.0,0.0
746154,-2.116791,-1.206819,0.302036,-0.473764,0.70928,0.297291,0.0,23.0,74.0,173.0,18.0,0.0
746155,-2.06921,-1.195609,0.29711,-0.444965,0.7881279999999999,-0.483004,0.0,23.0,74.0,173.0,18.0,0.0
746156,-2.074557,-1.183452,0.273909,0.088787,-0.187085,-0.319363,0.0,23.0,74.0,173.0,18.0,0.0
746157,-2.04724,-1.178614,0.274724,0.196269,-0.317281,-0.460917,0.0,23.0,74.0,173.0,18.0,0.0
746158,-2.005784,-1.189623,0.288462,0.101465,-0.22710300000000005,-0.089077,0.0,23.0,74.0,173.0,18.0,0.0
746159,-1.966468,-1.213719,0.316732,-0.6855100000000001,0.418363,0.457548,0.0,23.0,74.0,173.0,18.0,0.0
746160,-1.928834,-1.224675,0.353396,-0.936031,0.570199,0.102809,0.0,23.0,74.0,173.0,18.0,0.0
746161,-1.916771,-1.208446,0.35738400000000003,-0.74815,0.237877,0.5538350000000001,0.0,23.0,74.0,173.0,18.0,0.0
746162,-1.982352,-1.184424,0.310367,-0.306398,0.06592100000000001,0.691326,0.0,23.0,74.0,173.0,18.0,0.0
746163,-2.070852,-1.155717,0.235345,0.34972,0.00702,0.370153,0.0,23.0,74.0,173.0,18.0,0.0
746164,-2.204527,-1.121948,0.112696,0.850814,-0.113121,0.123525,0.0,23.0,74.0,173.0,18.0,0.0
746165,-2.326391,-1.071493,-0.007918000000000001,0.793473,0.019331,-0.012873,0.0,23.0,74.0,173.0,18.0,0.0
746166,-2.409068,-1.009316,-0.08607200000000001,0.493901,0.067594,-0.31995,0.0,23.0,74.0,173.0,18.0,0.0
746167,-2.454726,-0.947697,-0.129255,0.197481,0.11415,-0.425576,0.0,23.0,74.0,173.0,18.0,0.0
746168,-2.45932,-0.8945129999999999,-0.14917,0.089002,0.34872800000000004,-0.396462,0.0,23.0,74.0,173.0,18.0,0.0
746169,-2.426484,-0.848683,-0.173482,0.167576,0.510606,-0.369577,0.0,23.0,74.0,173.0,18.0,0.0
746170,-2.387408,-0.811117,-0.17846099999999998,0.064742,0.369044,-0.427429,0.0,23.0,74.0,173.0,18.0,0.0
746171,-2.358009,-0.791933,-0.164341,-0.041732,0.16438599999999998,-0.5042300000000001,0.0,23.0,74.0,173.0,18.0,0.0
746172,-2.3454490000000003,-0.793768,-0.149648,-0.012041,-0.102313,-0.4506,0.0,23.0,74.0,173.0,18.0,0.0
746173,-2.344438,-0.819903,-0.139612,-0.037558,-0.6644140000000001,-0.077303,0.0,23.0,74.0,173.0,18.0,0.0
746174,-2.335383,-0.867778,-0.121295,-0.038048,-0.8024600000000001,0.081229,0.0,23.0,74.0,173.0,18.0,0.0
746175,-2.299696,-0.93844,-0.077029,0.064585,-1.030697,0.196314,0.0,23.0,74.0,173.0,18.0,0.0
746176,-2.240325,-1.029083,0.008652,0.037609,-0.95787,0.07208200000000001,0.0,23.0,74.0,173.0,18.0,0.0
746177,-2.176591,-1.12152,0.102182,0.114108,-0.474095,-0.308661,0.0,23.0,74.0,173.0,18.0,0.0
746178,-2.113723,-1.201292,0.17144,0.195801,0.934529,-0.635929,0.0,23.0,74.0,173.0,18.0,0.0
746179,-2.048689,-1.254725,0.240887,0.243998,1.624182,-0.22633000000000006,0.0,23.0,74.0,173.0,18.0,0.0
746180,-1.983264,-1.272547,0.341724,0.05999,0.691746,0.497897,0.0,23.0,74.0,173.0,18.0,0.0
746181,-1.937758,-1.269871,0.4382720000000001,0.137281,-0.101974,0.718363,0.0,23.0,74.0,173.0,18.0,0.0
746182,-1.876508,-1.264892,0.524249,0.132773,-0.066048,0.033277,0.0,23.0,74.0,173.0,18.0,0.0
746183,-1.84363,-1.261884,0.582908,0.7190770000000001,0.034731,-0.528944,0.0,23.0,74.0,173.0,18.0,0.0
746184,-1.926984,-1.2618969999999998,0.581626,0.790254,0.209578,0.383935,0.0,23.0,74.0,173.0,18.0,0.0
746185,-1.969955,-1.249653,0.56982,0.354757,0.020027,-0.205409,0.0,23.0,74.0,173.0,18.0,0.0
746186,-1.950905,-1.241674,0.5596,0.386126,-0.262336,-0.29438800000000004,0.0,23.0,74.0,173.0,18.0,0.0
746187,-1.916846,-1.251095,0.545038,0.295912,0.333477,0.35943400000000003,0.0,23.0,74.0,173.0,18.0,0.0
746188,-1.858102,-1.266651,0.540818,-0.652724,2.229582,0.432334,0.0,23.0,74.0,173.0,18.0,0.0
746189,-1.8013880000000002,-1.26215,0.567527,-0.8295,0.21095100000000006,-0.631821,0.0,23.0,74.0,173.0,18.0,0.0
746190,-1.800187,-1.243315,0.5505180000000001,-0.7018270000000001,-0.715837,0.161876,0.0,23.0,74.0,173.0,18.0,0.0
746191,-1.799394,-1.235259,0.5353180000000001,-0.211867,-0.6915939999999999,-0.166964,0.0,23.0,74.0,173.0,18.0,0.0
746192,-1.777939,-1.241184,0.55545,-0.149598,-0.364671,0.28336100000000003,0.0,23.0,74.0,173.0,18.0,0.0
746193,-1.7469119999999998,-1.256503,0.582603,-0.287159,-0.033046,0.5188189999999999,0.0,23.0,74.0,173.0,18.0,0.0
746194,-1.716078,-1.267639,0.6137699999999999,-0.311162,0.31289,0.48005,0.0,23.0,74.0,173.0,18.0,0.0
746195,-1.730811,-1.2549709999999998,0.6050800000000001,-0.24424,0.15943,0.769115,0.0,23.0,74.0,173.0,18.0,0.0
746196,-1.822408,-1.224045,0.53294,-0.062855,-0.02085,0.753754,0.0,23.0,74.0,173.0,18.0,0.0
746197,-1.9705,-1.187248,0.4206180000000001,0.203557,-0.037298000000000005,0.613242,0.0,23.0,74.0,173.0,18.0,0.0
746198,-2.12985,-1.153004,0.271325,0.936974,-0.384904,0.110469,0.0,23.0,74.0,173.0,18.0,0.0
746199,-2.280171,-1.113677,0.103384,0.7997989999999999,-0.308033,-0.067212,0.0,23.0,74.0,173.0,18.0,0.0
746200,-2.380801,-1.064717,-0.016238,0.582647,-0.17421199999999998,-0.408276,0.0,23.0,74.0,173.0,18.0,0.0
746201,-2.431222,-1.012425,-0.067847,-0.01472,0.040568,-0.251296,0.0,23.0,74.0,173.0,18.0,0.0
746202,-2.436241,-0.958371,-0.094362,-0.007204,0.220318,0.014479,0.0,23.0,74.0,173.0,18.0,0.0
746203,-2.40133,-0.904797,-0.121831,0.017662,0.513947,-0.039478,0.0,23.0,74.0,173.0,18.0,0.0
746204,-2.36083,-0.8487120000000001,-0.11817,-0.353702,0.736356,-0.465068,0.0,23.0,74.0,173.0,18.0,0.0
746205,-2.359341,-0.8290200000000001,-0.111125,-0.106808,0.34941500000000003,-0.570346,0.0,23.0,74.0,173.0,18.0,0.0
746206,-2.359245,-0.822925,-0.099552,0.073612,-0.03482,-0.654671,0.0,23.0,74.0,173.0,18.0,0.0
746207,-2.362044,-0.828893,-0.085352,0.019096,-0.541261,-0.278654,0.0,23.0,74.0,173.0,18.0,0.0
746208,-2.361512,-0.8544450000000001,-0.05850900000000001,0.111419,-0.560542,-0.187493,0.0,23.0,74.0,173.0,18.0,0.0
746209,-2.349697,-0.905958,-0.013725,0.192053,-0.598067,-0.157972,0.0,23.0,74.0,173.0,18.0,0.0
746210,-2.322069,-0.981326,0.046266,0.5089239999999999,-0.470151,-0.124526,0.0,23.0,74.0,173.0,18.0,0.0
746211,-2.270323,-1.067634,0.11949,0.523173,-0.43876,0.00063,0.0,23.0,74.0,173.0,18.0,0.0
746212,-2.190356,-1.152361,0.213709,0.572202,-0.15982000000000002,0.247833,0.0,23.0,74.0,173.0,18.0,0.0
746213,-2.059093,-1.224704,0.330169,0.227757,0.8642719999999999,0.183163,0.0,23.0,74.0,173.0,18.0,0.0
746214,-1.924327,-1.266486,0.446683,-0.082833,1.218325,0.066826,0.0,23.0,74.0,173.0,18.0,0.0
746215,-1.872501,-1.273701,0.527255,-0.247136,-0.102523,0.965456,0.0,23.0,74.0,173.0,18.0,0.0
746216,-1.853717,-1.257954,0.5869949999999999,-0.121692,-0.318833,-0.023584,0.0,23.0,74.0,173.0,18.0,0.0
746217,-1.782807,-1.244912,0.671822,0.404669,-0.374049,-0.816635,0.0,23.0,74.0,173.0,18.0,0.0
746218,-1.807351,-1.24311,0.686617,0.52247,0.370487,0.882,0.0,23.0,74.0,173.0,18.0,0.0
746219,-1.893513,-1.246637,0.6333340000000001,-0.074059,1.070651,0.249831,0.0,23.0,74.0,173.0,18.0,0.0
746220,-1.861842,-1.242816,0.631598,-0.083048,0.739371,-0.409393,0.0,23.0,74.0,173.0,18.0,0.0
746221,-1.847525,-1.233582,0.6199399999999999,0.134739,-0.07557699999999999,0.055678,0.0,23.0,74.0,173.0,18.0,0.0
746222,-1.8133,-1.230397,0.631128,-0.115985,0.181524,-0.151842,0.0,23.0,74.0,173.0,18.0,0.0
746223,-1.7709970000000002,-1.235458,0.651465,-0.34556,0.392463,-0.059661,0.0,23.0,74.0,173.0,18.0,0.0
746224,-1.755961,-1.238266,0.6577689999999999,-0.949637,0.30642800000000003,0.513417,0.0,23.0,74.0,173.0,18.0,0.0
746225,-1.791662,-1.225521,0.612167,-0.330914,0.115536,0.679225,0.0,23.0,74.0,173.0,18.0,0.0
746226,-1.898874,-1.203057,0.5111359999999999,0.07579,0.172464,0.70087,0.0,23.0,74.0,173.0,18.0,0.0
746227,-2.040718,-1.174931,0.386498,0.510297,-0.082881,0.324704,0.0,23.0,74.0,173.0,18.0,0.0
746228,-2.179855,-1.136943,0.24004,0.688609,-0.282169,-0.075209,0.0,23.0,74.0,173.0,18.0,0.0
746229,-2.297034,-1.093435,0.098475,0.657171,-0.368297,-0.403315,0.0,23.0,74.0,173.0,18.0,0.0
746230,-2.377521,-1.039252,-0.005525,0.455618,-0.284557,-0.501727,0.0,23.0,74.0,173.0,18.0,0.0
746231,-2.408007,-0.979938,-0.048223,0.279552,-0.295062,-0.627497,0.0,23.0,74.0,173.0,18.0,0.0
746232,-2.403127,-0.919835,-0.071115,-0.03717,-0.3632510000000001,-0.283521,0.0,23.0,74.0,173.0,18.0,0.0
746233,-2.350205,-0.872843,-0.08100399999999999,0.216292,0.791656,-0.517718,0.0,23.0,74.0,173.0,18.0,0.0
746234,-2.316879,-0.8407180000000001,-0.082091,-0.103608,0.648616,-0.430396,0.0,23.0,74.0,173.0,18.0,0.0
746235,-2.2974,-0.821883,-0.077714,-0.119577,0.122933,-0.5172800000000001,0.0,23.0,74.0,173.0,18.0,0.0
746236,-2.30158,-0.825628,-0.071214,-0.041686,-0.341999,-0.365591,0.0,23.0,74.0,173.0,18.0,0.0
746237,-2.306112,-0.852466,-0.056507,0.010892,-0.691367,0.064571,0.0,23.0,74.0,173.0,18.0,0.0
746238,-2.295969,-0.901093,-0.029414,0.084512,-0.736078,0.143528,0.0,23.0,74.0,173.0,18.0,0.0
746239,-2.260584,-0.972735,0.019261,0.15041400000000002,-0.755857,0.198763,0.0,23.0,74.0,173.0,18.0,0.0
746240,-2.218829,-1.063192,0.096157,0.315231,-0.381022,0.210481,0.0,23.0,74.0,173.0,18.0,0.0
746241,-2.164222,-1.155747,0.185649,0.25951,-0.169934,0.161243,0.0,23.0,74.0,173.0,18.0,0.0
746242,-2.07437,-1.2370709999999998,0.271422,-0.077646,1.521938,-0.527515,0.0,23.0,74.0,173.0,18.0,0.0
746243,-1.941789,-1.281099,0.400846,0.028115,1.008985,-0.131305,0.0,23.0,74.0,173.0,18.0,0.0
746244,-1.826187,-1.287408,0.544937,0.08478,-0.16430699999999998,0.625897,0.0,23.0,74.0,173.0,18.0,0.0
746245,-1.82921,-1.270103,0.581442,0.26410100000000003,-0.417335,0.884318,0.0,23.0,74.0,173.0,18.0,0.0
746246,-1.819188,-1.261547,0.608686,0.832707,-0.390993,-0.612404,0.0,23.0,74.0,173.0,18.0,0.0
746247,-1.842838,-1.2677379999999998,0.6518390000000001,0.7392479999999999,-0.256369,-0.081961,0.0,23.0,74.0,173.0,18.0,0.0
746248,-1.922104,-1.27154,0.623606,-0.202216,0.310267,0.8366889999999999,0.0,23.0,74.0,173.0,18.0,0.0
746249,-1.869541,-1.271817,0.628042,-0.265468,0.860448,-0.4251,0.0,23.0,74.0,173.0,18.0,0.0
746250,-1.792644,-1.268661,0.638953,0.111419,0.329644,-0.23486,0.0,23.0,74.0,173.0,18.0,0.0
746251,-1.731216,-1.265507,0.668247,0.017291,-0.2073,0.023278,0.0,23.0,74.0,173.0,18.0,0.0
746252,-1.690897,-1.270067,0.689243,-0.679565,0.889911,0.72133,0.0,23.0,74.0,173.0,18.0,0.0
746253,-1.681282,-1.272142,0.685125,-0.844767,0.435975,-0.4722310000000001,0.0,23.0,74.0,173.0,18.0,0.0
746254,-1.7220099999999998,-1.2678969999999998,0.646641,-0.422659,-0.109642,0.451236,0.0,23.0,74.0,173.0,18.0,0.0
746255,-1.769936,-1.262,0.610218,-0.017997,-0.149172,0.73805,0.0,23.0,74.0,173.0,18.0,0.0
746256,-1.845802,-1.250577,0.541746,0.16456400000000002,0.14238599999999998,0.472719,0.0,23.0,74.0,173.0,18.0,0.0
746257,-1.964372,-1.230979,0.420175,0.223098,0.227182,0.393813,0.0,23.0,74.0,173.0,18.0,0.0
746258,-2.092664,-1.198192,0.28272600000000003,0.324999,-0.089173,0.159711,0.0,23.0,74.0,173.0,18.0,0.0
746259,-2.20745,-1.14857,0.154082,0.369244,-0.183526,0.01759,0.0,23.0,74.0,173.0,18.0,0.0
746260,-2.3008740000000003,-1.087322,0.048297,0.300737,-0.092691,-0.405531,0.0,23.0,74.0,173.0,18.0,0.0
746261,-2.370015,-1.021197,-0.025694,0.253176,-0.02084,-0.460498,0.0,23.0,74.0,173.0,18.0,0.0
746262,-2.4016900000000003,-0.961177,-0.059329,0.144982,-0.035366,-0.310593,0.0,23.0,74.0,173.0,18.0,0.0
746263,-2.394594,-0.907409,-0.08292999999999999,0.161769,-0.064873,-0.363796,0.0,23.0,74.0,173.0,18.0,0.0
746264,-2.359376,-0.8547049999999999,-0.09811,0.00159,0.370791,-0.433209,0.0,23.0,74.0,173.0,18.0,0.0
746265,-2.350967,-0.839572,-0.091376,-0.282303,0.225995,-0.4412,0.0,23.0,74.0,173.0,18.0,0.0
746266,-2.358042,-0.843917,-0.083471,-0.14225,-0.148482,-0.522313,0.0,23.0,74.0,173.0,18.0,0.0
746267,-2.359087,-0.865864,-0.070073,-0.013837,-0.400312,-0.435438,0.0,23.0,74.0,173.0,18.0,0.0
746268,-2.353742,-0.910174,-0.043326,0.016599000000000003,-0.359694,-0.291952,0.0,23.0,74.0,173.0,18.0,0.0
746269,-2.342622,-0.978337,-0.006204,0.145275,-0.3809010000000001,-0.126973,0.0,23.0,74.0,173.0,18.0,0.0
746270,-2.312203,-1.069963,0.058478,0.260054,-0.29748600000000003,0.122774,0.0,23.0,74.0,173.0,18.0,0.0
746271,-2.253303,-1.167288,0.149246,0.345769,-0.105785,0.289084,0.0,23.0,74.0,173.0,18.0,0.0
746272,-2.148386,-1.252203,0.256524,0.259535,0.61647,-0.083242,0.0,23.0,74.0,173.0,18.0,0.0
746273,-2.00476,-1.310385,0.378409,0.22618,1.066995,-0.351716,0.0,23.0,74.0,173.0,18.0,0.0
746274,-1.867642,-1.339119,0.533723,0.092325,0.226577,0.283439,0.0,23.0,74.0,173.0,18.0,0.0
746275,-1.76663,-1.346563,0.696477,-0.029145,-0.435933,0.784079,0.0,23.0,74.0,173.0,18.0,0.0
746276,-1.7402509999999998,-1.339405,0.7761560000000001,-0.039822,-0.747854,0.887716,0.0,23.0,74.0,173.0,18.0,0.0
746277,-1.77764,-1.333757,0.736785,0.444329,-0.804725,-0.065484,0.0,23.0,74.0,173.0,18.0,0.0
746278,-1.7798169999999998,-1.354247,0.7643399999999999,1.221598,-0.334829,-0.851606,0.0,23.0,74.0,173.0,18.0,0.0
746279,-1.873559,-1.381074,0.797085,1.191483,0.131545,-0.597214,0.0,23.0,74.0,173.0,18.0,0.0
746280,-1.963537,-1.3935799999999998,0.71662,-0.571659,0.812064,1.547184,0.0,23.0,74.0,173.0,18.0,0.0
746281,-1.7871419999999998,-1.369523,0.798028,-0.600092,0.5810850000000001,-0.684882,0.0,23.0,74.0,173.0,18.0,0.0
746282,-1.78795,-1.354092,0.771239,0.161424,-0.56319,-0.253691,0.0,23.0,74.0,173.0,18.0,0.0
746283,-1.811288,-1.359147,0.74384,-0.06996000000000001,-0.537775,0.05551,0.0,23.0,74.0,173.0,18.0,0.0
746284,-1.759493,-1.375405,0.797554,-0.602021,0.31753600000000004,-0.08848099999999999,0.0,23.0,74.0,173.0,18.0,0.0
746285,-1.65793,-1.3925299999999998,0.882432,-1.002365,0.774926,0.440517,0.0,23.0,74.0,173.0,18.0,0.0
746286,-1.606343,-1.385491,0.915108,-0.907606,0.521469,0.67082,0.0,23.0,74.0,173.0,18.0,0.0
746287,-1.7403369999999998,-1.3612879999999998,0.7918,-0.484868,0.041963,0.750491,0.0,23.0,74.0,173.0,18.0,0.0
746288,-1.961397,-1.318321,0.623354,0.007247,0.024318,0.564176,0.0,23.0,74.0,173.0,18.0,0.0
746289,-2.188035,-1.271874,0.448599,0.378121,-0.043759,0.125604,0.0,23.0,74.0,173.0,18.0,0.0
746290,-2.38793,-1.213735,0.278088,0.67299,-0.215248,-0.225921,0.0,23.0,74.0,173.0,18.0,0.0
746291,-2.505452,-1.153402,0.183804,0.48,-0.193873,-0.7237899999999999,0.0,23.0,74.0,173.0,18.0,0.0
746292,-2.563541,-1.094313,0.154988,0.13255,-0.201388,-0.314085,0.0,23.0,74.0,173.0,18.0,0.0
746293,-2.563828,-1.038084,0.16510899999999998,-0.163924,0.177752,0.218881,0.0,23.0,74.0,173.0,18.0,0.0
746294,-2.5285450000000003,-0.987729,0.185441,-0.311814,0.940506,-0.368736,0.0,23.0,74.0,173.0,18.0,0.0
746295,-2.484845,-0.92641,0.213806,-0.360139,0.773026,-0.654155,0.0,23.0,74.0,173.0,18.0,0.0
746296,-2.453989,-0.8773540000000001,0.245806,-0.182786,0.227211,-0.607639,0.0,23.0,74.0,173.0,18.0,0.0
746297,-2.460078,-0.86193,0.273147,0.011122,-0.05123,-0.486714,0.0,23.0,74.0,173.0,18.0,0.0
746298,-2.463283,-0.8678600000000001,0.30053,0.023865,-0.267693,-0.298156,0.0,23.0,74.0,173.0,18.0,0.0
746299,-2.443969,-0.893338,0.342015,0.182175,-0.373025,0.001363,0.0,23.0,74.0,173.0,18.0,0.0
746300,-2.406405,-0.93209,0.400745,0.12871,-0.413936,0.03828,0.0,23.0,74.0,173.0,18.0,0.0
746301,-2.351176,-0.97623,0.472344,0.072888,-0.45008,-0.023655,0.0,23.0,74.0,173.0,18.0,0.0
746302,-2.293282,-1.027097,0.552733,0.152804,-0.573346,-0.083982,0.0,23.0,74.0,173.0,18.0,0.0
746303,-2.24233,-1.089292,0.630887,0.437325,-0.264122,0.08617000000000001,0.0,23.0,74.0,173.0,18.0,0.0
746304,-2.262094,-1.149237,0.667375,0.355435,0.482507,0.836405,0.0,23.0,74.0,173.0,18.0,0.0
746305,-2.347442,-1.186809,0.6538430000000001,-0.4229189999999999,1.33831,1.213475,0.0,23.0,74.0,173.0,18.0,0.0
746306,-2.411071,-1.1879879999999998,0.6307649999999999,-0.487791,0.61039,0.761857,0.0,23.0,74.0,173.0,18.0,0.0
746307,-2.42581,-1.171721,0.640152,-0.201761,-0.389118,0.415032,0.0,23.0,74.0,173.0,18.0,0.0
746308,-2.407335,-1.168278,0.670265,-0.051578999999999986,-1.039737,0.134694,0.0,23.0,74.0,173.0,18.0,0.0
746309,-2.365784,-1.180902,0.702339,0.074158,-1.309013,-1.044263,0.0,23.0,74.0,173.0,18.0,0.0
746310,-2.285332,-1.204983,0.734502,0.282023,-1.188502,-2.072194,0.0,23.0,74.0,173.0,18.0,0.0
746311,-2.2195080000000003,-1.236734,0.751052,1.101702,-0.228837,-1.632161,0.0,23.0,74.0,173.0,18.0,0.0
746312,-2.274109,-1.269008,0.687493,1.722486,1.666867,-0.263338,0.0,23.0,74.0,173.0,18.0,0.0
746313,-2.6345240000000003,-1.318967,0.549404,1.047808,2.277666,1.229916,0.0,23.0,74.0,173.0,18.0,0.0
746314,-2.673427,-1.354166,0.518508,-1.098214,2.329418,-0.446862,0.0,23.0,74.0,173.0,18.0,0.0
746315,-2.537841,-1.35104,0.610158,-1.081897,0.517259,-0.631891,0.0,23.0,74.0,173.0,18.0,0.0
746316,-2.57259,-1.360615,0.594337,0.12378,0.22818400000000005,-0.391416,0.0,23.0,74.0,173.0,18.0,0.0
746317,-2.600927,-1.381302,0.578543,0.202985,0.084139,-0.528439,0.0,23.0,74.0,173.0,18.0,0.0
746318,-2.552757,-1.41592,0.628577,0.393474,-0.307824,-0.008131000000000001,0.0,23.0,74.0,173.0,18.0,0.0
746319,-2.49739,-1.458143,0.6782060000000001,0.448174,-0.224283,-0.019374,0.0,23.0,74.0,173.0,18.0,0.0
746320,-2.465178,-1.494393,0.701771,0.057455999999999986,0.342273,-0.31800700000000004,0.0,23.0,74.0,173.0,18.0,0.0
746321,-2.372856,-1.521733,0.7795310000000001,-0.252997,0.080412,0.162745,0.0,23.0,74.0,173.0,18.0,0.0
746322,-1.904687,-1.549943,1.21574,-0.116941,-0.296093,0.169329,0.0,23.0,74.0,173.0,18.0,0.0
746323,-0.033334,-1.54923,3.058301,-0.045576,-0.180523,0.095497,0.0,23.0,74.0,173.0,18.0,0.0
746324,0.428677,-1.517818,-2.7823900000000004,-0.25309,-0.098924,0.227911,0.0,23.0,74.0,173.0,18.0,0.0
746325,0.5617810000000001,-1.4814969999999998,-2.663557,-0.49912,-0.065901,0.353504,0.0,23.0,74.0,173.0,18.0,0.0
746326,0.602322,-1.444963,-2.6320360000000003,-0.5602239999999999,0.005618,0.553794,0.0,23.0,74.0,173.0,18.0,0.0
746327,0.601179,-1.418176,-2.645922,-0.453116,-0.129108,0.6331399999999999,0.0,23.0,74.0,173.0,18.0,0.0
746328,0.610316,-1.403857,-2.6360740000000003,-0.32397800000000004,-0.029051,0.432416,0.0,23.0,74.0,173.0,18.0,0.0
746329,0.641907,-1.395651,-2.575093,-0.506718,-0.031866000000000005,0.262554,0.0,23.0,74.0,173.0,18.0,0.0
746330,0.7309060000000001,-1.403565,-2.442873,-0.8315889999999999,0.057286,0.360661,0.0,23.0,74.0,173.0,18.0,0.0
746331,0.89979,-1.428911,-2.247251,-0.8591799999999999,0.292016,0.132633,0.0,23.0,74.0,173.0,18.0,0.0
746332,1.251344,-1.458136,-1.873418,-0.7137439999999999,0.516456,0.094174,0.0,23.0,74.0,173.0,18.0,0.0
746333,1.945279,-1.466607,-1.145642,-0.383918,0.811972,0.058485,0.0,23.0,74.0,173.0,18.0,0.0
746334,2.567661,-1.434835,-0.48573,-0.242445,0.922299,-0.218836,0.0,23.0,74.0,173.0,18.0,0.0
746335,2.93802,-1.387592,-0.0825,0.14837999999999998,0.826412,-0.910903,0.0,23.0,74.0,173.0,18.0,0.0
746336,-3.090779,-1.331464,0.195403,0.129411,0.8308409999999999,-0.931038,0.0,23.0,74.0,173.0,18.0,0.0
746337,-2.8889240000000003,-1.278795,0.414681,-0.31603600000000004,0.579363,-0.939862,0.0,23.0,74.0,173.0,18.0,0.0
746338,-2.715154,-1.233517,0.617398,-0.745934,0.459494,-0.736557,0.0,23.0,74.0,173.0,18.0,0.0
746339,-2.599267,-1.183071,0.788611,-0.752797,0.423121,-0.6435350000000001,0.0,23.0,74.0,173.0,18.0,0.0
746340,-2.56438,-1.136097,0.909569,-0.39879,0.432588,-0.645755,0.0,23.0,74.0,173.0,18.0,0.0
746341,-2.577259,-1.094808,1.00377,-0.112831,0.161834,-0.717888,0.0,23.0,74.0,173.0,18.0,0.0
746342,-2.625741,-1.061135,1.086773,-0.052949,-0.241013,-0.851519,0.0,23.0,74.0,173.0,18.0,0.0
746343,-2.684464,-1.039489,1.164431,-0.081122,-0.30404000000000003,-0.8693110000000001,0.0,23.0,74.0,173.0,18.0,0.0
746344,-2.726071,-1.032851,1.245424,-0.056753,-0.298003,-0.886634,0.0,23.0,74.0,173.0,18.0,0.0
746345,-2.75402,-1.039391,1.3287719999999998,0.026512,-0.085256,-1.109205,0.0,23.0,74.0,173.0,18.0,0.0
746346,-2.771979,-1.053239,1.415329,0.013894,-0.030819,-1.136197,0.0,23.0,74.0,173.0,18.0,0.0
746347,-2.787357,-1.0685440000000002,1.501487,0.014291,0.052607000000000015,-1.135304,0.0,23.0,74.0,173.0,18.0,0.0
746348,-2.798331,-1.080265,1.58636,0.344846,0.102124,-0.827965,0.0,23.0,74.0,173.0,18.0,0.0
746349,-2.801411,-1.089129,1.667272,0.441618,-0.112649,-0.5980409999999999,0.0,23.0,74.0,173.0,18.0,0.0
746350,-2.7918830000000003,-1.098862,1.740703,0.512206,-0.278996,-0.441589,0.0,23.0,74.0,173.0,18.0,0.0
746351,-2.7681310000000003,-1.113543,1.8064,0.498322,-0.339621,-0.3703280000000001,0.0,23.0,74.0,173.0,18.0,0.0
746352,-2.733292,-1.134559,1.863457,0.419369,-0.228949,-0.296597,0.0,23.0,74.0,173.0,18.0,0.0
746353,-2.707291,-1.15858,1.906706,0.273119,0.024042,-0.156934,0.0,23.0,74.0,173.0,18.0,0.0
746354,-2.720273,-1.176509,1.931284,0.05743400000000001,0.296471,0.243758,0.0,23.0,74.0,173.0,18.0,0.0
746355,-2.789546,-1.178189,1.934941,-0.082886,0.39803,0.529691,0.0,23.0,74.0,173.0,18.0,0.0
746356,-2.854127,-1.173968,1.944657,-0.421594,0.459651,0.800614,0.0,23.0,74.0,173.0,18.0,0.0
746357,-2.868878,-1.166104,1.981141,-0.5037050000000001,0.325527,0.470119,0.0,23.0,74.0,173.0,18.0,0.0
746358,-2.8311490000000004,-1.151133,2.041461,-0.522336,0.207211,0.252435,0.0,23.0,74.0,173.0,18.0,0.0
746359,-2.761016,-1.137809,2.103076,-0.34122800000000003,-0.18535,-0.29386,0.0,23.0,74.0,173.0,18.0,0.0
746360,-2.682989,-1.133325,2.168837,-0.341321,-0.341998,-0.158729,0.0,23.0,74.0,173.0,18.0,0.0
746361,-2.606795,-1.140096,2.251002,-0.541223,-0.357846,-0.186543,0.0,23.0,74.0,173.0,18.0,0.0
746362,-2.493046,-1.171977,2.348911,-0.454844,-0.144024,-1.424475,0.0,23.0,74.0,173.0,18.0,0.0
746363,-2.411938,-1.201531,2.416453,-0.307251,0.78985,-0.738338,0.0,23.0,74.0,173.0,18.0,0.0
746364,-2.501935,-1.190527,2.365582,0.331652,1.722436,-0.009841,0.0,23.0,74.0,173.0,18.0,0.0
746365,-2.686689,-1.199947,2.322254,0.907295,0.463595,0.05456,0.0,23.0,74.0,173.0,18.0,0.0
746366,-2.788969,-1.223554,2.366911,0.401861,-0.689094,-1.065064,0.0,23.0,74.0,173.0,18.0,0.0
746367,-2.841326,-1.261542,2.40501,0.211112,-0.561829,-0.398946,0.0,23.0,74.0,173.0,18.0,0.0
746368,-2.809537,-1.312081,2.438691,0.394497,-0.092726,-0.513196,0.0,23.0,74.0,173.0,18.0,0.0
746369,-2.759118,-1.340928,2.457881,0.500046,0.139768,-0.35256,0.0,23.0,74.0,173.0,18.0,0.0
746370,-2.719834,-1.355416,2.498036,0.131221,0.030063,-0.119475,0.0,23.0,74.0,173.0,18.0,0.0
746371,-2.6500060000000003,-1.374108,2.565362,-0.436259,0.120645,0.106405,0.0,23.0,74.0,173.0,18.0,0.0
746372,-2.558039,-1.399126,2.623371,-0.066596,0.115545,-0.262034,0.0,23.0,74.0,173.0,18.0,0.0
746373,-2.521418,-1.423851,2.638982,-0.075626,0.111622,-0.238628,0.0,23.0,74.0,173.0,18.0,0.0
746374,-2.557178,-1.450381,2.607681,-0.123072,-0.025184,-0.233993,0.0,23.0,74.0,173.0,18.0,0.0
746375,-2.622122,-1.475032,2.552237,-0.311344,-0.318096,0.158436,0.0,23.0,74.0,173.0,18.0,0.0
746376,-2.675203,-1.494821,2.494641,-0.32468,-0.319793,0.173644,0.0,23.0,74.0,173.0,18.0,0.0
746377,-2.6832290000000003,-1.50681,2.471575,-0.223919,-0.245436,0.259735,0.0,23.0,74.0,173.0,18.0,0.0
746378,-2.658635,-1.509944,2.480069,-0.208666,0.053273,0.296941,0.0,23.0,74.0,173.0,18.0,0.0
746379,-2.637542,-1.500803,2.495102,-0.188955,0.063331,0.30514,0.0,23.0,74.0,173.0,18.0,0.0
746380,-2.605035,-1.485802,2.528012,-0.166108,-0.0745,0.283437,0.0,23.0,74.0,173.0,18.0,0.0
746381,-2.5955220000000003,-1.467551,2.535688,-0.139882,-0.28833000000000003,0.113251,0.0,23.0,74.0,173.0,18.0,0.0
746382,-2.628768,-1.452028,2.496622,-0.049301,-0.55808,0.015634000000000002,0.0,23.0,74.0,173.0,18.0,0.0
746383,-2.664358,-1.444107,2.448483,-0.028512,-0.54794,-0.108663,0.0,23.0,74.0,173.0,18.0,0.0
746384,-2.720507,-1.441043,2.383228,-0.159224,-0.372377,-0.213149,0.0,23.0,74.0,173.0,18.0,0.0
746385,-2.767751,-1.4399540000000002,2.322658,-0.314566,-0.250592,0.009371,0.0,23.0,74.0,173.0,18.0,0.0
746386,-2.782846,-1.438392,2.28873,-0.5034069999999999,-0.004599,0.186537,0.0,23.0,74.0,173.0,18.0,0.0
746387,-2.80092,-1.4405709999999998,2.268012,-0.470147,-0.01909,-0.06930900000000001,0.0,23.0,74.0,173.0,18.0,0.0
746388,-2.836784,-1.434187,2.242011,-0.428032,-0.201957,0.214666,0.0,23.0,74.0,173.0,18.0,0.0
746389,-2.878903,-1.409424,2.215047,-0.374582,-0.154778,0.738089,0.0,23.0,74.0,173.0,18.0,0.0
746390,-2.9496740000000004,-1.364778,2.183883,0.24425,0.113005,0.338239,0.0,23.0,74.0,173.0,18.0,0.0
746391,-3.017725,-1.294608,2.161922,0.404983,0.344752,0.12538,0.0,23.0,74.0,173.0,18.0,0.0
746392,-3.051313,-1.214333,2.156901,0.092848,0.38078,-0.393806,0.0,23.0,74.0,173.0,18.0,0.0
746393,-3.0263150000000003,-1.137257,2.193573,-0.374121,0.261751,-0.516464,0.0,23.0,74.0,173.0,18.0,0.0
746394,-2.94005,-1.061577,2.266425,-0.575188,0.26981900000000003,-0.443097,0.0,23.0,74.0,173.0,18.0,0.0
746395,-2.840316,-0.987373,2.330963,-0.539244,1.103407,-0.1542,0.0,23.0,74.0,173.0,18.0,0.0
746396,-2.727863,-0.926413,2.422503,-0.7326060000000001,1.606078,-0.127309,0.0,23.0,74.0,173.0,18.0,0.0
746397,-2.652335,-0.864287,2.505052,-0.8683649999999999,1.38898,-0.176538,0.0,23.0,74.0,173.0,18.0,0.0
746398,-2.624093,-0.819262,2.555022,0.130431,0.198496,-0.576651,0.0,23.0,74.0,173.0,18.0,0.0
746399,-2.62277,-0.796447,2.5767740000000003,0.5415989999999999,-0.261827,-0.565713,0.0,23.0,74.0,173.0,18.0,0.0
746400,-2.6298790000000003,-0.7939430000000001,2.592087,0.5313439999999999,-0.574771,-0.528355,0.0,23.0,74.0,173.0,18.0,0.0
746401,-2.640334,-0.806247,2.615601,0.270373,-0.710525,-0.503386,0.0,23.0,74.0,173.0,18.0,0.0
746402,-2.647421,-0.8373149999999999,2.644649,0.176215,-0.813207,-0.467403,0.0,23.0,74.0,173.0,18.0,0.0
746403,-2.642758,-0.888777,2.675734,0.276741,-0.952906,-0.300327,0.0,23.0,74.0,173.0,18.0,0.0
746404,-2.609458,-0.959535,2.7073970000000003,0.4522850000000001,-1.11937,-0.16462000000000002,0.0,23.0,74.0,173.0,18.0,0.0
746405,-2.557418,-1.052599,2.7284080000000004,0.5927060000000001,-1.087158,-0.298933,0.0,23.0,74.0,173.0,18.0,0.0
746406,-2.521269,-1.157624,2.73301,0.603167,-1.000645,-0.283772,0.0,23.0,74.0,173.0,18.0,0.0
746407,-2.5356490000000003,-1.2564959999999998,2.71053,0.236071,0.614691,-0.893424,0.0,23.0,74.0,173.0,18.0,0.0
746408,-2.695103,-1.33136,2.606669,-0.063902,2.144861,-0.362924,0.0,23.0,74.0,173.0,18.0,0.0
746409,-2.8462080000000003,-1.368703,2.554296,-0.320002,1.914394,0.230504,0.0,23.0,74.0,173.0,18.0,0.0
746410,-2.806046,-1.371845,2.644399,-0.508894,-0.39365,1.374751,0.0,23.0,74.0,173.0,18.0,0.0
746411,-2.6921060000000003,-1.344374,2.733625,0.152612,-0.948429,-0.681167,0.0,23.0,74.0,173.0,18.0,0.0
746412,-2.637852,-1.357533,2.797989,0.782524,-1.113805,-1.271877,0.0,23.0,74.0,173.0,18.0,0.0
746413,-2.647186,-1.373983,2.820511,0.605224,-0.451962,0.8210959999999999,0.0,23.0,74.0,173.0,18.0,0.0
746414,-2.734,-1.376826,2.729149,-0.372154,1.713425,0.409765,0.0,23.0,74.0,173.0,18.0,0.0
746415,-2.687886,-1.393366,2.74684,-0.6680010000000001,2.4165330000000003,-1.4725629999999998,0.0,23.0,74.0,173.0,18.0,0.0
746416,-2.555302,-1.390246,2.880048,-1.0656709999999998,0.034444,0.564315,0.0,23.0,74.0,173.0,18.0,0.0
746417,-2.512761,-1.369693,2.932293,-0.8460989999999999,0.22402600000000006,-0.092251,0.0,23.0,74.0,173.0,18.0,0.0
746418,-2.522421,-1.357747,2.932569,-0.261687,0.222072,-0.167962,0.0,23.0,74.0,173.0,18.0,0.0
746419,-2.574018,-1.337853,2.900578,-0.260256,0.005386999999999999,0.656289,0.0,23.0,74.0,173.0,18.0,0.0
746420,-2.569323,-1.324501,2.911555,0.010086,-0.0322,-0.029323,0.0,23.0,74.0,173.0,18.0,0.0
746421,-2.563419,-1.3010700000000002,2.905513,0.059304,-0.128746,0.411854,0.0,23.0,74.0,173.0,18.0,0.0
746422,-2.572647,-1.270409,2.878095,-0.005843,-0.105536,0.328434,0.0,23.0,74.0,173.0,18.0,0.0
746423,-2.5865080000000003,-1.220289,2.840922,-0.016608,0.045848,0.213721,0.0,23.0,74.0,173.0,18.0,0.0
746424,-2.603686,-1.149083,2.807169,0.236004,0.265788,-0.211003,0.0,23.0,74.0,173.0,18.0,0.0
746425,-2.61419,-1.071433,2.784187,0.231793,0.085507,-0.329218,0.0,23.0,74.0,173.0,18.0,0.0
746426,-2.61442,-1.003637,2.778506,0.243287,-0.129899,-0.7331439999999999,0.0,23.0,74.0,173.0,18.0,0.0
746427,-2.605296,-0.943763,2.786798,0.258037,-0.211948,-0.715704,0.0,23.0,74.0,173.0,18.0,0.0
746428,-2.597641,-0.9006790000000001,2.791975,0.035715,0.22118,-0.348028,0.0,23.0,74.0,173.0,18.0,0.0
746429,-2.593134,-0.869985,2.790855,-0.338818,0.309243,-0.399533,0.0,23.0,74.0,173.0,18.0,0.0
746430,-2.576678,-0.850369,2.793801,-0.217936,0.308398,-0.338247,0.0,23.0,74.0,173.0,18.0,0.0
746431,-2.554021,-0.855714,2.795843,0.107367,0.037288,-0.368102,0.0,23.0,74.0,173.0,18.0,0.0
746432,-2.536124,-0.889684,2.79889,0.060898,-0.179201,-0.275402,0.0,23.0,74.0,173.0,18.0,0.0
746433,-2.5257650000000003,-0.949478,2.801696,0.157351,-0.302004,-0.011091,0.0,23.0,74.0,173.0,18.0,0.0
746434,-2.519125,-1.025864,2.812555,0.298319,-0.443022,0.151937,0.0,23.0,74.0,173.0,18.0,0.0
746435,-2.524104,-1.107119,2.820385,0.15146500000000002,-0.583806,0.040104,0.0,23.0,74.0,173.0,18.0,0.0
746436,-2.523735,-1.187497,2.814028,-0.03389,-0.4508430000000001,-0.095719,0.0,23.0,74.0,173.0,18.0,0.0
746437,-2.519701,-1.259169,2.794307,-0.231885,-0.066597,-0.274915,0.0,23.0,74.0,173.0,18.0,0.0
746438,-2.499009,-1.3149540000000002,2.79957,-0.372748,0.978534,0.051501,0.0,23.0,74.0,173.0,18.0,0.0
746439,-2.387983,-1.355903,2.916237,-0.190249,0.613913,0.364014,0.0,23.0,74.0,173.0,18.0,0.0
746440,-2.251923,-1.3703809999999998,3.0876,-0.0373,0.103192,0.6004470000000001,0.0,23.0,74.0,173.0,18.0,0.0
746441,-2.215249,-1.362026,3.141096,0.07520299999999999,-0.812515,-0.037323,0.0,23.0,74.0,173.0,18.0,0.0
746442,-2.202037,-1.370415,-3.11889,0.395092,-0.964411,-0.769076,0.0,23.0,74.0,173.0,18.0,0.0
746443,-2.208856,-1.401076,-3.04603,0.703958,-1.0127469999999998,-1.149756,0.0,23.0,74.0,173.0,18.0,0.0
746444,-2.3673580000000003,-1.417314,-3.091912,-0.8566879999999999,0.212286,1.623516,0.0,23.0,74.0,173.0,18.0,0.0
746445,-2.344357,-1.420681,-3.086521,-1.251572,1.410508,0.475511,0.0,23.0,74.0,173.0,18.0,0.0
746446,-2.0962110000000003,-1.414032,-2.901665,-0.34162,1.5982459999999998,-0.307311,0.0,23.0,74.0,173.0,18.0,0.0
746447,-2.082542,-1.401293,-2.89615,0.058916,0.505252,1.250949,0.0,23.0,74.0,173.0,18.0,0.0
746448,-2.085686,-1.394839,-2.919405,-0.019611,0.812133,-0.434682,0.0,23.0,74.0,173.0,18.0,0.0
746449,-2.164422,-1.379294,-3.006088,-0.129414,0.098542,-0.634894,0.0,23.0,74.0,173.0,18.0,0.0
746450,-2.237089,-1.37172,-3.09579,-0.106864,-0.5755100000000001,0.328268,0.0,23.0,74.0,173.0,18.0,0.0
746451,-2.308624,-1.362067,3.102523,-0.060877,-0.368386,0.263502,0.0,23.0,74.0,173.0,18.0,0.0
746452,-2.387319,-1.340424,3.011256,-0.21411,-0.053019,0.33212800000000003,0.0,23.0,74.0,173.0,18.0,0.0
746453,-2.475636,-1.29898,2.90842,-0.264243,0.407504,0.3667510000000001,0.0,23.0,74.0,173.0,18.0,0.0
746454,-2.543989,-1.237133,2.823355,-0.059331,0.312857,0.03324,0.0,23.0,74.0,173.0,18.0,0.0
746455,-2.594286,-1.160602,2.776768,0.295919,0.003168,-0.445059,0.0,23.0,74.0,173.0,18.0,0.0
746456,-2.613281,-1.082385,2.774227,0.188139,-0.078651,-0.856483,0.0,23.0,74.0,173.0,18.0,0.0
746457,-2.61832,-1.012675,2.789256,0.187606,-0.138214,-0.794849,0.0,23.0,74.0,173.0,18.0,0.0
746458,-2.59373,-0.956519,2.795871,0.079338,-0.303762,-0.249121,0.0,23.0,74.0,173.0,18.0,0.0
746459,-2.564749,-0.909674,2.794801,0.011715,-0.007336,-0.5380119999999999,0.0,23.0,74.0,173.0,18.0,0.0
746460,-2.538326,-0.872125,2.802309,-0.033115,0.049213,-0.577259,0.0,23.0,74.0,173.0,18.0,0.0
746461,-2.543063,-0.8815959999999999,2.812721,-0.099377,0.101109,-0.390945,0.0,23.0,74.0,173.0,18.0,0.0
746462,-2.552148,-0.914294,2.822037,0.056060000000000006,-0.39313,-0.434675,0.0,23.0,74.0,173.0,18.0,0.0
746463,-2.557055,-0.964565,2.834687,0.040697,-0.495385,-0.389358,0.0,23.0,74.0,173.0,18.0,0.0
746464,-2.560981,-1.034591,2.844198,0.189597,-0.430103,-0.231099,0.0,23.0,74.0,173.0,18.0,0.0
746465,-2.5703720000000003,-1.12329,2.846589,0.276816,-0.352396,-0.189171,0.0,23.0,74.0,173.0,18.0,0.0
746466,-2.60073,-1.217893,2.831207,0.23523400000000005,-0.305881,-0.040309,0.0,23.0,74.0,173.0,18.0,0.0
746467,-2.656719,-1.302019,2.785308,-0.008002,0.454986,0.121227,0.0,23.0,74.0,173.0,18.0,0.0
746468,-2.693509,-1.365005,2.745895,-0.185519,0.54115,0.188679,0.0,23.0,74.0,173.0,18.0,0.0
746469,-2.658542,-1.407497,2.785227,-0.287646,0.214521,0.39628,0.0,23.0,74.0,173.0,18.0,0.0
746470,-2.565024,-1.401351,2.881841,-0.665667,-0.016669,0.84172,0.0,23.0,74.0,173.0,18.0,0.0
746471,-2.48936,-1.388399,2.994939,-0.087949,-0.268293,-0.8525590000000001,0.0,23.0,74.0,173.0,18.0,0.0
746472,-2.484906,-1.399171,3.07198,0.081527,-0.288928,-1.163752,0.0,23.0,74.0,173.0,18.0,0.0
746473,-2.565265,-1.394552,3.05227,-0.084643,0.952274,0.95542,0.0,23.0,74.0,173.0,18.0,0.0
746474,-2.49412,-1.385753,3.0958330000000003,-0.163529,0.973126,-0.202873,0.0,23.0,74.0,173.0,18.0,0.0
746475,-2.416054,-1.377373,-3.135958,0.434369,0.17013699999999998,-0.01803,0.0,23.0,74.0,173.0,18.0,0.0
746476,-2.369952,-1.378942,-3.110029,0.047971,-0.247461,-0.295471,0.0,23.0,74.0,173.0,18.0,0.0
746477,-2.321753,-1.388802,-3.086939,-0.527036,-0.136576,0.180259,0.0,23.0,74.0,173.0,18.0,0.0
746478,-2.286927,-1.394476,-3.070825,-1.140249,0.30551300000000003,0.34365100000000004,0.0,23.0,74.0,173.0,18.0,0.0
746479,-2.290143,-1.3693879999999998,-3.083851,-1.100019,0.312328,0.35322,0.0,23.0,74.0,173.0,18.0,0.0
746480,-2.399074,-1.31868,3.1103400000000003,-0.116626,0.199689,0.34653,0.0,23.0,74.0,173.0,18.0,0.0
746481,-2.532649,-1.25298,3.015899,0.245854,0.100815,0.364237,0.0,23.0,74.0,173.0,18.0,0.0
746482,-2.634205,-1.182518,2.938193,0.8856639999999999,-0.191279,-0.452496,0.0,23.0,74.0,173.0,18.0,0.0
746483,-2.694505,-1.115743,2.8874470000000003,0.671525,-0.314803,-0.477991,0.0,23.0,74.0,173.0,18.0,0.0
746484,-2.689176,-1.059945,2.881359,0.540021,-0.365218,-0.499058,0.0,23.0,74.0,173.0,18.0,0.0
746485,-2.64397,-1.014585,2.890932,0.12078,-0.385303,-0.275158,0.0,23.0,74.0,173.0,18.0,0.0
746486,-2.590493,-0.975067,2.897484,-0.159023,0.22556,-0.456296,0.0,23.0,74.0,173.0,18.0,0.0
746487,-2.545498,-0.940034,2.90226,-0.30658,0.7930229999999999,-0.487117,0.0,23.0,74.0,173.0,18.0,0.0
746488,-2.5011810000000003,-0.931696,2.918103,-0.4694890000000001,0.711787,-0.344326,0.0,23.0,74.0,173.0,18.0,0.0
746489,-2.48091,-0.944511,2.931762,-0.100243,0.16802999999999998,-0.5337529999999999,0.0,23.0,74.0,173.0,18.0,0.0
746490,-2.490302,-0.975031,2.9352400000000003,0.055428,-0.309515,-0.46233,0.0,23.0,74.0,173.0,18.0,0.0
746491,-2.508995,-1.022098,2.938055,0.083143,-0.546762,-0.220865,0.0,23.0,74.0,173.0,18.0,0.0
746492,-2.523899,-1.086218,2.943268,0.162919,-0.673415,0.003422,0.0,23.0,74.0,173.0,18.0,0.0
746493,-2.531095,-1.168249,2.946662,0.206553,-0.696113,0.06715700000000001,0.0,23.0,74.0,173.0,18.0,0.0
746494,-2.538781,-1.252953,2.9243650000000003,0.212937,-0.648642,0.163677,0.0,23.0,74.0,173.0,18.0,0.0
746495,-2.556277,-1.323842,2.899298,-0.148611,-0.023784,0.303076,0.0,23.0,74.0,173.0,18.0,0.0
746496,-2.514563,-1.364167,2.944766,-0.336776,0.213975,0.476046,0.0,23.0,74.0,173.0,18.0,0.0
746497,-2.42696,-1.339854,3.029334,-0.754308,0.431395,0.877034,0.0,23.0,74.0,173.0,18.0,0.0
746498,-2.365698,-1.343616,-3.141441,0.23737800000000006,0.163436,-0.7858609999999999,0.0,23.0,74.0,173.0,18.0,0.0
746499,-2.454051,-1.341972,3.138169,-0.080225,1.093449,1.167902,0.0,23.0,74.0,173.0,18.0,0.0
746500,-2.479016,-1.330099,3.111812,-0.514356,1.0680889999999998,0.784852,0.0,23.0,74.0,173.0,18.0,0.0
746501,-2.423874,-1.320912,3.119595,0.401161,-0.09063,0.336388,0.0,23.0,74.0,173.0,18.0,0.0
746502,-2.423793,-1.3133549999999998,3.108412,0.45299999999999996,-0.079166,0.523883,0.0,23.0,74.0,173.0,18.0,0.0
746503,-2.387055,-1.3013709999999998,3.117977,-0.341805,0.131657,0.415746,0.0,23.0,74.0,173.0,18.0,0.0
746504,-2.37895,-1.290151,3.098576,-0.93776,0.396026,0.186447,0.0,23.0,74.0,173.0,18.0,0.0
746505,-2.405472,-1.272576,3.038142,-1.03269,0.317805,0.176727,0.0,23.0,74.0,173.0,18.0,0.0
746506,-2.46458,-1.2340870000000002,2.959818,-0.206966,0.027528,0.001318,0.0,23.0,74.0,173.0,18.0,0.0
746507,-2.549243,-1.169169,2.883157,0.299491,-0.029206,-0.288901,0.0,23.0,74.0,173.0,18.0,0.0
746508,-2.62054,-1.093397,2.836188,0.499107,-0.238657,-0.650725,0.0,23.0,74.0,173.0,18.0,0.0
746509,-2.661762,-1.026828,2.816892,0.550708,-0.662683,-0.442781,0.0,23.0,74.0,173.0,18.0,0.0
746510,-2.6522,-0.972632,2.82011,0.556331,-0.80481,-0.286042,0.0,23.0,74.0,173.0,18.0,0.0
746511,-2.609302,-0.932863,2.8245240000000003,0.535714,-0.744735,-0.276447,0.0,23.0,74.0,173.0,18.0,0.0
746512,-2.566342,-0.909414,2.834311,-0.422862,0.295558,-0.524511,0.0,23.0,74.0,173.0,18.0,0.0
746513,-2.534097,-0.908745,2.8428880000000003,-0.633262,0.50271,-0.498888,0.0,23.0,74.0,173.0,18.0,0.0
746514,-2.510167,-0.926004,2.85346,-0.6840930000000001,0.5490109999999999,-0.4916,0.0,23.0,74.0,173.0,18.0,0.0
746515,-2.494872,-0.963899,2.865852,0.066591,-0.233607,-0.24536,0.0,23.0,74.0,173.0,18.0,0.0
746516,-2.498496,-1.023265,2.876848,0.112183,-0.292441,-0.121319,0.0,23.0,74.0,173.0,18.0,0.0
746517,-2.529694,-1.099757,2.875224,0.133682,-0.307967,-0.003461,0.0,23.0,74.0,173.0,18.0,0.0
746518,-2.57655,-1.187492,2.881527,0.070278,-0.143819,0.576554,0.0,23.0,74.0,173.0,18.0,0.0
746519,-2.594074,-1.26292,2.887304,-0.218531,0.092415,0.4654140000000001,0.0,23.0,74.0,173.0,18.0,0.0
746520,-2.556521,-1.314481,2.894141,-0.308845,0.20343,0.25775,0.0,23.0,74.0,173.0,18.0,0.0
746521,-2.471598,-1.345756,2.9668490000000003,-0.074474,-0.16614600000000002,-0.067592,0.0,23.0,74.0,173.0,18.0,0.0
746522,-2.413281,-1.350459,3.040675,-0.072024,-0.356256,0.304373,0.0,23.0,74.0,173.0,18.0,0.0
746523,-2.42654,-1.35745,3.060554,0.408812,-0.47684,-0.324512,0.0,23.0,74.0,173.0,18.0,0.0
746524,-2.512221,-1.38073,3.046056,0.5070819999999999,-0.33068600000000004,-0.401291,0.0,23.0,74.0,173.0,18.0,0.0
746525,-2.652005,-1.395034,2.9474240000000003,-0.646134,1.670802,0.403925,0.0,23.0,74.0,173.0,18.0,0.0
746526,-2.575729,-1.393587,2.989845,-0.699416,1.579732,0.138899,0.0,23.0,74.0,173.0,18.0,0.0
746527,-2.452934,-1.382393,3.078378,-0.12913,0.047419,-0.214156,0.0,23.0,74.0,173.0,18.0,0.0
746528,-2.374259,-1.3746969999999998,3.127542,-0.312168,-0.418151,0.017274,0.0,23.0,74.0,173.0,18.0,0.0
746529,-2.328907,-1.377412,-3.128223,-0.402335,-0.328085,-0.007775,0.0,23.0,74.0,173.0,18.0,0.0
746530,-2.3322700000000003,-1.386481,-3.140499,-0.992893,0.324616,0.181146,0.0,23.0,74.0,173.0,18.0,0.0
746531,-2.388109,-1.375689,3.084493,-0.987321,0.476401,0.470958,0.0,23.0,74.0,173.0,18.0,0.0
746532,-2.441966,-1.323677,3.041197,-0.962452,0.487807,0.425203,0.0,23.0,74.0,173.0,18.0,0.0
746533,-2.544866,-1.238465,2.98197,0.28925700000000004,0.390638,0.239793,0.0,23.0,74.0,173.0,18.0,0.0
746534,-2.6226580000000004,-1.147301,2.931997,0.68155,0.122537,-0.33197600000000005,0.0,23.0,74.0,173.0,18.0,0.0
746535,-2.679493,-1.070227,2.891301,0.6750390000000001,-0.067739,-0.876611,0.0,23.0,74.0,173.0,18.0,0.0
746536,-2.676369,-1.006089,2.877962,0.525642,-0.639316,-0.228734,0.0,23.0,74.0,173.0,18.0,0.0
746537,-2.629495,-0.955659,2.881295,0.142281,-0.67938,-0.405296,0.0,23.0,74.0,173.0,18.0,0.0
746538,-2.574196,-0.917533,2.895836,0.014923,-0.332175,-0.417664,0.0,23.0,74.0,173.0,18.0,0.0
746539,-2.535441,-0.9028,2.913973,-0.276616,0.7237399999999999,-0.415451,0.0,23.0,74.0,173.0,18.0,0.0
746540,-2.525975,-0.910938,2.933426,-0.170625,0.7320770000000001,-0.573725,0.0,23.0,74.0,173.0,18.0,0.0
746541,-2.536391,-0.934953,2.945576,-0.040755,0.389017,-0.681876,0.0,23.0,74.0,173.0,18.0,0.0
746542,-2.563575,-0.973426,2.951001,-0.056364,-0.269597,-0.447337,0.0,23.0,74.0,173.0,18.0,0.0
746543,-2.611394,-1.030932,2.949342,0.079324,-0.409658,-0.269452,0.0,23.0,74.0,173.0,18.0,0.0
746544,-2.668567,-1.1066200000000002,2.941882,0.186425,-0.582164,-0.098509,0.0,23.0,74.0,173.0,18.0,0.0
746545,-2.7364900000000003,-1.196413,2.926588,0.216133,-0.684213,0.22635500000000006,0.0,23.0,74.0,173.0,18.0,0.0
746546,-2.793714,-1.293272,2.9124,0.152176,-0.705404,0.39246,0.0,23.0,74.0,173.0,18.0,0.0
746547,-2.798948,-1.382256,2.915633,-0.007859999999999999,-0.410181,0.333175,0.0,23.0,74.0,173.0,18.0,0.0
746548,-2.766188,-1.44147,2.938024,-0.355302,0.220021,-0.001501,0.0,23.0,74.0,173.0,18.0,0.0
746549,-2.681735,-1.461698,3.023398,-0.420487,-0.097616,0.124612,0.0,23.0,74.0,173.0,18.0,0.0
746550,-2.593617,-1.470662,3.114748,-0.146835,-0.239543,0.08697200000000001,0.0,23.0,74.0,173.0,18.0,0.0
746551,-2.483103,-1.4991219999999998,-3.026834,0.697691,0.308033,-0.031021,0.0,23.0,74.0,173.0,18.0,0.0
746552,-2.5520150000000004,-1.52803,-2.996502,0.52104,1.366622,0.7229180000000001,0.0,23.0,74.0,173.0,18.0,0.0
746553,-2.7856490000000003,-1.539201,3.061946,-0.294289,1.500453,0.5427310000000001,0.0,23.0,74.0,173.0,18.0,0.0
746554,-2.155285,-1.534931,-2.6535330000000004,-0.868333,0.438692,0.42423,0.0,23.0,74.0,173.0,18.0,0.0
746555,-2.311881,-1.520158,-2.830235,-0.142988,-0.071167,0.119517,0.0,23.0,74.0,173.0,18.0,0.0
746556,-2.523093,-1.504349,-3.03548,-0.671127,-0.016562,0.657419,0.0,23.0,74.0,173.0,18.0,0.0
746557,-2.65638,-1.483249,3.110071,-0.799766,0.146973,0.307422,0.0,23.0,74.0,173.0,18.0,0.0
746558,-2.78419,-1.449137,2.977952,-0.7569819999999999,0.114111,0.7729520000000001,0.0,23.0,74.0,173.0,18.0,0.0
746559,-2.809024,-1.386411,2.956278,-0.34015300000000004,0.15164,0.568647,0.0,23.0,74.0,173.0,18.0,0.0
746560,-2.809378,-1.303028,2.978282,0.363206,0.072318,-0.153846,0.0,23.0,74.0,173.0,18.0,0.0
746561,-2.806252,-1.210057,3.01187,0.381676,-0.190855,-0.613472,0.0,23.0,74.0,173.0,18.0,0.0
746562,-2.807828,-1.12408,3.054175,0.334397,-0.253112,-0.986322,0.0,23.0,74.0,173.0,18.0,0.0
746563,-2.790825,-1.04734,3.09633,0.070311,-0.47213,0.031279,0.0,23.0,74.0,173.0,18.0,0.0
746564,-2.7219450000000003,-0.978044,3.130647,-0.431138,0.048417,0.118595,0.0,23.0,74.0,173.0,18.0,0.0
746565,-2.675602,-0.909108,-3.120605,-0.628616,0.638549,-0.262817,0.0,23.0,74.0,173.0,18.0,0.0
746566,-2.6164110000000003,-0.824422,-3.090376,-0.435244,0.8966729999999999,-0.529875,0.0,23.0,74.0,173.0,18.0,0.0
746567,-2.590965,-0.794615,-3.062669,-0.364485,0.526717,-0.020278,0.0,23.0,74.0,173.0,18.0,0.0
746568,-2.599942,-0.813976,-3.0427720000000003,-0.031437,0.315885,-0.053632000000000006,0.0,23.0,74.0,173.0,18.0,0.0
746569,-2.60578,-0.838258,-3.026989,0.317106,-0.5440010000000001,-0.344902,0.0,23.0,74.0,173.0,18.0,0.0
746570,-2.621042,-0.8771260000000001,-3.010987,0.413497,-0.6208640000000001,-0.216527,0.0,23.0,74.0,173.0,18.0,0.0
746571,-2.619262,-0.935719,-2.989218,0.391473,-0.656985,-0.17598699999999998,0.0,23.0,74.0,173.0,18.0,0.0
746572,-2.584016,-1.010952,-2.943813,0.24398000000000006,-1.051088,-0.365431,0.0,23.0,74.0,173.0,18.0,0.0
746573,-2.515639,-1.101471,-2.872356,-0.121403,-1.194333,-0.228625,0.0,23.0,74.0,173.0,18.0,0.0
746574,-2.4221790000000003,-1.203583,-2.798885,-0.259187,-1.118314,-0.108733,0.0,23.0,74.0,173.0,18.0,0.0
746575,-2.415385,-1.30604,-2.803703,-0.337255,-0.828636,0.071559,0.0,23.0,74.0,173.0,18.0,0.0
746576,-2.655595,-1.377806,-2.982529,-0.789107,2.622584,0.73532,0.0,23.0,74.0,173.0,18.0,0.0
746577,-2.709429,-1.3851790000000002,-2.976113,-0.769458,3.123348,0.365556,0.0,23.0,74.0,173.0,18.0,0.0
746578,-2.630645,-1.3522379999999998,-2.859934,-0.358893,-0.097808,0.31663800000000003,0.0,23.0,74.0,173.0,18.0,0.0
746579,-2.580922,-1.306849,-2.794676,0.07684099999999999,-1.190969,0.4113890000000001,0.0,23.0,74.0,173.0,18.0,0.0
746580,-2.482492,-1.293136,-2.769525,0.105975,-1.187301,0.415646,0.0,23.0,74.0,173.0,18.0,0.0
746581,-2.408074,-1.298967,-2.774307,1.5161790000000002,-0.283395,-1.918346,0.0,23.0,74.0,173.0,18.0,0.0
746582,-2.56248,-1.307685,-2.89858,2.017828,0.961615,-1.60075,0.0,23.0,74.0,173.0,18.0,0.0
746583,-2.747604,-1.312875,-3.000064,0.701889,1.798169,1.009207,0.0,23.0,74.0,173.0,18.0,0.0
746584,-2.711696,-1.320169,-3.011667,-1.14697,1.877251,-0.2821,0.0,23.0,74.0,173.0,18.0,0.0
746585,-2.7423490000000004,-1.309269,-3.034716,-0.953555,0.263389,-0.954668,0.0,23.0,74.0,173.0,18.0,0.0
746586,-2.804208,-1.317706,-3.110947,-0.344375,-0.322223,-0.386854,0.0,23.0,74.0,173.0,18.0,0.0
746587,-2.84195,-1.357536,3.117923,0.153508,-0.120016,-0.16361199999999998,0.0,23.0,74.0,173.0,18.0,0.0
746588,-2.941695,-1.4013,3.024439,-0.135633,0.429003,-0.13781500000000002,0.0,23.0,74.0,173.0,18.0,0.0
746589,-3.081275,-1.433991,2.899446,-0.160907,0.424016,-0.108619,0.0,23.0,74.0,173.0,18.0,0.0
746590,3.061874,-1.461523,2.7599240000000003,-0.7044239999999999,0.037977,-0.077062,0.0,23.0,74.0,173.0,18.0,0.0
746591,2.843403,-1.487272,2.532233,-0.267491,-0.233803,0.02554,0.0,23.0,74.0,173.0,18.0,0.0
746592,2.382536,-1.5112709999999998,2.065356,-0.11504,-0.275527,0.097572,0.0,23.0,74.0,173.0,18.0,0.0
746593,1.662421,-1.506066,1.353794,0.08101900000000001,-0.318539,0.32094,0.0,23.0,74.0,173.0,18.0,0.0
746594,1.26004,-1.4724270000000002,0.964696,-0.153473,-0.20975,0.394365,0.0,23.0,74.0,173.0,18.0,0.0
746595,1.09245,-1.436098,0.7988390000000001,-0.435319,0.075235,0.435091,0.0,23.0,74.0,173.0,18.0,0.0
746596,1.0190709999999998,-1.406293,0.712777,-0.548705,0.229626,0.555457,0.0,23.0,74.0,173.0,18.0,0.0
746597,1.00135,-1.387902,0.673651,-0.70411,0.145982,0.672112,0.0,23.0,74.0,173.0,18.0,0.0
746598,1.041529,-1.384915,0.694418,-0.801281,0.103744,0.663091,0.0,23.0,74.0,173.0,18.0,0.0
746599,1.12716,-1.393151,0.7830199999999999,-0.815963,0.151129,0.630415,0.0,23.0,74.0,173.0,18.0,0.0
746600,1.265766,-1.400133,0.942565,-0.737558,0.118562,0.281047,0.0,23.0,74.0,173.0,18.0,0.0
746601,1.436279,-1.407958,1.158513,-0.748209,0.15251099999999998,-0.001634,0.0,23.0,74.0,173.0,18.0,0.0
746602,1.7532330000000005,-1.4224139999999998,1.536999,-0.868072,0.645663,-0.08176900000000001,0.0,23.0,74.0,173.0,18.0,0.0
746603,2.157347,-1.419644,2.00949,-0.433804,0.514225,-0.555176,0.0,23.0,74.0,173.0,18.0,0.0
746604,2.509974,-1.404564,2.438894,-0.131148,0.7573300000000001,-0.958724,0.0,23.0,74.0,173.0,18.0,0.0
746605,2.823271,-1.384551,2.799939,-0.056412,0.844274,-0.952769,0.0,23.0,74.0,173.0,18.0,0.0
746606,3.099491,-1.363657,3.091758,-0.265416,0.4343260000000001,-0.560247,0.0,23.0,74.0,173.0,18.0,0.0
746607,-2.940041,-1.340652,-2.912942,-0.343875,0.345214,-0.377263,0.0,23.0,74.0,173.0,18.0,0.0
746608,-2.762564,-1.3058,-2.679945,-0.258147,0.31167,-0.272552,0.0,23.0,74.0,173.0,18.0,0.0
746609,-2.65982,-1.264308,-2.509606,-0.202883,0.201096,-0.5172640000000001,0.0,23.0,74.0,173.0,18.0,0.0
746610,-2.629465,-1.229361,-2.389997,-0.176432,0.102525,-0.593151,0.0,23.0,74.0,173.0,18.0,0.0
746611,-2.627595,-1.203973,-2.293647,-0.07825800000000001,-0.147171,-0.7434149999999999,0.0,23.0,74.0,173.0,18.0,0.0
746612,-2.634368,-1.183848,-2.210868,-0.017439,-0.17313499999999998,-0.647312,0.0,23.0,74.0,173.0,18.0,0.0
746613,-2.6341240000000004,-1.17203,-2.130558,0.043932,-0.15381,-0.677347,0.0,23.0,74.0,173.0,18.0,0.0
746614,-2.635321,-1.170757,-2.05715,0.408108,-0.156763,-0.790994,0.0,23.0,74.0,173.0,18.0,0.0
746615,-2.642114,-1.1783370000000002,-1.993667,0.550268,-0.356634,-0.6987140000000001,0.0,23.0,74.0,173.0,18.0,0.0
746616,-2.648171,-1.192704,-1.929022,0.5246970000000001,-0.44025,-0.641842,0.0,23.0,74.0,173.0,18.0,0.0
746617,-2.643599,-1.215543,-1.851814,0.4282760000000001,-0.58801,-0.523111,0.0,23.0,74.0,173.0,18.0,0.0
746618,-2.622457,-1.250861,-1.767814,0.360946,-0.563346,-0.356687,0.0,23.0,74.0,173.0,18.0,0.0
746619,-2.594225,-1.298575,-1.6840080000000002,0.344842,-0.577266,-0.313207,0.0,23.0,74.0,173.0,18.0,0.0
746620,-2.57252,-1.355139,-1.6056290000000002,0.173215,0.026033,-0.049207,0.0,23.0,74.0,173.0,18.0,0.0
746621,-2.693542,-1.380394,-1.650993,-0.482482,2.054647,1.803899,0.0,23.0,74.0,173.0,18.0,0.0
746622,-2.80011,-1.339554,-1.679531,-0.487717,2.063193,1.758518,0.0,23.0,74.0,173.0,18.0,0.0
746623,-2.809394,-1.305971,-1.619157,-0.437346,-0.075398,0.7072510000000001,0.0,23.0,74.0,173.0,18.0,0.0
746624,-2.750644,-1.312781,-1.513806,-0.483974,-1.217814,-1.846032,0.0,23.0,74.0,173.0,18.0,0.0
746625,-2.623895,-1.343077,-1.394204,-0.469485,-1.225099,-1.806296,0.0,23.0,74.0,173.0,18.0,0.0
746626,-2.474709,-1.379621,-1.265105,-0.088143,-0.090928,-1.661571,0.0,23.0,74.0,173.0,18.0,0.0
746627,-2.477402,-1.373047,-1.257852,-0.146489,2.40575,1.270289,0.0,23.0,74.0,173.0,18.0,0.0
746628,-2.573182,-1.351926,-1.30123,-0.019185,1.600746,1.028745,0.0,23.0,74.0,173.0,18.0,0.0
746629,-2.57536,-1.362458,-1.223655,0.605846,-0.340696,-0.623009,0.0,23.0,74.0,173.0,18.0,0.0
746630,-2.554053,-1.392274,-1.139576,0.232634,-0.770087,-0.922273,0.0,23.0,74.0,173.0,18.0,0.0
746631,-2.604303,-1.4248299999999998,-1.130865,0.203745,-0.49434,-0.5893550000000001,0.0,23.0,74.0,173.0,18.0,0.0
746632,-2.638591,-1.460411,-1.128714,0.017519999999999997,0.053953,0.331951,0.0,23.0,74.0,173.0,18.0,0.0
746633,-2.640353,-1.491154,-1.112174,-0.174967,0.520443,-0.075448,0.0,23.0,74.0,173.0,18.0,0.0
746634,-2.656092,-1.51598,-1.104645,-0.17652,0.339988,-0.118542,0.0,23.0,74.0,173.0,18.0,0.0
746635,-2.365207,-1.532934,-0.7928029999999999,-0.074062,-0.12486300000000003,-0.001509,0.0,23.0,74.0,173.0,18.0,0.0
746636,-1.582575,-1.54463,-0.0008039999999999999,-0.004417,-0.300485,-0.010699,0.0,23.0,74.0,173.0,18.0,0.0
746637,-0.5246,-1.535795,1.08006,-0.069036,-0.312406,0.008879000000000001,0.0,23.0,74.0,173.0,18.0,0.0
746638,-0.044912,-1.508235,1.6015469999999998,-0.210114,-0.257489,0.12796300000000002,0.0,23.0,74.0,173.0,18.0,0.0
746639,0.104309,-1.476026,1.789638,-0.316631,-0.221389,0.013593,0.0,23.0,74.0,173.0,18.0,0.0
746640,0.130433,-1.445128,1.84961,-0.323919,-0.200839,-0.02389,0.0,23.0,74.0,173.0,18.0,0.0
746641,0.119884,-1.414492,1.872166,-0.232592,0.12947,0.248545,0.0,23.0,74.0,173.0,18.0,0.0
746642,0.100349,-1.3856,1.882525,-0.082595,0.241084,0.372987,0.0,23.0,74.0,173.0,18.0,0.0
746643,0.079138,-1.363351,1.888051,-0.035508,0.211915,0.45437,0.0,23.0,74.0,173.0,18.0,0.0
746644,0.07061100000000001,-1.349279,1.896044,-0.092604,0.176519,0.418763,0.0,23.0,74.0,173.0,18.0,0.0
746645,0.075934,-1.341594,1.900405,-0.120919,-0.019716,0.325316,0.0,23.0,74.0,173.0,18.0,0.0
746646,0.094185,-1.339516,1.903811,-0.099774,-0.08001699999999999,0.29173000000000004,0.0,23.0,74.0,173.0,18.0,0.0
746647,0.111603,-1.344147,1.913262,-0.057208,0.020448,0.398197,0.0,23.0,74.0,173.0,18.0,0.0
746648,0.11964,-1.360566,1.931838,-0.274328,0.63008,0.471445,0.0,23.0,74.0,173.0,18.0,0.0
746649,0.081929,-1.3956620000000002,1.920539,-0.457466,0.983482,0.404368,0.0,23.0,74.0,173.0,18.0,0.0
746650,-0.071064,-1.441878,1.81581,-1.076733,0.8150310000000001,0.527316,0.0,23.0,74.0,173.0,18.0,0.0
746651,-0.471095,-1.48611,1.460705,-0.8759319999999999,0.517576,0.803872,0.0,23.0,74.0,173.0,18.0,0.0
746652,-1.461849,-1.486665,0.511601,-0.558496,0.459042,0.336529,0.0,23.0,74.0,173.0,18.0,0.0
746653,-2.050325,-1.422495,-0.031131,0.22997,0.419088,-0.6839689999999999,0.0,23.0,74.0,173.0,18.0,0.0
746654,-2.254719,-1.342638,-0.21361,0.302009,0.445959,-0.757109,0.0,23.0,74.0,173.0,18.0,0.0
746655,-2.310043,-1.272897,-0.251406,0.34727,0.497017,-0.697153,0.0,23.0,74.0,173.0,18.0,0.0
746656,-2.333376,-1.207726,-0.248955,0.212311,0.5716439999999999,-0.142655,0.0,23.0,74.0,173.0,18.0,0.0
746657,-2.3518,-1.129368,-0.22982,-0.121473,0.59215,-0.21596,0.0,23.0,74.0,173.0,18.0,0.0
746658,-2.352143,-1.04469,-0.201831,-0.060026,0.486046,-0.404657,0.0,23.0,74.0,173.0,18.0,0.0
746659,-2.3487150000000003,-0.967416,-0.178584,2.190539,-1.72897,-0.788938,0.0,23.0,74.0,173.0,18.0,0.0
746660,-2.336532,-0.8939459999999999,-0.145985,0.253712,0.287147,-0.405532,0.0,23.0,74.0,173.0,18.0,0.0
746661,-2.317088,-0.853714,-0.123893,0.284715,0.31297,-0.417614,0.0,23.0,74.0,173.0,18.0,0.0
746662,-2.303304,-0.8269850000000001,-0.102041,0.550465,-0.7293470000000001,-0.6010840000000001,0.0,23.0,74.0,173.0,18.0,0.0
746663,-2.3125,-0.812443,-0.083026,0.667612,-0.87845,-0.678672,0.0,23.0,74.0,173.0,18.0,0.0
746664,-2.321653,-0.8156640000000001,-0.057511,0.661626,-0.8806620000000001,-0.6816949999999999,0.0,23.0,74.0,173.0,18.0,0.0
746665,-2.336461,-0.8345600000000001,-0.027425,0.577852,-0.908573,-0.349091,0.0,23.0,74.0,173.0,18.0,0.0
746666,-2.343857,-0.866334,-0.007301999999999999,0.702217,-1.21124,-0.294204,0.0,23.0,74.0,173.0,18.0,0.0
746667,-2.345438,-0.912913,0.003699,0.6756439999999999,-1.240568,-0.269629,0.0,23.0,74.0,173.0,18.0,0.0
746668,-2.325044,-0.965216,0.019903,0.498305,-0.764478,-0.25201,0.0,23.0,74.0,173.0,18.0,0.0
746669,-2.290781,-1.024957,0.042127,0.233785,-0.355836,-0.288654,0.0,23.0,74.0,173.0,18.0,0.0
746670,-2.282576,-1.089527,0.060582,0.037386,-0.012598,-0.335198,0.0,23.0,74.0,173.0,18.0,0.0
746671,-2.318511,-1.153197,0.070296,-0.4264810000000001,1.290159,0.108368,0.0,23.0,74.0,173.0,18.0,0.0
746672,-2.334496,-1.205416,0.108665,-0.567715,1.38489,0.176671,0.0,23.0,74.0,173.0,18.0,0.0
746673,-2.27683,-1.246286,0.202869,-0.338768,0.7224970000000001,0.184759,0.0,23.0,74.0,173.0,18.0,0.0
746674,-2.196098,-1.269269,0.30422,0.065433,-0.489537,0.000543,0.0,23.0,74.0,173.0,18.0,0.0
746675,-2.15428,-1.272137,0.354189,0.319349,-0.034772000000000004,0.26932,0.0,23.0,74.0,173.0,18.0,0.0
746676,-2.210114,-1.273565,0.335453,0.940049,1.1036629999999998,0.221177,0.0,23.0,74.0,173.0,18.0,0.0
746677,-2.246312,-1.28813,0.377896,1.226482,1.533841,-0.202345,0.0,23.0,74.0,173.0,18.0,0.0
746678,-2.302719,-1.265624,0.376365,-0.445529,0.12725899999999998,0.969187,0.0,23.0,74.0,173.0,18.0,0.0
746679,-2.26962,-1.231732,0.367822,-0.682492,0.054233,0.094974,0.0,23.0,74.0,173.0,18.0,0.0
746680,-2.22455,-1.218877,0.368359,0.203222,0.039269,-0.5199090000000001,0.0,23.0,74.0,173.0,18.0,0.0
746681,-2.21141,-1.225939,0.3747,-0.002998,-0.07286799999999999,-0.8673700000000001,0.0,23.0,74.0,173.0,18.0,0.0
746682,-2.166252,-1.253675,0.412805,-0.125701,-0.163714,-0.671622,0.0,23.0,74.0,173.0,18.0,0.0
746683,-2.017135,-1.286943,0.536932,-1.1581,0.7888569999999999,0.626836,0.0,23.0,74.0,173.0,18.0,0.0
746684,-1.85442,-1.29073,0.673245,-1.1353959999999998,0.816978,-0.35704600000000003,0.0,23.0,74.0,173.0,18.0,0.0
746685,-1.822914,-1.279073,0.7248180000000001,-0.204705,0.06027100000000001,0.046664,0.0,23.0,74.0,173.0,18.0,0.0
746686,-1.855444,-1.271262,0.7502939999999999,0.377959,-0.307937,0.13491,0.0,23.0,74.0,173.0,18.0,0.0
746687,-1.867482,-1.272626,0.779779,0.5757680000000001,-0.391773,0.024741,0.0,23.0,74.0,173.0,18.0,0.0
746688,-1.914666,-1.282063,0.741849,0.671191,-0.4162770000000001,0.5887439999999999,0.0,23.0,74.0,173.0,18.0,0.0
746689,-2.000109,-1.282658,0.640825,0.565112,-0.055821,0.7159909999999999,0.0,23.0,74.0,173.0,18.0,0.0
746690,-2.095672,-1.254806,0.519369,0.319967,-0.081715,0.459634,0.0,23.0,74.0,173.0,18.0,0.0
746691,-2.195477,-1.203487,0.395088,0.250334,0.007499,0.317783,0.0,23.0,74.0,173.0,18.0,0.0
746692,-2.303002,-1.154464,0.262303,0.52099,-0.024121,-0.577817,0.0,23.0,74.0,173.0,18.0,0.0
746693,-2.394504,-1.0919370000000002,0.151552,0.527465,-0.077111,-0.647713,0.0,23.0,74.0,173.0,18.0,0.0
746694,-2.439144,-1.028643,0.07619,0.486492,-0.056917,-0.478791,0.0,23.0,74.0,173.0,18.0,0.0
746695,-2.414335,-0.972668,0.044485,0.284593,0.302897,-0.107188,0.0,23.0,74.0,173.0,18.0,0.0
746696,-2.395136,-0.907402,0.018167,1.115752,-1.073856,-0.799299,0.0,23.0,74.0,173.0,18.0,0.0
746697,-2.356983,-0.8550139999999999,0.01153,-0.7699229999999999,1.533308,0.11478800000000003,0.0,23.0,74.0,173.0,18.0,0.0
746698,-2.315821,-0.825486,0.009528,-0.42985,0.457109,-0.491749,0.0,23.0,74.0,173.0,18.0,0.0
746699,-2.288738,-0.828355,0.001269,-0.005384000000000001,-0.211338,-0.653511,0.0,23.0,74.0,173.0,18.0,0.0
746700,-2.2876380000000003,-0.8486899999999999,-0.001518,0.062441,-0.4749640000000001,-0.548456,0.0,23.0,74.0,173.0,18.0,0.0
746701,-2.309421,-0.889641,0.002284,0.312362,-0.609579,-0.131686,0.0,23.0,74.0,173.0,18.0,0.0
746702,-2.33973,-0.950808,0.013331,0.360503,-0.8607600000000001,0.125651,0.0,23.0,74.0,173.0,18.0,0.0
746703,-2.353044,-1.039355,0.046583,0.302419,-0.908953,0.172464,0.0,23.0,74.0,173.0,18.0,0.0
746704,-2.266351,-1.1446610000000002,0.130231,0.433284,-0.988176,0.130732,0.0,23.0,74.0,173.0,18.0,0.0
746705,-2.092334,-1.226781,0.25192600000000004,0.42712,-0.420854,-0.355655,0.0,23.0,74.0,173.0,18.0,0.0
746706,-1.943562,-1.282312,0.366834,0.15258,0.27531700000000003,-0.658758,0.0,23.0,74.0,173.0,18.0,0.0
746707,-1.865862,-1.297715,0.461146,-0.687497,0.874885,1.184312,0.0,23.0,74.0,173.0,18.0,0.0
746708,-1.859843,-1.268951,0.487797,-0.629143,0.6629470000000001,1.164469,0.0,23.0,74.0,173.0,18.0,0.0
746709,-1.861276,-1.251366,0.526569,-0.295504,0.169696,0.284235,0.0,23.0,74.0,173.0,18.0,0.0
746710,-1.930582,-1.247401,0.5438930000000001,0.388398,-0.063427,0.053582000000000005,0.0,23.0,74.0,173.0,18.0,0.0
746711,-1.95297,-1.2446780000000002,0.527337,-0.270097,0.374271,0.471312,0.0,23.0,74.0,173.0,18.0,0.0
746712,-1.878518,-1.2464,0.523582,-0.289894,0.418032,0.480821,0.0,23.0,74.0,173.0,18.0,0.0
746713,-1.893898,-1.250989,0.511157,0.7305189999999999,0.929488,0.082676,0.0,23.0,74.0,173.0,18.0,0.0
746714,-1.846952,-1.232931,0.529648,-0.034311,0.131762,-0.176607,0.0,23.0,74.0,173.0,18.0,0.0
746715,-1.820532,-1.216786,0.538862,-0.556365,-0.064424,-0.004149,0.0,23.0,74.0,173.0,18.0,0.0
746716,-1.813016,-1.208067,0.548233,-0.8307479999999999,-0.035335000000000005,0.124624,0.0,23.0,74.0,173.0,18.0,0.0
746717,-1.8299330000000005,-1.21233,0.539453,-0.518969,-0.13685999999999998,0.12463699999999997,0.0,23.0,74.0,173.0,18.0,0.0
746718,-1.88955,-1.214358,0.493975,-0.4482100000000001,-0.249432,0.481713,0.0,23.0,74.0,173.0,18.0,0.0
746719,-1.988078,-1.196757,0.408798,-0.012546,0.060367,0.622627,0.0,23.0,74.0,173.0,18.0,0.0
746720,-2.135576,-1.144723,0.276197,0.8749030000000001,0.575763,0.191495,0.0,23.0,74.0,173.0,18.0,0.0
746721,-2.273761,-1.0767870000000002,0.143924,0.998621,0.500344,0.092802,0.0,23.0,74.0,173.0,18.0,0.0
746722,-2.35623,-1.007275,0.052776,0.956999,0.34520300000000004,-0.8857370000000001,0.0,23.0,74.0,173.0,18.0,0.0
746723,-2.369848,-0.945329,-0.001014,0.596673,-0.474096,-0.057181,0.0,23.0,74.0,173.0,18.0,0.0
746724,-2.340047,-0.8903840000000001,-0.038258,0.387843,-0.340408,-0.332843,0.0,23.0,74.0,173.0,18.0,0.0
746725,-2.314763,-0.843374,-0.060215,-0.16053599999999998,0.401241,-0.414238,0.0,23.0,74.0,173.0,18.0,0.0
746726,-2.279412,-0.816013,-0.059447,-0.284935,0.571461,-0.495921,0.0,23.0,74.0,173.0,18.0,0.0
746727,-2.257491,-0.813768,-0.053317,-0.085105,0.421511,-0.531513,0.0,23.0,74.0,173.0,18.0,0.0
746728,-2.256466,-0.8325969999999999,-0.047759,0.271614,-0.305111,-0.462182,0.0,23.0,74.0,173.0,18.0,0.0
746729,-2.2658080000000003,-0.86944,-0.042836,0.185527,-0.536276,-0.229639,0.0,23.0,74.0,173.0,18.0,0.0
746730,-2.280596,-0.924132,-0.034051,0.113232,-0.617388,-0.032183,0.0,23.0,74.0,173.0,18.0,0.0
746731,-2.263777,-1.000236,-0.006388,0.36621,-0.703659,0.395931,0.0,23.0,74.0,173.0,18.0,0.0
746732,-2.199469,-1.087558,0.040429,0.308857,-0.64909,0.419502,0.0,23.0,74.0,173.0,18.0,0.0
746733,-2.100192,-1.16379,0.109789,0.166488,-0.4782770000000001,0.383429,0.0,23.0,74.0,173.0,18.0,0.0
746734,-1.935205,-1.213742,0.232606,-0.30965,0.494405,-0.237283,0.0,23.0,74.0,173.0,18.0,0.0
746735,-1.743868,-1.229652,0.387839,-0.438529,0.584025,-0.173552,0.0,23.0,74.0,173.0,18.0,0.0
746736,-1.679716,-1.225316,0.441683,-0.456082,0.271612,0.102378,0.0,23.0,74.0,173.0,18.0,0.0
746737,-1.724212,-1.228633,0.433381,0.302288,0.000321,-0.253132,0.0,23.0,74.0,173.0,18.0,0.0
746738,-1.792366,-1.23522,0.474274,0.17088699999999998,0.275567,0.438082,0.0,23.0,74.0,173.0,18.0,0.0
746739,-1.867442,-1.23,0.479062,-0.104204,0.630586,0.8986049999999999,0.0,23.0,74.0,173.0,18.0,0.0
746740,-1.835928,-1.224437,0.48892,0.27362800000000004,1.266386,0.221699,0.0,23.0,74.0,173.0,18.0,0.0
746741,-1.825552,-1.221525,0.476746,0.913658,0.234053,-0.100477,0.0,23.0,74.0,173.0,18.0,0.0
746742,-1.810785,-1.2236129999999998,0.481668,0.813516,-0.236844,-0.060916,0.0,23.0,74.0,173.0,18.0,0.0
746743,-1.784931,-1.221892,0.493932,-0.057785,-0.005849,0.01506,0.0,23.0,74.0,173.0,18.0,0.0
746744,-1.749588,-1.220641,0.519451,-0.351313,0.161663,0.038999,0.0,23.0,74.0,173.0,18.0,0.0
746745,-1.753268,-1.212431,0.491472,-1.143864,0.7200989999999999,0.597288,0.0,23.0,74.0,173.0,18.0,0.0
746746,-1.841698,-1.182046,0.395636,-0.266948,0.290421,0.418163,0.0,23.0,74.0,173.0,18.0,0.0
746747,-2.022694,-1.134834,0.234337,0.524044,0.295547,0.205722,0.0,23.0,74.0,173.0,18.0,0.0
746748,-2.186368,-1.07366,0.08875,0.782391,0.18338,0.065532,0.0,23.0,74.0,173.0,18.0,0.0
746749,-2.295989,-1.015568,-0.022391,1.074595,-0.7061029999999999,-0.8338620000000001,0.0,23.0,74.0,173.0,18.0,0.0
746750,-2.347589,-0.96678,-0.100076,1.041443,-0.979937,-0.421005,0.0,23.0,74.0,173.0,18.0,0.0
746751,-2.332496,-0.932066,-0.145735,0.6316579999999999,-1.041455,-0.013824,0.0,23.0,74.0,173.0,18.0,0.0
746752,-2.285814,-0.901312,-0.171501,0.229195,-0.099694,-0.25253000000000003,0.0,23.0,74.0,173.0,18.0,0.0
746753,-2.246032,-0.8795120000000001,-0.196581,-0.174979,0.619358,-0.5049819999999999,0.0,23.0,74.0,173.0,18.0,0.0
746754,-2.211926,-0.880659,-0.205189,-0.45345,1.047689,-0.293695,0.0,23.0,74.0,173.0,18.0,0.0
746755,-2.187079,-0.912584,-0.188558,-0.2806,0.417974,-0.358894,0.0,23.0,74.0,173.0,18.0,0.0
746756,-2.173039,-0.957132,-0.17351,-0.07598400000000001,-0.344796,-0.256049,0.0,23.0,74.0,173.0,18.0,0.0
746757,-2.175892,-1.012044,-0.155223,-0.14921700000000002,-0.578325,0.0159,0.0,23.0,74.0,173.0,18.0,0.0
746758,-2.190802,-1.0866559999999998,-0.119192,0.020967,-0.731847,0.318469,0.0,23.0,74.0,173.0,18.0,0.0
746759,-2.191887,-1.169245,-0.047285,0.057661,-0.664337,0.6036729999999999,0.0,23.0,74.0,173.0,18.0,0.0
746760,-2.154472,-1.228986,0.025002,-0.166239,-0.515193,0.524216,0.0,23.0,74.0,173.0,18.0,0.0
746761,-2.069359,-1.2646540000000002,0.097389,-0.5157609999999999,-0.003308,-0.151221,0.0,23.0,74.0,173.0,18.0,0.0
746762,-1.970877,-1.277251,0.173897,-0.071988,-0.161509,0.396624,0.0,23.0,74.0,173.0,18.0,0.0
746763,-1.957636,-1.277233,0.17310699999999998,-0.070503,-0.161503,0.400156,0.0,23.0,74.0,173.0,18.0,0.0
746764,-1.99117,-1.29768,0.205135,1.277805,0.020784,-0.826357,0.0,23.0,74.0,173.0,18.0,0.0
746765,-2.092462,-1.32221,0.225976,0.79705,1.51519,1.262115,0.0,23.0,74.0,173.0,18.0,0.0
746766,-2.140756,-1.317906,0.160478,0.794392,1.516258,1.249711,0.0,23.0,74.0,173.0,18.0,0.0
746767,-2.006088,-1.285699,0.206371,-0.855526,0.8882200000000001,-0.273809,0.0,23.0,74.0,173.0,18.0,0.0
746768,-1.998899,-1.257593,0.180596,-0.09868,-0.106442,-0.314952,0.0,23.0,74.0,173.0,18.0,0.0
746769,-2.003301,-1.249414,0.154327,0.021869,-0.280999,-0.6719649999999999,0.0,23.0,74.0,173.0,18.0,0.0
746770,-2.0190360000000003,-1.250111,0.136819,-0.329326,-0.325088,0.207736,0.0,23.0,74.0,173.0,18.0,0.0
746771,-2.018708,-1.264068,0.133183,-0.62146,-0.098941,0.511247,0.0,23.0,74.0,173.0,18.0,0.0
746772,-2.01549,-1.270365,0.131771,-0.662979,0.618293,0.503509,0.0,23.0,74.0,173.0,18.0,0.0
746773,-2.068654,-1.241971,0.070953,-0.166267,0.815449,0.419181,0.0,23.0,74.0,173.0,18.0,0.0
746774,-2.1826380000000003,-1.186392,-0.017921,0.34436100000000003,0.292674,0.29235700000000003,0.0,23.0,74.0,173.0,18.0,0.0
746775,-2.307975,-1.1163379999999998,-0.120804,0.646613,0.227966,0.101633,0.0,23.0,74.0,173.0,18.0,0.0
746776,-2.401795,-1.042216,-0.215324,1.000785,-0.078139,-0.572679,0.0,23.0,74.0,173.0,18.0,0.0
746777,-2.459047,-0.975455,-0.27231,0.594896,-0.334229,-0.7332529999999999,0.0,23.0,74.0,173.0,18.0,0.0
746778,-2.482053,-0.917989,-0.306693,0.451589,-0.50268,-0.484483,0.0,23.0,74.0,173.0,18.0,0.0
746779,-2.470691,-0.8756450000000001,-0.32551,-0.134184,-0.373456,-0.250017,0.0,23.0,74.0,173.0,18.0,0.0
746780,-2.453482,-0.8415819999999999,-0.338956,-0.248518,-0.044603,-0.320425,0.0,23.0,74.0,173.0,18.0,0.0
746781,-2.424171,-0.817623,-0.349037,-0.13548,0.234269,-0.349593,0.0,23.0,74.0,173.0,18.0,0.0
746782,-2.421456,-0.8456950000000001,-0.335787,-0.023009,0.241116,-0.368099,0.0,23.0,74.0,173.0,18.0,0.0
746783,-2.42116,-0.8908940000000001,-0.316378,0.002982,-0.356217,-0.390981,0.0,23.0,74.0,173.0,18.0,0.0
746784,-2.430968,-0.948601,-0.305745,-0.08726,-0.490747,-0.216425,0.0,23.0,74.0,173.0,18.0,0.0
746785,-2.445744,-1.02548,-0.293143,0.047144,-0.662046,0.14363399999999998,0.0,23.0,74.0,173.0,18.0,0.0
746786,-2.435566,-1.120541,-0.261956,0.117795,-0.688971,0.191606,0.0,23.0,74.0,173.0,18.0,0.0
746787,-2.383204,-1.216222,-0.1972,0.118619,-0.449406,0.012714,0.0,23.0,74.0,173.0,18.0,0.0
746788,-2.311909,-1.2932629999999998,-0.12827,-0.100031,1.025891,-0.362048,0.0,23.0,74.0,173.0,18.0,0.0
746789,-2.234299,-1.351468,-0.06008,0.019634,1.097641,0.171222,0.0,23.0,74.0,173.0,18.0,0.0
746790,-2.080363,-1.385832,0.103615,0.047632,0.407942,0.424723,0.0,23.0,74.0,173.0,18.0,0.0
746791,-1.922866,-1.394745,0.280562,0.142336,-0.770966,0.16029100000000002,0.0,23.0,74.0,173.0,18.0,0.0
746792,-1.955942,-1.387396,0.253184,0.708824,-1.185805,-0.009465,0.0,23.0,74.0,173.0,18.0,0.0
746793,-2.0289580000000003,-1.409318,0.220296,1.083359,-1.190207,0.05710800000000001,0.0,23.0,74.0,173.0,18.0,0.0
746794,-2.01424,-1.447638,0.374237,0.099582,-0.14396099999999998,0.036831,0.0,23.0,74.0,173.0,18.0,0.0
746795,-2.108328,-1.47069,0.309998,-1.206939,2.383211,-0.105782,0.0,23.0,74.0,173.0,18.0,0.0
746796,-1.879932,-1.455245,0.428904,-0.933704,2.466401,0.562717,0.0,23.0,74.0,173.0,18.0,0.0
746797,-1.856691,-1.4388459999999998,0.3995530000000001,0.516303,-0.228917,-0.580058,0.0,23.0,74.0,173.0,18.0,0.0
746798,-1.929915,-1.45589,0.344058,-0.249945,-0.175245,0.182819,0.0,23.0,74.0,173.0,18.0,0.0
746799,-2.078188,-1.475749,0.201337,-0.583923,0.212552,0.12850799999999998,0.0,23.0,74.0,173.0,18.0,0.0
746800,-2.143096,-1.492142,0.128492,-0.8658170000000001,0.117487,-0.218883,0.0,23.0,74.0,173.0,18.0,0.0
746801,-2.1408810000000003,-1.502409,0.124799,-0.7933020000000001,-0.225766,0.051498,0.0,23.0,74.0,173.0,18.0,0.0
746802,-2.052893,-1.512821,0.232977,-0.686775,-0.265608,-0.106835,0.0,23.0,74.0,173.0,18.0,0.0
746803,-1.848023,-1.527291,0.458993,-0.376688,-0.3134,0.353026,0.0,23.0,74.0,173.0,18.0,0.0
746804,-1.953177,-1.54022,0.351138,-0.167116,-0.146093,0.681632,0.0,23.0,74.0,173.0,18.0,0.0
746805,-2.709039,-1.534683,-0.393448,-0.068727,0.024944,0.758357,0.0,23.0,74.0,173.0,18.0,0.0
746806,-2.838232,-1.495794,-0.486717,-0.029145,0.461994,0.500893,0.0,23.0,74.0,173.0,18.0,0.0
746807,-2.863023,-1.441758,-0.470053,-0.217591,0.611387,-0.032014999999999995,0.0,23.0,74.0,173.0,18.0,0.0
746808,-2.847569,-1.384617,-0.408911,-0.227666,0.5981529999999999,-0.658165,0.0,23.0,74.0,173.0,18.0,0.0
746809,-2.824109,-1.3271190000000002,-0.326228,-0.245313,0.719042,-0.851347,0.0,23.0,74.0,173.0,18.0,0.0
746810,-2.759322,-1.272642,-0.207395,-0.383585,0.971808,-0.409745,0.0,23.0,74.0,173.0,18.0,0.0
746811,-2.597332,-1.217343,-0.023844,-0.705128,1.127216,-0.456603,0.0,23.0,74.0,173.0,18.0,0.0
746812,-2.42498,-1.1442,0.182698,-1.390283,1.033911,-0.467396,0.0,23.0,74.0,173.0,18.0,0.0
746813,-2.379771,-1.080456,0.299423,-0.52387,1.010085,-0.44819,0.0,23.0,74.0,173.0,18.0,0.0
746814,-2.394928,-1.0427,0.365714,0.0016940000000000002,0.885835,-0.525275,0.0,23.0,74.0,173.0,18.0,0.0
746815,-2.399169,-1.014235,0.435612,0.69324,0.010969,-0.391748,0.0,23.0,74.0,173.0,18.0,0.0
746816,-2.407817,-0.993629,0.503452,0.6501560000000001,-0.243193,-0.398272,0.0,23.0,74.0,173.0,18.0,0.0
746817,-2.418743,-0.980797,0.5686329999999999,0.623967,-0.31214200000000003,-0.423347,0.0,23.0,74.0,173.0,18.0,0.0
746818,-2.413739,-0.97833,0.637371,0.499773,-0.41793,-0.543589,0.0,23.0,74.0,173.0,18.0,0.0
746819,-2.397582,-0.987517,0.709517,0.426804,-0.474737,-0.621309,0.0,23.0,74.0,173.0,18.0,0.0
746820,-2.388201,-1.004616,0.782138,0.405283,-0.482979,-0.632074,0.0,23.0,74.0,173.0,18.0,0.0
746821,-2.39439,-1.027102,0.847932,0.443823,-0.499739,-0.594515,0.0,23.0,74.0,173.0,18.0,0.0
746822,-2.404913,-1.053011,0.902817,0.499444,-0.580969,-0.519509,0.0,23.0,74.0,173.0,18.0,0.0
746823,-2.405246,-1.087992,0.947022,0.560924,-0.600113,-0.406807,0.0,23.0,74.0,173.0,18.0,0.0
746824,-2.407453,-1.132626,0.984735,0.146766,-0.401959,-0.119633,0.0,23.0,74.0,173.0,18.0,0.0
746825,-2.445059,-1.182083,1.011239,0.105654,0.273272,0.464134,0.0,23.0,74.0,173.0,18.0,0.0
746826,-2.579376,-1.214791,0.965332,-0.303498,1.34995,1.208426,0.0,23.0,74.0,173.0,18.0,0.0
746827,-2.72523,-1.18359,0.920639,-0.813012,0.927868,0.869684,0.0,23.0,74.0,173.0,18.0,0.0
746828,-2.761848,-1.165606,0.949428,-0.586942,-0.166739,0.024346,0.0,23.0,74.0,173.0,18.0,0.0
746829,-2.762936,-1.164083,1.002966,-0.368897,-0.471633,-0.160661,0.0,23.0,74.0,173.0,18.0,0.0
746830,-2.723133,-1.16581,1.061489,0.317531,0.467489,-1.176812,0.0,23.0,74.0,173.0,18.0,0.0
746831,-2.6481,-1.169219,1.124854,0.21253200000000005,0.762706,-1.36079,0.0,23.0,74.0,173.0,18.0,0.0
746832,-2.590273,-1.1701629999999998,1.120851,0.34070100000000003,1.7366720000000002,-0.90433,0.0,23.0,74.0,173.0,18.0,0.0
746833,-2.613052,-1.1555799999999998,1.076245,0.024448,0.196665,-0.145386,0.0,23.0,74.0,173.0,18.0,0.0
746834,-2.643522,-1.145628,1.083233,0.0569,-1.038182,-0.384303,0.0,23.0,74.0,173.0,18.0,0.0
746835,-2.665674,-1.160124,1.108077,0.166474,-0.995969,-0.825564,0.0,23.0,74.0,173.0,18.0,0.0
746836,-2.699006,-1.19,1.128784,-0.424322,0.005179,-1.580905,0.0,23.0,74.0,173.0,18.0,0.0
746837,-2.791077,-1.229458,1.093764,-0.536497,0.116607,-1.05855,0.0,23.0,74.0,173.0,18.0,0.0
746838,-2.8475,-1.26345,1.062567,-0.479429,0.406693,-0.467215,0.0,23.0,74.0,173.0,18.0,0.0
746839,-2.859548,-1.2808959999999998,1.061596,0.21698,0.019236000000000003,0.211812,0.0,23.0,74.0,173.0,18.0,0.0
746840,-2.868923,-1.30148,1.067621,0.371337,0.066732,0.01039,0.0,23.0,74.0,173.0,18.0,0.0
746841,-2.886363,-1.326315,1.08718,0.373153,0.048292,-0.022039,0.0,23.0,74.0,173.0,18.0,0.0
746842,-2.91242,-1.348319,1.094203,0.249694,-0.131726,0.020657,0.0,23.0,74.0,173.0,18.0,0.0
746843,-2.966702,-1.370679,1.076425,0.193478,-0.077303,0.171481,0.0,23.0,74.0,173.0,18.0,0.0
746844,-3.0282310000000003,-1.3933879999999998,1.042747,0.157948,-0.125875,0.22937800000000005,0.0,23.0,74.0,173.0,18.0,0.0
746845,-3.101821,-1.415969,0.980648,0.078794,-0.176423,0.023006,0.0,23.0,74.0,173.0,18.0,0.0
746846,3.086358,-1.435396,0.884964,-0.086065,-0.065875,-0.134858,0.0,23.0,74.0,173.0,18.0,0.0
746847,2.959712,-1.451347,0.761646,-0.213861,0.013687,-0.119412,0.0,23.0,74.0,173.0,18.0,0.0
746848,2.800719,-1.466514,0.61107,-0.512842,0.17488099999999998,0.026514,0.0,23.0,74.0,173.0,18.0,0.0
746849,2.613796,-1.482617,0.4351390000000001,-0.5851390000000001,0.04397,0.016311000000000003,0.0,23.0,74.0,173.0,18.0,0.0
746850,2.3591900000000003,-1.498238,0.204552,-0.553779,-0.092477,-0.013085,0.0,23.0,74.0,173.0,18.0,0.0
746851,1.959124,-1.512514,-0.164929,-0.426029,-0.303859,-0.182822,0.0,23.0,74.0,173.0,18.0,0.0
746852,1.395152,-1.515165,-0.704121,-0.220839,-0.251886,-0.148472,0.0,23.0,74.0,173.0,18.0,0.0
746853,0.945849,-1.499017,-1.138941,-0.115841,-0.194065,-0.079501,0.0,23.0,74.0,173.0,18.0,0.0
746854,0.754627,-1.473799,-1.319508,0.075886,0.078263,0.042768,0.0,23.0,74.0,173.0,18.0,0.0
746855,0.656555,-1.45034,-1.406256,0.064149,0.224836,-0.029253,0.0,23.0,74.0,173.0,18.0,0.0
746856,0.5517,-1.427039,-1.50066,0.032134,0.159165,0.003218,0.0,23.0,74.0,173.0,18.0,0.0
746857,0.486088,-1.403483,-1.550453,-0.039714,-0.036939,0.265041,0.0,23.0,74.0,173.0,18.0,0.0
746858,0.479631,-1.388041,-1.538198,-0.180971,0.230933,0.302698,0.0,23.0,74.0,173.0,18.0,0.0
746859,0.5005850000000001,-1.383165,-1.496669,-0.202912,0.41518,0.405009,0.0,23.0,74.0,173.0,18.0,0.0
746860,0.5410699999999999,-1.385175,-1.437777,-0.373026,0.548672,0.5361239999999999,0.0,23.0,74.0,173.0,18.0,0.0
746861,0.5937720000000001,-1.394489,-1.375827,-0.8761629999999999,0.57318,0.15948900000000002,0.0,23.0,74.0,173.0,18.0,0.0
746862,0.6483869999999999,-1.423869,-1.308039,-0.866441,0.568453,0.130803,0.0,23.0,74.0,173.0,18.0,0.0
746863,0.6567609999999999,-1.47732,-1.276517,-1.755888,0.438539,-0.103369,0.0,23.0,74.0,173.0,18.0,0.0
746864,0.486563,-1.545864,-1.411849,-0.929276,0.336493,-0.306666,0.0,23.0,74.0,173.0,18.0,0.0
746865,-2.479932,-1.521965,1.957962,-0.419044,0.409868,-0.533216,0.0,23.0,74.0,173.0,18.0,0.0
746866,-2.562278,-1.4474200000000002,1.953158,0.099155,0.648333,-0.77431,0.0,23.0,74.0,173.0,18.0,0.0
746867,-2.622659,-1.382325,1.99143,0.047419,0.724404,-0.766421,0.0,23.0,74.0,173.0,18.0,0.0
746868,-2.676203,-1.32745,2.046644,-0.191383,0.502089,-0.685571,0.0,23.0,74.0,173.0,18.0,0.0
746869,-2.664654,-1.2720200000000002,2.131612,-0.676276,0.13851,-0.665662,0.0,23.0,74.0,173.0,18.0,0.0
746870,-2.610627,-1.209547,2.22358,-0.391356,0.161498,-0.7742319999999999,0.0,23.0,74.0,173.0,18.0,0.0
746871,-2.577341,-1.139304,2.292732,-0.045748,0.219846,-0.736408,0.0,23.0,74.0,173.0,18.0,0.0
746872,-2.581071,-1.070691,2.346755,0.140042,0.099534,-0.6441020000000001,0.0,23.0,74.0,173.0,18.0,0.0
746873,-2.606393,-1.010565,2.399743,0.241196,0.0678,-0.6708529999999999,0.0,23.0,74.0,173.0,18.0,0.0
