index,attitude.roll,attitude.pitch,attitude.yaw,userAcceleration.x,userAcceleration.y,userAcceleration.z,act,id,weight,height,age,gender
161454,-0.817796,-1.396893,-1.619888,0.040009,0.001442,-0.104955,0.0,5.0,76.0,180.0,28.0,1.0
161455,-0.726263,-1.38313,-1.524897,0.078628,-0.111425,0.201063,0.0,5.0,76.0,180.0,28.0,1.0
161456,-0.660459,-1.360642,-1.457164,0.025828,-0.151049,-0.012849,0.0,5.0,76.0,180.0,28.0,1.0
161457,-0.6101409999999999,-1.331528,-1.411727,-0.031708999999999994,0.07296799999999999,-0.11846,0.0,5.0,76.0,180.0,28.0,1.0
161458,-0.568539,-1.295823,-1.371179,-0.062023,0.310502,-0.206304,0.0,5.0,76.0,180.0,28.0,1.0
161459,-0.531878,-1.249958,-1.321333,-0.002176,0.593677,-0.004881,0.0,5.0,76.0,180.0,28.0,1.0
161460,-0.507888,-1.203094,-1.278826,-0.010422,0.815288,-0.08974700000000001,0.0,5.0,76.0,180.0,28.0,1.0
161461,-0.495055,-1.156629,-1.237814,-0.081202,0.737746,0.261472,0.0,5.0,76.0,180.0,28.0,1.0
161462,-0.482189,-1.113498,-1.1930120000000002,-0.06518600000000001,0.44403,0.443869,0.0,5.0,76.0,180.0,28.0,1.0
161463,-0.464695,-1.0798,-1.145909,-0.206116,0.107623,0.495904,0.0,5.0,76.0,180.0,28.0,1.0
161464,-0.45198,-1.059476,-1.105171,-0.252597,-0.109816,0.322773,0.0,5.0,76.0,180.0,28.0,1.0
161465,-0.442576,-1.052676,-1.081281,-0.292175,-0.008659,0.263813,0.0,5.0,76.0,180.0,28.0,1.0
161466,-0.431654,-1.054977,-1.068049,-0.236282,0.07901,0.28317600000000004,0.0,5.0,76.0,180.0,28.0,1.0
161467,-0.420219,-1.0607540000000002,-1.061419,-0.126437,-0.059659,0.297344,0.0,5.0,76.0,180.0,28.0,1.0
161468,-0.410928,-1.069718,-1.060856,-0.023444,-0.205694,0.334512,0.0,5.0,76.0,180.0,28.0,1.0
161469,-0.408125,-1.083576,-1.06431,0.000691,-0.30034,0.358442,0.0,5.0,76.0,180.0,28.0,1.0
161470,-0.414238,-1.102042,-1.070816,0.018932,-0.575588,0.280566,0.0,5.0,76.0,180.0,28.0,1.0
161471,-0.423773,-1.124916,-1.08356,0.081429,-0.628839,0.152517,0.0,5.0,76.0,180.0,28.0,1.0
161472,-0.4340600000000001,-1.155541,-1.10335,0.102477,-0.619512,0.104076,0.0,5.0,76.0,180.0,28.0,1.0
161473,-0.447916,-1.192473,-1.132014,0.107795,-0.504633,0.046819,0.0,5.0,76.0,180.0,28.0,1.0
161474,-0.478393,-1.231548,-1.1796209999999998,0.13126600000000002,-0.354657,0.062336,0.0,5.0,76.0,180.0,28.0,1.0
161475,-0.543837,-1.2681870000000002,-1.261863,0.113057,0.017102000000000003,0.044944,0.0,5.0,76.0,180.0,28.0,1.0
161476,-0.637558,-1.298016,-1.372309,0.07908899999999999,0.18413,-0.070646,0.0,5.0,76.0,180.0,28.0,1.0
161477,-0.717051,-1.31881,-1.460892,0.092967,0.148936,-0.145054,0.0,5.0,76.0,180.0,28.0,1.0
161478,-0.768517,-1.330854,-1.510153,0.04022,0.118233,-0.201803,0.0,5.0,76.0,180.0,28.0,1.0
161479,-0.790985,-1.337409,-1.52449,-0.095296,0.095227,-0.257416,0.0,5.0,76.0,180.0,28.0,1.0
161480,-0.7960619999999999,-1.342219,-1.522532,-0.225046,-0.036627,-0.248955,0.0,5.0,76.0,180.0,28.0,1.0
161481,-0.817719,-1.349743,-1.528309,-0.185285,-0.15456099999999998,-0.204842,0.0,5.0,76.0,180.0,28.0,1.0
161482,-0.867132,-1.35943,-1.547131,-0.0143,-0.094399,-0.320397,0.0,5.0,76.0,180.0,28.0,1.0
161483,-0.927202,-1.371787,-1.5683200000000002,0.153193,0.5109779999999999,0.046299,0.0,5.0,76.0,180.0,28.0,1.0
161484,-1.0094040000000002,-1.392528,-1.6300290000000002,0.193155,0.638742,0.604144,0.0,5.0,76.0,180.0,28.0,1.0
161485,-1.062542,-1.418458,-1.708894,0.15501199999999998,0.557327,0.832706,0.0,5.0,76.0,180.0,28.0,1.0
161486,-0.990661,-1.428967,-1.664233,-0.43901,0.349274,-0.509077,0.0,5.0,76.0,180.0,28.0,1.0
161487,-0.904571,-1.417894,-1.564299,-0.65872,0.258127,-0.8986040000000001,0.0,5.0,76.0,180.0,28.0,1.0
161488,-0.897912,-1.409064,-1.554375,-0.41617,0.094059,0.211631,0.0,5.0,76.0,180.0,28.0,1.0
161489,-0.943423,-1.40767,-1.602622,-0.418128,0.905457,0.208987,0.0,5.0,76.0,180.0,28.0,1.0
161490,-0.99295,-1.403212,-1.649171,-0.029683,0.943498,0.080664,0.0,5.0,76.0,180.0,28.0,1.0
161491,-0.988623,-1.408439,-1.668707,0.735574,0.250791,0.179324,0.0,5.0,76.0,180.0,28.0,1.0
161492,-0.934472,-1.414554,-1.640048,0.147294,0.089436,0.162267,0.0,5.0,76.0,180.0,28.0,1.0
161493,-0.898948,-1.417584,-1.603619,-0.088851,-0.029256,0.017130000000000003,0.0,5.0,76.0,180.0,28.0,1.0
161494,-0.8990469999999999,-1.416908,-1.590747,-0.04651,-0.24805500000000005,0.027955,0.0,5.0,76.0,180.0,28.0,1.0
161495,-0.90939,-1.415694,-1.6015549999999998,0.06375499999999999,-0.351262,0.16595,0.0,5.0,76.0,180.0,28.0,1.0
161496,-0.919133,-1.413894,-1.617196,0.027071,-0.220947,-0.050441,0.0,5.0,76.0,180.0,28.0,1.0
161497,-0.934512,-1.408923,-1.62819,-0.091224,-0.115238,-0.222112,0.0,5.0,76.0,180.0,28.0,1.0
161498,-0.965989,-1.405148,-1.656799,-0.114493,-0.25688,-0.068085,0.0,5.0,76.0,180.0,28.0,1.0
161499,-0.990231,-1.400222,-1.685207,-0.046859,-0.420714,0.032780000000000004,0.0,5.0,76.0,180.0,28.0,1.0
161500,-0.994888,-1.390687,-1.695775,0.017449,-0.454878,-0.02954,0.0,5.0,76.0,180.0,28.0,1.0
161501,-0.99239,-1.381797,-1.703913,0.061388,-0.311996,-0.05193,0.0,5.0,76.0,180.0,28.0,1.0
161502,-0.971578,-1.379175,-1.708559,0.08594,0.010918,-0.203949,0.0,5.0,76.0,180.0,28.0,1.0
161503,-0.940826,-1.382573,-1.710122,0.095629,0.07184600000000001,-0.101399,0.0,5.0,76.0,180.0,28.0,1.0
161504,-0.891883,-1.38505,-1.6848880000000002,0.137417,-0.17946900000000002,-0.138692,0.0,5.0,76.0,180.0,28.0,1.0
161505,-0.826724,-1.379498,-1.635906,0.140149,-0.172585,-0.13425,0.0,5.0,76.0,180.0,28.0,1.0
161506,-0.755782,-1.364406,-1.576849,0.14896600000000002,-0.11366500000000003,-0.157424,0.0,5.0,76.0,180.0,28.0,1.0
161507,-0.675074,-1.336584,-1.502646,0.049145,0.329961,-0.136248,0.0,5.0,76.0,180.0,28.0,1.0
161508,-0.594833,-1.2947799999999998,-1.422936,0.032365,0.383616,-0.174009,0.0,5.0,76.0,180.0,28.0,1.0
161509,-0.539334,-1.237125,-1.347483,-0.06569,0.622949,0.04881,0.0,5.0,76.0,180.0,28.0,1.0
161510,-0.520998,-1.177382,-1.293162,0.077372,0.711313,0.218831,0.0,5.0,76.0,180.0,28.0,1.0
161511,-0.519115,-1.130256,-1.253568,0.123526,0.409718,0.5711890000000001,0.0,5.0,76.0,180.0,28.0,1.0
161512,-0.506184,-1.102476,-1.211041,-0.046408,0.17533,0.448538,0.0,5.0,76.0,180.0,28.0,1.0
161513,-0.48376,-1.092388,-1.169101,-0.220603,0.105817,0.278006,0.0,5.0,76.0,180.0,28.0,1.0
161514,-0.464139,-1.086961,-1.133827,-0.20787,0.069998,0.27126300000000003,0.0,5.0,76.0,180.0,28.0,1.0
161515,-0.43989,-1.088862,-1.106241,-0.176025,-0.007056999999999998,0.271202,0.0,5.0,76.0,180.0,28.0,1.0
161516,-0.415208,-1.09815,-1.08671,-0.058812,-0.0663,0.235545,0.0,5.0,76.0,180.0,28.0,1.0
161517,-0.399333,-1.115082,-1.074336,0.051163,-0.101011,0.266282,0.0,5.0,76.0,180.0,28.0,1.0
161518,-0.393878,-1.139522,-1.068748,0.011165,-0.236345,0.289092,0.0,5.0,76.0,180.0,28.0,1.0
161519,-0.400882,-1.167275,-1.073482,0.0016300000000000002,-0.362158,0.249494,0.0,5.0,76.0,180.0,28.0,1.0
161520,-0.42158,-1.197522,-1.091959,0.014241,-0.407182,0.182327,0.0,5.0,76.0,180.0,28.0,1.0
161521,-0.455676,-1.229584,-1.123948,-0.049977,-0.389173,0.109288,0.0,5.0,76.0,180.0,28.0,1.0
161522,-0.506125,-1.261182,-1.176191,-0.089154,-0.316282,0.092383,0.0,5.0,76.0,180.0,28.0,1.0
161523,-0.573329,-1.290066,-1.246011,-0.056659,-0.237007,0.088844,0.0,5.0,76.0,180.0,28.0,1.0
161524,-0.6580630000000001,-1.31461,-1.331244,-0.033281,-0.110643,0.052127,0.0,5.0,76.0,180.0,28.0,1.0
161525,-0.7474,-1.331476,-1.414272,-0.024366,-0.03667,0.00031600000000000004,0.0,5.0,76.0,180.0,28.0,1.0
161526,-0.820742,-1.340914,-1.474736,-0.026009,-0.087142,-0.08035,0.0,5.0,76.0,180.0,28.0,1.0
161527,-0.880201,-1.347784,-1.521581,-0.088276,-0.150452,-0.167901,0.0,5.0,76.0,180.0,28.0,1.0
161528,-0.92053,-1.357118,-1.564818,-0.190757,-0.157235,-0.243501,0.0,5.0,76.0,180.0,28.0,1.0
161529,-0.941553,-1.367223,-1.605532,-0.237043,-0.095256,-0.295315,0.0,5.0,76.0,180.0,28.0,1.0
161530,-0.968567,-1.374781,-1.6414959999999998,-0.204671,-0.089768,-0.35096700000000003,0.0,5.0,76.0,180.0,28.0,1.0
161531,-1.016391,-1.378865,-1.6721259999999998,-0.004334,-0.001276,-0.284536,0.0,5.0,76.0,180.0,28.0,1.0
161532,-1.087735,-1.385983,-1.718329,0.178394,0.263795,0.164268,0.0,5.0,76.0,180.0,28.0,1.0
161533,-1.216451,-1.403958,-1.825422,0.291704,0.479721,0.5588810000000001,0.0,5.0,76.0,180.0,28.0,1.0
161534,-1.27181,-1.414862,-1.871708,0.08984600000000001,0.602358,0.202172,0.0,5.0,76.0,180.0,28.0,1.0
161535,-1.118385,-1.406662,-1.724161,-0.169096,0.62666,-0.5555640000000001,0.0,5.0,76.0,180.0,28.0,1.0
161536,-0.989399,-1.393786,-1.608564,-0.2572,0.146866,-0.005765999999999999,0.0,5.0,76.0,180.0,28.0,1.0
161537,-0.946558,-1.391249,-1.5825790000000002,-0.322562,0.046547000000000005,0.27789200000000003,0.0,5.0,76.0,180.0,28.0,1.0
161538,-0.938464,-1.384737,-1.566125,-0.491157,0.394166,0.189264,0.0,5.0,76.0,180.0,28.0,1.0
161539,-0.990602,-1.380769,-1.609994,0.133916,0.41064,0.27318400000000004,0.0,5.0,76.0,180.0,28.0,1.0
161540,-1.017569,-1.385291,-1.65622,0.529827,0.282461,0.35993600000000003,0.0,5.0,76.0,180.0,28.0,1.0
161541,-1.015511,-1.394289,-1.678362,0.267223,0.088764,0.091798,0.0,5.0,76.0,180.0,28.0,1.0
161542,-1.026844,-1.400613,-1.695289,-0.048501,0.020519,-0.21424,0.0,5.0,76.0,180.0,28.0,1.0
161543,-1.036811,-1.399144,-1.703831,-0.040544,0.072786,-0.041672,0.0,5.0,76.0,180.0,28.0,1.0
161544,-1.0301049999999998,-1.393064,-1.697114,-0.000657,0.109274,0.01937,0.0,5.0,76.0,180.0,28.0,1.0
161545,-1.037399,-1.389674,-1.703801,-0.041649,-0.045593,-0.006256,0.0,5.0,76.0,180.0,28.0,1.0
161546,-1.067552,-1.390853,-1.74043,-0.038145,-0.20532,0.076296,0.0,5.0,76.0,180.0,28.0,1.0
161547,-1.100472,-1.393011,-1.786142,-0.045293,-0.257248,0.062864,0.0,5.0,76.0,180.0,28.0,1.0
161548,-1.119653,-1.389928,-1.812912,-0.033333,-0.188888,-0.125024,0.0,5.0,76.0,180.0,28.0,1.0
161549,-1.131173,-1.383367,-1.828848,0.04087,-0.139194,-0.17667,0.0,5.0,76.0,180.0,28.0,1.0
161550,-1.137358,-1.378804,-1.850012,0.148818,-0.149778,-0.053609,0.0,5.0,76.0,180.0,28.0,1.0
161551,-1.142549,-1.377093,-1.876023,0.176517,-0.157659,0.012717,0.0,5.0,76.0,180.0,28.0,1.0
161552,-1.138788,-1.377249,-1.89284,0.193333,-0.214772,-0.08903,0.0,5.0,76.0,180.0,28.0,1.0
161553,-1.113457,-1.377731,-1.886096,0.174485,-0.266455,-0.047777,0.0,5.0,76.0,180.0,28.0,1.0
161554,-1.078455,-1.378933,-1.8617,0.109768,-0.189964,-0.13701300000000002,0.0,5.0,76.0,180.0,28.0,1.0
161555,-1.027184,-1.377521,-1.814192,0.135931,-0.110744,-0.000972,0.0,5.0,76.0,180.0,28.0,1.0
161556,-0.959022,-1.372776,-1.7551709999999998,0.116404,-0.106663,-0.18576,0.0,5.0,76.0,180.0,28.0,1.0
161557,-0.883439,-1.362576,-1.6852939999999998,0.057763,-0.091651,-0.241756,0.0,5.0,76.0,180.0,28.0,1.0
161558,-0.815651,-1.34721,-1.622478,0.055902,-0.062557,-0.02185,0.0,5.0,76.0,180.0,28.0,1.0
161559,-0.7461260000000001,-1.321842,-1.550998,0.072791,0.070853,0.043655,0.0,5.0,76.0,180.0,28.0,1.0
161560,-0.676088,-1.281799,-1.463823,-0.052524,0.555218,-0.321011,0.0,5.0,76.0,180.0,28.0,1.0
161561,-0.611302,-1.243903,-1.384679,-0.103433,0.8236620000000001,0.010472,0.0,5.0,76.0,180.0,28.0,1.0
161562,-0.549867,-1.213729,-1.319817,-0.12396,0.638803,0.018961,0.0,5.0,76.0,180.0,28.0,1.0
161563,-0.5029279999999999,-1.1870459999999998,-1.2630549999999998,-0.099482,0.415491,0.25747800000000004,0.0,5.0,76.0,180.0,28.0,1.0
161564,-0.46951,-1.166593,-1.213641,-0.086114,0.234683,0.408723,0.0,5.0,76.0,180.0,28.0,1.0
161565,-0.452164,-1.151183,-1.17427,-0.197275,0.076896,0.356679,0.0,5.0,76.0,180.0,28.0,1.0
161566,-0.447896,-1.140095,-1.150649,-0.226892,0.022235,0.197487,0.0,5.0,76.0,180.0,28.0,1.0
161567,-0.446492,-1.136813,-1.14286,-0.156309,0.18337,0.186575,0.0,5.0,76.0,180.0,28.0,1.0
161568,-0.441015,-1.14022,-1.141127,-0.080867,0.173977,0.187313,0.0,5.0,76.0,180.0,28.0,1.0
161569,-0.434394,-1.151741,-1.139267,-0.032536,0.016488,0.289817,0.0,5.0,76.0,180.0,28.0,1.0
161570,-0.427845,-1.17163,-1.135861,-0.035891,-0.178679,0.33907,0.0,5.0,76.0,180.0,28.0,1.0
161571,-0.427782,-1.197207,-1.133471,-0.08926,-0.39779,0.31602800000000003,0.0,5.0,76.0,180.0,28.0,1.0
161572,-0.44192,-1.224152,-1.1431209999999998,-0.106168,-0.5638850000000001,0.213714,0.0,5.0,76.0,180.0,28.0,1.0
161573,-0.469991,-1.251758,-1.172711,-0.055162,-0.618117,0.091725,0.0,5.0,76.0,180.0,28.0,1.0
161574,-0.5067119999999999,-1.279605,-1.21853,0.0265,-0.51468,0.034122,0.0,5.0,76.0,180.0,28.0,1.0
161575,-0.568513,-1.30458,-1.285953,0.125443,-0.325308,0.0424,0.0,5.0,76.0,180.0,28.0,1.0
161576,-0.6470859999999999,-1.322724,-1.360812,0.152579,-0.053372,0.08529400000000001,0.0,5.0,76.0,180.0,28.0,1.0
161577,-0.7153579999999999,-1.330434,-1.418388,0.121841,0.010392,0.068099,0.0,5.0,76.0,180.0,28.0,1.0
161578,-0.760734,-1.333718,-1.450617,-0.048760000000000005,0.035738,0.018223,0.0,5.0,76.0,180.0,28.0,1.0
161579,-0.796908,-1.3419299999999998,-1.478559,-0.11276,-0.075914,-0.036222,0.0,5.0,76.0,180.0,28.0,1.0
161580,-0.838764,-1.357139,-1.52167,-0.14313800000000002,-0.149412,-0.077985,0.0,5.0,76.0,180.0,28.0,1.0
161581,-0.8812979999999999,-1.37203,-1.569543,-0.175999,-0.221385,-0.13784000000000002,0.0,5.0,76.0,180.0,28.0,1.0
161582,-0.929719,-1.3845610000000002,-1.620799,-0.170129,-0.211834,-0.061607,0.0,5.0,76.0,180.0,28.0,1.0
161583,-0.986711,-1.394886,-1.675242,-0.092672,-0.253031,-0.015475999999999997,0.0,5.0,76.0,180.0,28.0,1.0
161584,-1.043407,-1.4012870000000002,-1.722465,0.030783,-0.220806,-0.049859,0.0,5.0,76.0,180.0,28.0,1.0
161585,-1.101316,-1.405733,-1.766271,0.060747,-0.172825,-0.094951,0.0,5.0,76.0,180.0,28.0,1.0
161586,-1.175079,-1.412111,-1.824773,-0.023831,0.072211,-0.214305,0.0,5.0,76.0,180.0,28.0,1.0
161587,-1.272452,-1.420402,-1.901107,-0.167255,0.436444,-0.27924,0.0,5.0,76.0,180.0,28.0,1.0
161588,-1.393881,-1.428793,-2.001717,-0.181818,0.712672,0.1241,0.0,5.0,76.0,180.0,28.0,1.0
161589,-1.473078,-1.437299,-2.09135,-0.118818,0.500292,0.213407,0.0,5.0,76.0,180.0,28.0,1.0
161590,-1.476523,-1.442739,-2.113531,-0.18448,0.298807,-0.20995100000000005,0.0,5.0,76.0,180.0,28.0,1.0
161591,-1.465929,-1.441848,-2.102663,-0.13254200000000002,0.222795,0.05876,0.0,5.0,76.0,180.0,28.0,1.0
161592,-1.427247,-1.43596,-2.060964,-0.35635300000000003,0.645887,0.003632,0.0,5.0,76.0,180.0,28.0,1.0
161593,-1.415277,-1.42795,-2.039429,-0.08758400000000001,0.569481,-0.068622,0.0,5.0,76.0,180.0,28.0,1.0
161594,-1.382015,-1.425272,-2.025715,0.398338,0.297069,0.120774,0.0,5.0,76.0,180.0,28.0,1.0
161595,-1.342075,-1.429071,-2.006117,0.306089,0.166291,0.253759,0.0,5.0,76.0,180.0,28.0,1.0
161596,-1.311246,-1.431921,-1.98516,-0.002761,-0.152421,0.052944000000000005,0.0,5.0,76.0,180.0,28.0,1.0
161597,-1.313313,-1.43243,-1.989679,0.082226,-0.178675,0.140902,0.0,5.0,76.0,180.0,28.0,1.0
161598,-1.335127,-1.432195,-2.016586,0.145076,-0.056374,0.08796,0.0,5.0,76.0,180.0,28.0,1.0
161599,-1.3598709999999998,-1.431322,-2.0416380000000003,0.155437,-0.063333,-0.017943999999999998,0.0,5.0,76.0,180.0,28.0,1.0
161600,-1.371008,-1.429392,-2.049847,0.146304,-0.151869,-0.025565,0.0,5.0,76.0,180.0,28.0,1.0
161601,-1.37116,-1.427028,-2.048378,0.066234,-0.166578,-0.055151,0.0,5.0,76.0,180.0,28.0,1.0
161602,-1.367265,-1.424464,-2.045531,-0.083798,-0.179498,-0.054245,0.0,5.0,76.0,180.0,28.0,1.0
161603,-1.352286,-1.421152,-2.032667,-0.247912,-0.13706300000000002,-0.171349,0.0,5.0,76.0,180.0,28.0,1.0
161604,-1.3258450000000002,-1.415674,-2.006383,-0.248841,-0.154573,-0.111558,0.0,5.0,76.0,180.0,28.0,1.0
161605,-1.2849469999999998,-1.4079549999999998,-1.970071,-0.042623,-0.269836,-0.077174,0.0,5.0,76.0,180.0,28.0,1.0
161606,-1.247242,-1.400427,-1.944031,0.101713,-0.271045,0.031129,0.0,5.0,76.0,180.0,28.0,1.0
161607,-1.210149,-1.395202,-1.922407,0.174171,-0.255176,-0.016947,0.0,5.0,76.0,180.0,28.0,1.0
161608,-1.161586,-1.390702,-1.887025,0.17859,-0.15294000000000002,-0.041946,0.0,5.0,76.0,180.0,28.0,1.0
161609,-1.114188,-1.386099,-1.848926,0.15802,-0.095526,-0.013355,0.0,5.0,76.0,180.0,28.0,1.0
161610,-1.069194,-1.38077,-1.813094,0.177633,-0.118047,-0.075252,0.0,5.0,76.0,180.0,28.0,1.0
161611,-1.024974,-1.375331,-1.7787,0.18272,-0.140869,-0.088839,0.0,5.0,76.0,180.0,28.0,1.0
161612,-0.97023,-1.367551,-1.732795,0.112875,0.000533,-0.193197,0.0,5.0,76.0,180.0,28.0,1.0
161613,-0.8991180000000001,-1.355244,-1.67012,-0.009424,0.405222,-0.235044,0.0,5.0,76.0,180.0,28.0,1.0
161614,-0.796678,-1.335387,-1.5766639999999998,-0.053803,0.792855,-0.363874,0.0,5.0,76.0,180.0,28.0,1.0
161615,-0.6788069999999999,-1.299829,-1.456965,-0.169844,0.796604,-0.160748,0.0,5.0,76.0,180.0,28.0,1.0
161616,-0.58939,-1.252869,-1.35812,-0.25949,0.6299939999999999,0.077092,0.0,5.0,76.0,180.0,28.0,1.0
161617,-0.535782,-1.20946,-1.289528,-0.27021,0.413223,0.475897,0.0,5.0,76.0,180.0,28.0,1.0
161618,-0.507083,-1.176341,-1.240639,-0.26656,0.271206,0.5674899999999999,0.0,5.0,76.0,180.0,28.0,1.0
161619,-0.482808,-1.15261,-1.201913,-0.133271,0.104499,0.334118,0.0,5.0,76.0,180.0,28.0,1.0
161620,-0.456453,-1.134804,-1.169069,-0.074788,0.058636,0.199731,0.0,5.0,76.0,180.0,28.0,1.0
161621,-0.438205,-1.1239,-1.14951,0.053703,-0.034605000000000004,0.297441,0.0,5.0,76.0,180.0,28.0,1.0
161622,-0.433136,-1.119213,-1.146361,0.101585,-0.131493,0.325558,0.0,5.0,76.0,180.0,28.0,1.0
161623,-0.438677,-1.124358,-1.147752,0.083695,-0.17063699999999998,0.333448,0.0,5.0,76.0,180.0,28.0,1.0
161624,-0.449048,-1.142069,-1.147343,0.059032000000000015,-0.276027,0.366909,0.0,5.0,76.0,180.0,28.0,1.0
161625,-0.461599,-1.167072,-1.148302,-0.003154,-0.42322,0.357537,0.0,5.0,76.0,180.0,28.0,1.0
161626,-0.473452,-1.1930459999999998,-1.158052,-0.05104,-0.564873,0.271242,0.0,5.0,76.0,180.0,28.0,1.0
161627,-0.493293,-1.216972,-1.183573,-0.071407,-0.640081,0.174263,0.0,5.0,76.0,180.0,28.0,1.0
161628,-0.528579,-1.240669,-1.228166,-0.054897,-0.5522630000000001,0.154592,0.0,5.0,76.0,180.0,28.0,1.0
161629,-0.589485,-1.264791,-1.302086,-0.028577,-0.298592,0.162872,0.0,5.0,76.0,180.0,28.0,1.0
161630,-0.668308,-1.28541,-1.387623,-0.073895,0.355526,0.09679,0.0,5.0,76.0,180.0,28.0,1.0
161631,-0.7425579999999999,-1.303682,-1.459149,-0.073826,0.375109,0.016316999999999998,0.0,5.0,76.0,180.0,28.0,1.0
161632,-0.811272,-1.324828,-1.529933,-0.022399,0.243645,-0.11381199999999997,0.0,5.0,76.0,180.0,28.0,1.0
161633,-0.891352,-1.345374,-1.610244,0.148594,-0.226226,-0.345785,0.0,5.0,76.0,180.0,28.0,1.0
161634,-0.970663,-1.362021,-1.680632,0.139943,-0.238524,-0.272412,0.0,5.0,76.0,180.0,28.0,1.0
161635,-1.030887,-1.373016,-1.725271,0.121035,-0.207342,-0.194796,0.0,5.0,76.0,180.0,28.0,1.0
161636,-1.062182,-1.378054,-1.736711,-0.011506,-0.155891,-0.178142,0.0,5.0,76.0,180.0,28.0,1.0
161637,-1.072195,-1.380059,-1.725911,-0.035304,-0.102318,-0.252815,0.0,5.0,76.0,180.0,28.0,1.0
161638,-1.0907209999999998,-1.386118,-1.723493,-0.037959,0.007102,-0.289503,0.0,5.0,76.0,180.0,28.0,1.0
161639,-1.176293,-1.403183,-1.798633,-0.263878,0.8936379999999999,0.346655,0.0,5.0,76.0,180.0,28.0,1.0
161640,-1.338844,-1.429094,-1.964761,-0.234284,0.789091,0.436615,0.0,5.0,76.0,180.0,28.0,1.0
161641,-1.341333,-1.4425370000000002,-1.991194,-0.410584,0.164464,-0.466233,0.0,5.0,76.0,180.0,28.0,1.0
161642,-1.253226,-1.440381,-1.918223,-0.369724,0.033349000000000004,0.089987,0.0,5.0,76.0,180.0,28.0,1.0
161643,-1.246546,-1.429523,-1.917106,-0.188121,0.012084,0.392762,0.0,5.0,76.0,180.0,28.0,1.0
161644,-1.247674,-1.4144450000000002,-1.906138,-0.150596,0.513663,0.018457,0.0,5.0,76.0,180.0,28.0,1.0
161645,-1.307741,-1.400101,-1.930897,0.368093,0.720054,0.081775,0.0,5.0,76.0,180.0,28.0,1.0
161646,-1.359619,-1.40174,-1.987439,0.5483600000000001,0.4326060000000001,0.163174,0.0,5.0,76.0,180.0,28.0,1.0
161647,-1.359277,-1.4118389999999998,-2.015693,0.088013,0.115665,0.016577,0.0,5.0,76.0,180.0,28.0,1.0
161648,-1.35146,-1.418584,-2.023943,-0.11858599999999997,-0.106877,0.000786,0.0,5.0,76.0,180.0,28.0,1.0
161649,-1.373487,-1.419199,-2.042276,-0.108679,-0.209188,0.024439,0.0,5.0,76.0,180.0,28.0,1.0
161650,-1.394848,-1.4154520000000002,-2.05632,0.083828,-0.230192,0.057395,0.0,5.0,76.0,180.0,28.0,1.0
161651,-1.407343,-1.412331,-2.069951,0.121606,-0.004591,0.013344,0.0,5.0,76.0,180.0,28.0,1.0
161652,-1.400476,-1.409062,-2.06969,0.077444,0.08688799999999999,-0.06905599999999999,0.0,5.0,76.0,180.0,28.0,1.0
161653,-1.398394,-1.405514,-2.073485,0.003732,-0.075422,-0.176249,0.0,5.0,76.0,180.0,28.0,1.0
161654,-1.397897,-1.401759,-2.080547,-0.019765,-0.201842,-0.030893,0.0,5.0,76.0,180.0,28.0,1.0
161655,-1.384551,-1.396266,-2.076048,0.041169,-0.30861500000000003,-0.042925,0.0,5.0,76.0,180.0,28.0,1.0
161656,-1.357249,-1.387671,-2.05228,0.101063,-0.379657,-0.102405,0.0,5.0,76.0,180.0,28.0,1.0
161657,-1.334248,-1.378496,-2.037904,0.169181,-0.264664,-0.064884,0.0,5.0,76.0,180.0,28.0,1.0
161658,-1.308978,-1.369398,-2.028519,0.239812,-0.051626,-0.072375,0.0,5.0,76.0,180.0,28.0,1.0
161659,-1.275652,-1.360362,-2.005625,0.21695,0.028728,-0.177223,0.0,5.0,76.0,180.0,28.0,1.0
161660,-1.234905,-1.351689,-1.965559,0.217945,-0.26826700000000003,-0.089116,0.0,5.0,76.0,180.0,28.0,1.0
161661,-1.187581,-1.34328,-1.91966,0.14602,-0.441088,0.033517,0.0,5.0,76.0,180.0,28.0,1.0
161662,-1.142166,-1.333365,-1.875922,0.134625,-0.393393,0.049363,0.0,5.0,76.0,180.0,28.0,1.0
161663,-1.090584,-1.3218219999999998,-1.829579,0.166901,-0.197071,-0.12168,0.0,5.0,76.0,180.0,28.0,1.0
161664,-1.034687,-1.307462,-1.773995,0.16151,-0.075574,-0.193373,0.0,5.0,76.0,180.0,28.0,1.0
161665,-0.961033,-1.284852,-1.693815,0.041749,0.318635,-0.21250300000000005,0.0,5.0,76.0,180.0,28.0,1.0
161666,-0.875519,-1.251148,-1.594507,-0.14798599999999998,0.536509,-0.381674,0.0,5.0,76.0,180.0,28.0,1.0
161667,-0.809337,-1.211602,-1.507212,-0.11493699999999997,0.6484300000000001,0.042307,0.0,5.0,76.0,180.0,28.0,1.0
161668,-0.759455,-1.176883,-1.438748,0.047181,0.619555,0.228329,0.0,5.0,76.0,180.0,28.0,1.0
161669,-0.7256670000000001,-1.152986,-1.385426,0.071028,0.269156,0.447568,0.0,5.0,76.0,180.0,28.0,1.0
161670,-0.713386,-1.143792,-1.347126,0.063033,0.189872,0.433053,0.0,5.0,76.0,180.0,28.0,1.0
161671,-0.7060890000000001,-1.148518,-1.319125,0.004175,0.145887,0.334196,0.0,5.0,76.0,180.0,28.0,1.0
161672,-0.700404,-1.156248,-1.2956,-0.05875,0.260681,0.067287,0.0,5.0,76.0,180.0,28.0,1.0
161673,-0.697024,-1.162719,-1.282361,-0.096651,0.244117,0.047959,0.0,5.0,76.0,180.0,28.0,1.0
161674,-0.7016020000000001,-1.171556,-1.276528,-0.099865,0.236602,0.07079400000000001,0.0,5.0,76.0,180.0,28.0,1.0
161675,-0.712625,-1.185532,-1.273734,0.003896,0.06075800000000001,0.21777,0.0,5.0,76.0,180.0,28.0,1.0
161676,-0.727699,-1.203499,-1.270926,-0.013748,0.015688999999999998,0.177676,0.0,5.0,76.0,180.0,28.0,1.0
161677,-0.742831,-1.224326,-1.268576,-0.03659,-0.027903,0.13156600000000002,0.0,5.0,76.0,180.0,28.0,1.0
161678,-0.752131,-1.24694,-1.269042,-0.096517,-0.232744,-0.004187,0.0,5.0,76.0,180.0,28.0,1.0
161679,-0.7670170000000001,-1.267878,-1.277372,-0.053561,-0.272585,-0.01854,0.0,5.0,76.0,180.0,28.0,1.0
161680,-0.797148,-1.283002,-1.295001,-0.018321,-0.306178,-4.2e-05,0.0,5.0,76.0,180.0,28.0,1.0
161681,-0.831599,-1.294037,-1.313732,0.08656,-0.279695,0.00893,0.0,5.0,76.0,180.0,28.0,1.0
161682,-0.8704649999999999,-1.302744,-1.331155,0.107792,-0.240198,0.007793,0.0,5.0,76.0,180.0,28.0,1.0
161683,-0.904413,-1.308729,-1.339773,0.069957,-0.081152,-0.00635,0.0,5.0,76.0,180.0,28.0,1.0
161684,-0.922615,-1.313758,-1.34245,0.007714,-0.053253,-0.203768,0.0,5.0,76.0,180.0,28.0,1.0
161685,-0.920407,-1.3173549999999998,-1.331192,-0.012103,-0.080604,-0.311293,0.0,5.0,76.0,180.0,28.0,1.0
161686,-0.905621,-1.318194,-1.29998,0.025961,-0.134891,-0.372429,0.0,5.0,76.0,180.0,28.0,1.0
161687,-0.8782540000000001,-1.316648,-1.24694,0.069449,-0.096525,-0.258027,0.0,5.0,76.0,180.0,28.0,1.0
161688,-0.8394469999999999,-1.313447,-1.179,0.08501900000000001,-0.083691,-0.203056,0.0,5.0,76.0,180.0,28.0,1.0
161689,-0.804054,-1.31152,-1.112365,0.038235000000000005,-0.15847,-0.012641,0.0,5.0,76.0,180.0,28.0,1.0
161690,-0.777179,-1.309661,-1.05479,0.043224,-0.242098,6.7e-05,0.0,5.0,76.0,180.0,28.0,1.0
161691,-0.760744,-1.308818,-1.012723,0.042628,-0.265181,-0.030893,0.0,5.0,76.0,180.0,28.0,1.0
161692,-0.7583270000000001,-1.311056,-0.99183,-0.056678999999999986,-0.255046,-0.181522,0.0,5.0,76.0,180.0,28.0,1.0
161693,-0.771257,-1.317605,-0.992453,-0.115096,-0.185052,-0.272959,0.0,5.0,76.0,180.0,28.0,1.0
161694,-0.806048,-1.329122,-1.018854,-0.129799,-0.08054299999999999,-0.29935500000000004,0.0,5.0,76.0,180.0,28.0,1.0
161695,-0.8535959999999999,-1.339445,-1.063107,-0.199294,0.063828,-0.094345,0.0,5.0,76.0,180.0,28.0,1.0
161696,-0.935343,-1.341317,-1.1561549999999998,-0.246574,0.332764,0.444175,0.0,5.0,76.0,180.0,28.0,1.0
161697,-1.056399,-1.335195,-1.309004,-0.7033689999999999,1.028373,1.141663,0.0,5.0,76.0,180.0,28.0,1.0
161698,-1.142107,-1.340253,-1.411701,-0.089524,0.626525,0.702978,0.0,5.0,76.0,180.0,28.0,1.0
161699,-1.310668,-1.343542,-1.568933,0.236911,0.212723,-0.041514,0.0,5.0,76.0,180.0,28.0,1.0
161700,-1.447292,-1.337618,-1.696058,0.324807,0.532037,0.402211,0.0,5.0,76.0,180.0,28.0,1.0
161701,-1.503639,-1.335557,-1.765194,0.336835,0.522933,0.628234,0.0,5.0,76.0,180.0,28.0,1.0
161702,-1.62604,-1.342213,-1.880173,0.332106,0.359553,0.502825,0.0,5.0,76.0,180.0,28.0,1.0
161703,-1.7690130000000002,-1.346392,-2.011037,0.12083499999999997,0.146579,0.109094,0.0,5.0,76.0,180.0,28.0,1.0
161704,-1.865322,-1.352519,-2.122815,-0.207662,-0.032089,0.053298000000000005,0.0,5.0,76.0,180.0,28.0,1.0
161705,-1.947146,-1.356083,-2.234378,-0.496683,-0.111452,-0.056995,0.0,5.0,76.0,180.0,28.0,1.0
161706,-2.019127,-1.349648,-2.320632,-0.318286,-0.20256,-0.082096,0.0,5.0,76.0,180.0,28.0,1.0
161707,-2.061332,-1.33754,-2.362168,0.064856,-0.112354,-0.04264,0.0,5.0,76.0,180.0,28.0,1.0
161708,-2.08283,-1.322938,-2.386591,0.289508,-0.055880999999999986,0.031686,0.0,5.0,76.0,180.0,28.0,1.0
161709,-2.104764,-1.30806,-2.417318,0.370868,-0.104446,0.012969,0.0,5.0,76.0,180.0,28.0,1.0
161710,-2.125803,-1.293999,-2.4473700000000003,0.33617600000000003,-0.144171,-0.043997,0.0,5.0,76.0,180.0,28.0,1.0
161711,-2.145713,-1.280394,-2.474407,0.248524,-0.106353,-0.084611,0.0,5.0,76.0,180.0,28.0,1.0
161712,-2.169898,-1.265479,-2.503663,0.179056,-0.054856,-0.066373,0.0,5.0,76.0,180.0,28.0,1.0
161713,-2.195616,-1.248056,-2.532181,0.140678,-0.052206,-0.086148,0.0,5.0,76.0,180.0,28.0,1.0
161714,-2.217323,-1.228118,-2.559075,0.135107,0.010855,-0.19206,0.0,5.0,76.0,180.0,28.0,1.0
161715,-2.228585,-1.207564,-2.5792900000000003,0.180194,0.045899,-0.238506,0.0,5.0,76.0,180.0,28.0,1.0
161716,-2.231574,-1.188628,-2.590625,0.140398,0.130705,-0.209382,0.0,5.0,76.0,180.0,28.0,1.0
161717,-2.229911,-1.173394,-2.593861,-0.001219,0.24889,-0.332147,0.0,5.0,76.0,180.0,28.0,1.0
161718,-2.22807,-1.160276,-2.593692,-0.00015900000000000002,0.269809,-0.299906,0.0,5.0,76.0,180.0,28.0,1.0
161719,-2.207906,-1.149025,-2.579179,0.23559,0.283008,-0.338152,0.0,5.0,76.0,180.0,28.0,1.0
161720,-2.1807220000000003,-1.140595,-2.550159,0.271818,0.271141,-0.428853,0.0,5.0,76.0,180.0,28.0,1.0
161721,-2.149121,-1.13513,-2.50956,0.271478,0.242688,-0.459952,0.0,5.0,76.0,180.0,28.0,1.0
161722,-2.099548,-1.132363,-2.452892,0.189332,0.372231,-0.31971900000000003,0.0,5.0,76.0,180.0,28.0,1.0
161723,-2.018945,-1.13132,-2.36346,0.07450599999999999,0.5548489999999999,-0.351124,0.0,5.0,76.0,180.0,28.0,1.0
161724,-1.915502,-1.13398,-2.240765,0.060279,0.612833,-0.261789,0.0,5.0,76.0,180.0,28.0,1.0
161725,-1.793014,-1.142721,-2.093443,0.487233,0.548562,0.145361,0.0,5.0,76.0,180.0,28.0,1.0
161726,-1.6679400000000002,-1.155433,-1.934493,0.412284,0.365716,0.257357,0.0,5.0,76.0,180.0,28.0,1.0
161727,-1.538116,-1.167899,-1.764202,0.299284,0.400063,0.303918,0.0,5.0,76.0,180.0,28.0,1.0
161728,-1.403188,-1.1742,-1.587935,0.05764,0.415494,0.318452,0.0,5.0,76.0,180.0,28.0,1.0
161729,-1.266019,-1.170905,-1.416057,-0.007070999999999998,0.232141,0.272386,0.0,5.0,76.0,180.0,28.0,1.0
161730,-1.141733,-1.16195,-1.265256,0.055167,0.177009,0.327493,0.0,5.0,76.0,180.0,28.0,1.0
161731,-1.034415,-1.156289,-1.143907,0.13709200000000002,0.183882,0.346933,0.0,5.0,76.0,180.0,28.0,1.0
161732,-0.953842,-1.155756,-1.047234,0.42832,0.180923,0.458317,0.0,5.0,76.0,180.0,28.0,1.0
161733,-0.8895770000000001,-1.150664,-0.943649,0.457582,0.14739000000000002,0.5285489999999999,0.0,5.0,76.0,180.0,28.0,1.0
161734,-0.832132,-1.143686,-0.8388770000000001,0.456659,0.092504,0.585863,0.0,5.0,76.0,180.0,28.0,1.0
161735,-0.7860699999999999,-1.135953,-0.732925,0.46978,0.068512,0.598729,0.0,5.0,76.0,180.0,28.0,1.0
161736,-0.758165,-1.128984,-0.622667,0.430954,0.046659,0.6586310000000001,0.0,5.0,76.0,180.0,28.0,1.0
161737,-0.74074,-1.12535,-0.511323,0.368679,0.024797,0.740867,0.0,5.0,76.0,180.0,28.0,1.0
161738,-0.7309770000000001,-1.120854,-0.400488,0.199444,-0.06606000000000001,0.562122,0.0,5.0,76.0,180.0,28.0,1.0
161739,-0.728923,-1.119108,-0.298296,0.091655,-0.13282,0.5321520000000001,0.0,5.0,76.0,180.0,28.0,1.0
161740,-0.730376,-1.122797,-0.209121,-0.028176,-0.215555,0.485187,0.0,5.0,76.0,180.0,28.0,1.0
161741,-0.731246,-1.130516,-0.13179200000000002,-0.052249,-0.197235,0.47964,0.0,5.0,76.0,180.0,28.0,1.0
161742,-0.72937,-1.141271,-0.065969,-0.069599,-0.171676,0.450593,0.0,5.0,76.0,180.0,28.0,1.0
161743,-0.72613,-1.154459,-0.011519,-0.13527899999999998,-0.032176,0.44825,0.0,5.0,76.0,180.0,28.0,1.0
161744,-0.725058,-1.168835,0.038536,-0.216967,-0.086525,0.380773,0.0,5.0,76.0,180.0,28.0,1.0
161745,-0.721517,-1.183237,0.093908,-0.19923,-0.14824600000000002,0.254338,0.0,5.0,76.0,180.0,28.0,1.0
161746,-0.712359,-1.198083,0.150569,0.001049,-0.152687,-0.116844,0.0,5.0,76.0,180.0,28.0,1.0
161747,-0.694887,-1.212589,0.205746,0.139042,-0.092777,-0.32861,0.0,5.0,76.0,180.0,28.0,1.0
161748,-0.6683,-1.22394,0.25915,0.119466,-0.029466000000000006,-0.421096,0.0,5.0,76.0,180.0,28.0,1.0
161749,-0.650981,-1.232009,0.299083,0.108758,0.387423,-0.380138,0.0,5.0,76.0,180.0,28.0,1.0
161750,-0.648238,-1.23699,0.32748,0.250549,0.438041,-0.250659,0.0,5.0,76.0,180.0,28.0,1.0
161751,-0.645057,-1.239541,0.366405,0.284965,0.273512,-0.149847,0.0,5.0,76.0,180.0,28.0,1.0
161752,-0.631137,-1.238202,0.4229770000000001,0.201204,-0.072686,-0.107295,0.0,5.0,76.0,180.0,28.0,1.0
161753,-0.613805,-1.237878,0.478475,0.219854,-0.407861,-0.251908,0.0,5.0,76.0,180.0,28.0,1.0
161754,-0.614563,-1.245126,0.513135,0.320594,-0.426044,-0.093485,0.0,5.0,76.0,180.0,28.0,1.0
161755,-0.631004,-1.260278,0.51946,0.080108,-0.194256,0.8318129999999999,0.0,5.0,76.0,180.0,28.0,1.0
161756,-0.683377,-1.287916,0.45089,-0.583415,0.521953,0.982968,0.0,5.0,76.0,180.0,28.0,1.0
161757,-0.780405,-1.308928,0.298383,-1.1275959999999998,1.810749,-0.949835,0.0,5.0,76.0,180.0,28.0,1.0
161758,-0.77564,-1.284717,0.265208,-0.481692,0.377038,0.176209,0.0,5.0,76.0,180.0,28.0,1.0
161759,-0.8229049999999999,-1.250256,0.266953,0.164481,-0.89894,1.34243,0.0,5.0,76.0,180.0,28.0,1.0
161760,-0.925377,-1.263267,0.190658,0.371544,-0.798192,0.675971,0.0,5.0,76.0,180.0,28.0,1.0
161761,-1.058449,-1.297193,0.060639,0.5056579999999999,-0.218159,0.457506,0.0,5.0,76.0,180.0,28.0,1.0
161762,-1.1487459999999998,-1.317555,-0.071407,0.15400899999999998,0.361652,0.518787,0.0,5.0,76.0,180.0,28.0,1.0
161763,-1.247519,-1.331147,-0.22359,0.006579000000000001,0.568832,0.31117399999999995,0.0,5.0,76.0,180.0,28.0,1.0
161764,-1.296678,-1.326949,-0.318616,0.006993000000000001,0.7419399999999999,0.042949,0.0,5.0,76.0,180.0,28.0,1.0
161765,-1.3300459999999998,-1.313986,-0.338693,0.115542,-0.203365,0.06952699999999999,0.0,5.0,76.0,180.0,28.0,1.0
161766,-1.429225,-1.302848,-0.36549,0.17899500000000002,-0.260047,0.363952,0.0,5.0,76.0,180.0,28.0,1.0
161767,-1.537459,-1.301573,-0.427364,0.159317,-0.259968,0.502868,0.0,5.0,76.0,180.0,28.0,1.0
161768,-1.627324,-1.302156,-0.521195,0.062102,0.030496,-0.017695,0.0,5.0,76.0,180.0,28.0,1.0
161769,-1.710145,-1.29748,-0.601748,0.107766,0.096689,-0.045621,0.0,5.0,76.0,180.0,28.0,1.0
161770,-1.788268,-1.288763,-0.669471,0.215864,0.044986,-0.046859,0.0,5.0,76.0,180.0,28.0,1.0
161771,-1.85674,-1.278732,-0.73016,0.158552,0.003835,0.033494,0.0,5.0,76.0,180.0,28.0,1.0
161772,-1.919847,-1.269357,-0.789211,0.11328599999999997,0.021423,0.042879,0.0,5.0,76.0,180.0,28.0,1.0
161773,-1.980851,-1.258788,-0.84603,0.07635800000000001,0.015948,0.061045,0.0,5.0,76.0,180.0,28.0,1.0
161774,-2.033258,-1.244766,-0.8933760000000001,0.087201,0.032705,-0.054017,0.0,5.0,76.0,180.0,28.0,1.0
161775,-2.074985,-1.2284469999999998,-0.930943,0.13285,0.058016,-0.095086,0.0,5.0,76.0,180.0,28.0,1.0
161776,-2.111972,-1.211463,-0.962677,0.171175,0.102321,-0.113205,0.0,5.0,76.0,180.0,28.0,1.0
161777,-2.138789,-1.194646,-0.985842,0.23118200000000005,0.195403,-0.187143,0.0,5.0,76.0,180.0,28.0,1.0
161778,-2.153323,-1.179227,-1.001368,0.232007,0.237066,-0.150263,0.0,5.0,76.0,180.0,28.0,1.0
161779,-2.154951,-1.167473,-1.006814,0.180388,0.23957,-0.169836,0.0,5.0,76.0,180.0,28.0,1.0
161780,-2.146872,-1.157429,-1.00131,0.050376,0.14131,-0.37501,0.0,5.0,76.0,180.0,28.0,1.0
161781,-2.134326,-1.151725,-0.991006,-0.009343,0.039063,-0.419254,0.0,5.0,76.0,180.0,28.0,1.0
161782,-2.111875,-1.148823,-0.967512,0.13035,0.112284,-0.271851,0.0,5.0,76.0,180.0,28.0,1.0
161783,-2.078895,-1.145543,-0.923921,0.325366,0.166733,-0.249836,0.0,5.0,76.0,180.0,28.0,1.0
161784,-2.038222,-1.143378,-0.867943,0.341656,0.371547,-0.313662,0.0,5.0,76.0,180.0,28.0,1.0
161785,-1.978875,-1.144386,-0.7913279999999999,0.200408,0.469137,-0.371359,0.0,5.0,76.0,180.0,28.0,1.0
161786,-1.8897,-1.14824,-0.67966,0.180106,0.365971,-0.334073,0.0,5.0,76.0,180.0,28.0,1.0
161787,-1.770817,-1.15301,-0.532312,0.237533,0.268063,-0.279602,0.0,5.0,76.0,180.0,28.0,1.0
161788,-1.640522,-1.1584370000000002,-0.366393,0.581129,0.360617,0.390827,0.0,5.0,76.0,180.0,28.0,1.0
161789,-1.527289,-1.166368,-0.20620500000000005,0.521993,0.318923,0.6392760000000001,0.0,5.0,76.0,180.0,28.0,1.0
161790,-1.422675,-1.170996,-0.055853,0.272299,0.26965700000000004,0.56922,0.0,5.0,76.0,180.0,28.0,1.0
161791,-1.306941,-1.176348,0.090545,-0.000676,0.350107,0.204104,0.0,5.0,76.0,180.0,28.0,1.0
161792,-1.198114,-1.178127,0.219561,0.021076,0.29814,0.239865,0.0,5.0,76.0,180.0,28.0,1.0
161793,-1.097197,-1.17834,0.332897,0.205217,0.231026,0.35401,0.0,5.0,76.0,180.0,28.0,1.0
161794,-1.025152,-1.184439,0.431863,0.209736,0.11575,0.4278020000000001,0.0,5.0,76.0,180.0,28.0,1.0
161795,-0.956951,-1.193181,0.531555,0.227512,0.025501,0.408705,0.0,5.0,76.0,180.0,28.0,1.0
161796,-0.884597,-1.20039,0.635328,0.223133,-0.12969,0.45138,0.0,5.0,76.0,180.0,28.0,1.0
161797,-0.825983,-1.205682,0.73258,0.253987,-0.073014,0.476664,0.0,5.0,76.0,180.0,28.0,1.0
161798,-0.786262,-1.207858,0.829421,0.271965,-0.032087,0.473055,0.0,5.0,76.0,180.0,28.0,1.0
161799,-0.764409,-1.209717,0.918634,0.207513,-0.07304400000000001,0.453807,0.0,5.0,76.0,180.0,28.0,1.0
161800,-0.758163,-1.214051,0.994373,0.055985,-0.168453,0.4304560000000001,0.0,5.0,76.0,180.0,28.0,1.0
161801,-0.766521,-1.223318,1.050825,-0.14515799999999998,-0.224521,0.416071,0.0,5.0,76.0,180.0,28.0,1.0
161802,-0.784666,-1.236645,1.088913,-0.281794,-0.242266,0.448923,0.0,5.0,76.0,180.0,28.0,1.0
161803,-0.8092229999999999,-1.248189,1.115398,-0.306322,-0.209154,0.4173270000000001,0.0,5.0,76.0,180.0,28.0,1.0
161804,-0.8419620000000001,-1.260234,1.12827,-0.167809,-0.111464,0.274191,0.0,5.0,76.0,180.0,28.0,1.0
161805,-0.883166,-1.275622,1.127822,-0.082926,-0.037699,0.14143,0.0,5.0,76.0,180.0,28.0,1.0
161806,-0.922004,-1.2913940000000002,1.128977,-0.093596,0.032188,-0.056189,0.0,5.0,76.0,180.0,28.0,1.0
161807,-0.960557,-1.305638,1.1335540000000002,-0.037516,0.108161,-0.215024,0.0,5.0,76.0,180.0,28.0,1.0
161808,-0.988577,-1.318936,1.141572,0.011501,0.137827,-0.318105,0.0,5.0,76.0,180.0,28.0,1.0
161809,-0.991867,-1.330901,1.160497,0.167901,0.142147,-0.47309,0.0,5.0,76.0,180.0,28.0,1.0
161810,-0.980877,-1.3392700000000002,1.190179,0.14015,0.09225,-0.258674,0.0,5.0,76.0,180.0,28.0,1.0
161811,-0.95036,-1.344557,1.238944,0.11527,0.03618,-0.17543399999999998,0.0,5.0,76.0,180.0,28.0,1.0
161812,-0.905927,-1.348394,1.306271,0.192505,-0.297224,0.4115180000000001,0.0,5.0,76.0,180.0,28.0,1.0
161813,-0.8789030000000001,-1.357349,1.342863,0.06498,-0.359692,1.007671,0.0,5.0,76.0,180.0,28.0,1.0
161814,-0.95025,-1.374938,1.252347,-0.578793,0.07885700000000001,0.766874,0.0,5.0,76.0,180.0,28.0,1.0
161815,-1.065304,-1.388964,1.102226,-0.6823,0.290931,0.281869,0.0,5.0,76.0,180.0,28.0,1.0
161816,-1.076947,-1.3785690000000002,1.0998709999999998,-0.103265,0.021959,0.369184,0.0,5.0,76.0,180.0,28.0,1.0
161817,-1.113102,-1.348018,1.120147,0.019417,-0.203177,1.121786,0.0,5.0,76.0,180.0,28.0,1.0
161818,-1.183895,-1.335984,1.079646,0.222104,-0.203408,1.156716,0.0,5.0,76.0,180.0,28.0,1.0
161819,-1.23603,-1.328302,1.038561,0.188545,0.133582,-0.052449,0.0,5.0,76.0,180.0,28.0,1.0
161820,-1.298347,-1.32531,0.990956,0.27432,0.22778,0.037984,0.0,5.0,76.0,180.0,28.0,1.0
161821,-1.364324,-1.330718,0.927176,0.329243,0.296579,0.06963,0.0,5.0,76.0,180.0,28.0,1.0
161822,-1.428369,-1.3404280000000002,0.8656950000000001,0.152187,-0.029506,-0.073138,0.0,5.0,76.0,180.0,28.0,1.0
161823,-1.483018,-1.349117,0.8211860000000001,0.102259,-0.115498,-0.12735,0.0,5.0,76.0,180.0,28.0,1.0
161824,-1.525923,-1.353765,0.794755,0.051202,-0.16871,-0.160691,0.0,5.0,76.0,180.0,28.0,1.0
161825,-1.546777,-1.355694,0.7876340000000001,0.021716,-0.028438,-0.195436,0.0,5.0,76.0,180.0,28.0,1.0
161826,-1.5430549999999998,-1.355394,0.800178,0.041933,0.006996,-0.214608,0.0,5.0,76.0,180.0,28.0,1.0
161827,-1.5396459999999998,-1.355463,0.807044,0.079457,0.003319,-0.209258,0.0,5.0,76.0,180.0,28.0,1.0
161828,-1.543288,-1.354961,0.807268,0.138533,-0.112403,-0.138962,0.0,5.0,76.0,180.0,28.0,1.0
161829,-1.549593,-1.353648,0.805403,0.155458,-0.12239,-0.119792,0.0,5.0,76.0,180.0,28.0,1.0
161830,-1.549425,-1.352614,0.8086399999999999,0.059803,-0.060109,-0.138487,0.0,5.0,76.0,180.0,28.0,1.0
161831,-1.532182,-1.3510879999999998,0.833816,0.104424,-0.01156,-0.230937,0.0,5.0,76.0,180.0,28.0,1.0
161832,-1.501709,-1.347934,0.873172,0.168186,-0.011493,-0.192752,0.0,5.0,76.0,180.0,28.0,1.0
161833,-1.454548,-1.345549,0.919174,0.06411,-0.181968,-0.102791,0.0,5.0,76.0,180.0,28.0,1.0
161834,-1.399756,-1.3424969999999998,0.969598,-0.021091,-0.198128,-0.18855,0.0,5.0,76.0,180.0,28.0,1.0
161835,-1.327826,-1.33696,1.036832,-0.044822,-0.176642,-0.155198,0.0,5.0,76.0,180.0,28.0,1.0
161836,-1.264442,-1.33129,1.0901040000000002,0.012757,-0.239033,0.12980799999999998,0.0,5.0,76.0,180.0,28.0,1.0
161837,-1.1988219999999998,-1.326048,1.137742,0.109825,-0.156432,0.036027,0.0,5.0,76.0,180.0,28.0,1.0
161838,-1.135038,-1.32055,1.179412,0.130894,-0.07721900000000001,-0.038594,0.0,5.0,76.0,180.0,28.0,1.0
161839,-1.079511,-1.317102,1.209913,0.180198,-0.046162,0.020246,0.0,5.0,76.0,180.0,28.0,1.0
161840,-1.029121,-1.310603,1.243565,0.224125,-0.083207,-0.088152,0.0,5.0,76.0,180.0,28.0,1.0
161841,-0.969883,-1.298376,1.294264,0.247971,0.106397,-0.177995,0.0,5.0,76.0,180.0,28.0,1.0
161842,-0.8962450000000001,-1.281208,1.364188,0.295983,0.355619,-0.145598,0.0,5.0,76.0,180.0,28.0,1.0
161843,-0.803723,-1.254203,1.460867,0.190391,0.612794,-0.34911,0.0,5.0,76.0,180.0,28.0,1.0
161844,-0.720535,-1.216233,1.569995,0.07172200000000001,0.8419260000000001,-0.038957,0.0,5.0,76.0,180.0,28.0,1.0
161845,-0.667905,-1.173375,1.6607490000000005,0.060427,0.612392,0.279847,0.0,5.0,76.0,180.0,28.0,1.0
161846,-0.638771,-1.135135,1.732918,-0.077823,0.158274,0.491045,0.0,5.0,76.0,180.0,28.0,1.0
161847,-0.613392,-1.113234,1.7912709999999998,-0.238735,-0.199775,0.444595,0.0,5.0,76.0,180.0,28.0,1.0
161848,-0.596745,-1.104594,1.831027,-0.31966,-0.218843,0.201163,0.0,5.0,76.0,180.0,28.0,1.0
161849,-0.5886939999999999,-1.106085,1.847892,-0.222189,0.127152,0.140324,0.0,5.0,76.0,180.0,28.0,1.0
161850,-0.583779,-1.118294,1.849068,-0.105517,0.129147,0.227257,0.0,5.0,76.0,180.0,28.0,1.0
161851,-0.583016,-1.13609,1.844548,-0.05721,-0.035793,0.297366,0.0,5.0,76.0,180.0,28.0,1.0
161852,-0.58772,-1.15823,1.838796,-0.039147,-0.30382,0.346857,0.0,5.0,76.0,180.0,28.0,1.0
161853,-0.6036779999999999,-1.1819959999999998,1.827277,-0.03933,-0.423503,0.328623,0.0,5.0,76.0,180.0,28.0,1.0
161854,-0.6328010000000001,-1.206374,1.802362,0.021733,-0.569797,0.24326,0.0,5.0,76.0,180.0,28.0,1.0
161855,-0.677408,-1.233057,1.755179,0.032611,-0.496469,0.208116,0.0,5.0,76.0,180.0,28.0,1.0
161856,-0.736614,-1.2590629999999998,1.687218,0.009466,-0.423666,0.17513299999999998,0.0,5.0,76.0,180.0,28.0,1.0
161857,-0.815367,-1.281153,1.597186,-0.005979,-0.348696,0.154328,0.0,5.0,76.0,180.0,28.0,1.0
161858,-0.915968,-1.29759,1.490536,0.023346,-0.011556,0.028769,0.0,5.0,76.0,180.0,28.0,1.0
161859,-1.031342,-1.3085440000000002,1.375944,0.031774000000000004,-0.014454,-0.002385,0.0,5.0,76.0,180.0,28.0,1.0
161860,-1.141405,-1.315325,1.2726030000000002,0.080933,0.222412,-0.35144200000000003,0.0,5.0,76.0,180.0,28.0,1.0
161861,-1.232429,-1.320527,1.192923,0.149412,0.165767,-0.48985,0.0,5.0,76.0,180.0,28.0,1.0
161862,-1.298697,-1.327456,1.130701,0.064907,0.128018,-0.504131,0.0,5.0,76.0,180.0,28.0,1.0
161863,-1.33181,-1.338909,1.083241,-0.043944,0.11718900000000003,-0.509495,0.0,5.0,76.0,180.0,28.0,1.0
161864,-1.365084,-1.352538,1.037885,-0.100509,-0.07344400000000001,-0.353544,0.0,5.0,76.0,180.0,28.0,1.0
161865,-1.413116,-1.363438,0.98676,-0.036416,-0.122118,-0.221721,0.0,5.0,76.0,180.0,28.0,1.0
161866,-1.464422,-1.371532,0.92648,-0.038592,-0.09209,-0.115111,0.0,5.0,76.0,180.0,28.0,1.0
161867,-1.544863,-1.374757,0.835095,0.032419,0.472325,0.520644,0.0,5.0,76.0,180.0,28.0,1.0
161868,-1.652218,-1.374008,0.736325,0.086128,0.376249,0.265412,0.0,5.0,76.0,180.0,28.0,1.0
161869,-1.7077950000000002,-1.369694,0.7248439999999999,0.011101,0.580914,-0.577659,0.0,5.0,76.0,180.0,28.0,1.0
161870,-1.665423,-1.36699,0.779192,0.087072,0.354147,0.137206,0.0,5.0,76.0,180.0,28.0,1.0
161871,-1.652948,-1.368083,0.772545,-0.115218,0.034209,0.426567,0.0,5.0,76.0,180.0,28.0,1.0
161872,-1.677699,-1.371414,0.741054,-0.644935,0.341481,-0.15926700000000002,0.0,5.0,76.0,180.0,28.0,1.0
161873,-1.7423110000000002,-1.367355,0.690656,-0.131912,0.386605,-0.110251,0.0,5.0,76.0,180.0,28.0,1.0
161874,-1.766309,-1.360524,0.66265,0.38571,0.280922,0.060792,0.0,5.0,76.0,180.0,28.0,1.0
161875,-1.792632,-1.360005,0.621482,0.369457,-0.081458,0.019327,0.0,5.0,76.0,180.0,28.0,1.0
161876,-1.815406,-1.363437,0.587925,0.209488,-0.192521,-0.166945,0.0,5.0,76.0,180.0,28.0,1.0
161877,-1.834572,-1.366436,0.568699,0.138614,-0.221134,-0.229674,0.0,5.0,76.0,180.0,28.0,1.0
161878,-1.847448,-1.368175,0.559113,0.131442,-0.306813,-0.30101700000000003,0.0,5.0,76.0,180.0,28.0,1.0
161879,-1.839978,-1.369712,0.5627310000000001,0.164772,-0.320457,-0.30454000000000003,0.0,5.0,76.0,180.0,28.0,1.0
161880,-1.807563,-1.371459,0.584222,0.153222,-0.265965,-0.372884,0.0,5.0,76.0,180.0,28.0,1.0
161881,-1.760902,-1.372687,0.624818,-0.170223,-0.152697,-0.172543,0.0,5.0,76.0,180.0,28.0,1.0
161882,-1.6888720000000002,-1.372551,0.692768,-0.135475,-0.216376,-0.101901,0.0,5.0,76.0,180.0,28.0,1.0
161883,-1.583186,-1.371952,0.7809619999999999,0.015030000000000003,-0.316309,-0.25913,0.0,5.0,76.0,180.0,28.0,1.0
161884,-1.465919,-1.371358,0.8728440000000001,0.047346,-0.191558,-0.107392,0.0,5.0,76.0,180.0,28.0,1.0
161885,-1.348229,-1.369216,0.969044,0.06882200000000001,-0.148803,-0.042468,0.0,5.0,76.0,180.0,28.0,1.0
161886,-1.214725,-1.363869,1.080097,0.127407,-0.048781,-0.201235,0.0,5.0,76.0,180.0,28.0,1.0
161887,-1.069742,-1.350738,1.203537,0.171192,0.135657,-0.055562,0.0,5.0,76.0,180.0,28.0,1.0
161888,-0.924752,-1.32459,1.336606,0.233786,0.516713,-0.209746,0.0,5.0,76.0,180.0,28.0,1.0
161889,-0.804329,-1.285061,1.468581,0.117457,0.7414729999999999,-0.004497999999999999,0.0,5.0,76.0,180.0,28.0,1.0
161890,-0.712426,-1.245967,1.582491,0.141177,0.774219,0.114938,0.0,5.0,76.0,180.0,28.0,1.0
161891,-0.648836,-1.210546,1.6707,0.021941,0.6539590000000001,0.027932,0.0,5.0,76.0,180.0,28.0,1.0
161892,-0.602665,-1.1802469999999998,1.743591,-0.20882,0.360899,0.272892,0.0,5.0,76.0,180.0,28.0,1.0
161893,-0.557084,-1.156438,1.811985,-0.328313,0.127289,0.366301,0.0,5.0,76.0,180.0,28.0,1.0
161894,-0.535877,-1.13797,1.860056,-0.365753,-0.017312,0.302755,0.0,5.0,76.0,180.0,28.0,1.0
161895,-0.5252899999999999,-1.129671,1.885091,-0.32025,0.043558,0.19371,0.0,5.0,76.0,180.0,28.0,1.0
161896,-0.515308,-1.131512,1.89398,-0.101394,0.051014,0.129698,0.0,5.0,76.0,180.0,28.0,1.0
161897,-0.511329,-1.139544,1.893722,-0.025744,-0.12829100000000002,0.174486,0.0,5.0,76.0,180.0,28.0,1.0
161898,-0.518967,-1.150961,1.884166,-0.017197999999999998,-0.20948200000000006,0.221866,0.0,5.0,76.0,180.0,28.0,1.0
161899,-0.5402899999999999,-1.167233,1.863916,-0.031865,-0.472127,0.302954,0.0,5.0,76.0,180.0,28.0,1.0
161900,-0.576687,-1.1874870000000002,1.831077,-0.016531999999999998,-0.625644,0.341725,0.0,5.0,76.0,180.0,28.0,1.0
161901,-0.628174,-1.211002,1.778959,-0.000193,-0.65655,0.316673,0.0,5.0,76.0,180.0,28.0,1.0
161902,-0.694695,-1.235115,1.704298,0.04828,-0.644305,0.228949,0.0,5.0,76.0,180.0,28.0,1.0
161903,-0.775403,-1.257121,1.608643,0.072499,-0.4912760000000001,0.157869,0.0,5.0,76.0,180.0,28.0,1.0
161904,-0.876416,-1.271109,1.497341,0.130747,-0.164368,0.133741,0.0,5.0,76.0,180.0,28.0,1.0
161905,-0.978709,-1.277131,1.402403,0.175123,-0.006673999999999999,0.0427,0.0,5.0,76.0,180.0,28.0,1.0
161906,-1.077152,-1.2825540000000002,1.327882,0.20229,0.25854,-0.317325,0.0,5.0,76.0,180.0,28.0,1.0
161907,-1.174186,-1.291711,1.259257,0.134929,0.261303,-0.36622,0.0,5.0,76.0,180.0,28.0,1.0
161908,-1.240207,-1.304947,1.207741,0.071368,0.16206800000000002,-0.377923,0.0,5.0,76.0,180.0,28.0,1.0
161909,-1.263498,-1.320709,1.175029,-0.030353,-0.07265,-0.530219,0.0,5.0,76.0,180.0,28.0,1.0
161910,-1.282459,-1.337141,1.14534,-0.037789,-0.024844,-0.492749,0.0,5.0,76.0,180.0,28.0,1.0
161911,-1.327097,-1.355028,1.103376,-0.061869000000000014,0.029062,-0.35838200000000003,0.0,5.0,76.0,180.0,28.0,1.0
161912,-1.393336,-1.372185,1.040749,-0.177151,0.6750689999999999,0.66138,0.0,5.0,76.0,180.0,28.0,1.0
161913,-1.451603,-1.384468,0.970759,-0.286624,0.4635220000000001,0.52445,0.0,5.0,76.0,180.0,28.0,1.0
161914,-1.458623,-1.391165,0.962779,-0.462546,0.3935010000000001,-0.222025,0.0,5.0,76.0,180.0,28.0,1.0
161915,-1.439593,-1.384092,1.008527,-0.009772,-0.08381799999999999,0.298662,0.0,5.0,76.0,180.0,28.0,1.0
161916,-1.411666,-1.372983,1.025245,0.051318,-0.06343,0.4542,0.0,5.0,76.0,180.0,28.0,1.0
161917,-1.454252,-1.3730000000000002,0.967476,-0.025017,0.15849000000000002,0.390918,0.0,5.0,76.0,180.0,28.0,1.0
161918,-1.522877,-1.376172,0.898965,0.436818,0.761983,-0.023911,0.0,5.0,76.0,180.0,28.0,1.0
161919,-1.56244,-1.3816,0.839669,0.486392,0.541572,-0.00026000000000000003,0.0,5.0,76.0,180.0,28.0,1.0
161920,-1.589182,-1.387374,0.7897310000000001,0.12171300000000003,-0.127573,-0.007793,0.0,5.0,76.0,180.0,28.0,1.0
161921,-1.60764,-1.389615,0.762591,-0.11163,-0.243382,-0.049559,0.0,5.0,76.0,180.0,28.0,1.0
161922,-1.666375,-1.38854,0.709962,-0.13808800000000002,-0.300362,0.028377,0.0,5.0,76.0,180.0,28.0,1.0
161923,-1.726315,-1.384081,0.6494800000000001,0.124817,-0.19377,-0.028518,0.0,5.0,76.0,180.0,28.0,1.0
161924,-1.760959,-1.380116,0.607912,0.183903,-0.038272,-0.13939300000000002,0.0,5.0,76.0,180.0,28.0,1.0
161925,-1.795022,-1.377559,0.567275,0.127467,0.017178,-0.23775900000000005,0.0,5.0,76.0,180.0,28.0,1.0
161926,-1.845838,-1.375917,0.514016,0.03304,-0.098228,-0.126708,0.0,5.0,76.0,180.0,28.0,1.0
161927,-1.8669830000000005,-1.375558,0.491243,0.113599,-0.158614,-0.268862,0.0,5.0,76.0,180.0,28.0,1.0
161928,-1.833307,-1.375218,0.517,0.08997999999999999,-0.148447,-0.340337,0.0,5.0,76.0,180.0,28.0,1.0
161929,-1.765864,-1.374867,0.571148,0.062132000000000014,-0.239366,-0.21093,0.0,5.0,76.0,180.0,28.0,1.0
161930,-1.670592,-1.373545,0.6567569999999999,0.051328,-0.200244,-0.126607,0.0,5.0,76.0,180.0,28.0,1.0
161931,-1.567144,-1.370403,0.743711,0.109826,-0.086373,-0.247839,0.0,5.0,76.0,180.0,28.0,1.0
161932,-1.454055,-1.368578,0.833833,0.074851,0.036063,-0.333117,0.0,5.0,76.0,180.0,28.0,1.0
161933,-1.330673,-1.365463,0.94119,-0.019109,-0.120152,-0.06641699999999999,0.0,5.0,76.0,180.0,28.0,1.0
161934,-1.206187,-1.35964,1.041918,-0.023229,-0.248068,-0.081587,0.0,5.0,76.0,180.0,28.0,1.0
161935,-1.08948,-1.350151,1.129455,0.063486,-0.13806400000000002,-0.068877,0.0,5.0,76.0,180.0,28.0,1.0
161936,-0.962056,-1.3350879999999998,1.234599,0.255629,0.298601,-0.223943,0.0,5.0,76.0,180.0,28.0,1.0
161937,-0.813024,-1.304224,1.381994,0.188595,0.589382,-0.292947,0.0,5.0,76.0,180.0,28.0,1.0
161938,-0.690976,-1.265263,1.512744,0.099843,0.712436,0.027536,0.0,5.0,76.0,180.0,28.0,1.0
161939,-0.611146,-1.2149299999999998,1.619899,0.193452,0.781817,0.09842,0.0,5.0,76.0,180.0,28.0,1.0
161940,-0.5687399999999999,-1.1640469999999998,1.703911,0.238899,0.738265,0.259773,0.0,5.0,76.0,180.0,28.0,1.0
161941,-0.54142,-1.122053,1.780939,0.139817,0.232567,0.452877,0.0,5.0,76.0,180.0,28.0,1.0
161942,-0.5289010000000001,-1.093808,1.841551,-0.202109,-0.19934,0.2719,0.0,5.0,76.0,180.0,28.0,1.0
161943,-0.51579,-1.084359,1.877787,-0.315668,-0.24608,0.193213,0.0,5.0,76.0,180.0,28.0,1.0
161944,-0.5039140000000001,-1.090769,1.898609,-0.155087,-0.061879,0.231464,0.0,5.0,76.0,180.0,28.0,1.0
161945,-0.4889020000000001,-1.1065459999999998,1.912272,-0.07763300000000001,-0.237144,0.200846,0.0,5.0,76.0,180.0,28.0,1.0
161946,-0.474187,-1.13022,1.915993,-0.045907,-0.32918800000000004,0.214709,0.0,5.0,76.0,180.0,28.0,1.0
161947,-0.477947,-1.160038,1.905102,0.13485999999999998,-0.588571,0.34933000000000003,0.0,5.0,76.0,180.0,28.0,1.0
161948,-0.510498,-1.191082,1.87643,0.144479,-0.6509229999999999,0.30072600000000005,0.0,5.0,76.0,180.0,28.0,1.0
161949,-0.56155,-1.222854,1.829481,0.112508,-0.5585760000000001,0.190826,0.0,5.0,76.0,180.0,28.0,1.0
161950,-0.629317,-1.256408,1.757995,0.074474,-0.422879,0.113337,0.0,5.0,76.0,180.0,28.0,1.0
161951,-0.727807,-1.28674,1.654637,0.057741,-0.201351,0.108125,0.0,5.0,76.0,180.0,28.0,1.0
161952,-0.8548950000000001,-1.307728,1.526667,0.002339,0.014277,0.054547000000000005,0.0,5.0,76.0,180.0,28.0,1.0
161953,-0.990177,-1.319477,1.398016,-0.057535,0.261884,-0.098221,0.0,5.0,76.0,180.0,28.0,1.0
161954,-1.103256,-1.3258370000000002,1.300836,-0.002255,0.280265,-0.31837,0.0,5.0,76.0,180.0,28.0,1.0
161955,-1.186157,-1.331695,1.240278,0.028947000000000007,0.15350999999999998,-0.447386,0.0,5.0,76.0,180.0,28.0,1.0
161956,-1.24403,-1.3398219999999998,1.197267,-0.031768,0.002493,-0.474411,0.0,5.0,76.0,180.0,28.0,1.0
161957,-1.281404,-1.351568,1.158962,-0.153675,-0.200599,-0.28736,0.0,5.0,76.0,180.0,28.0,1.0
161958,-1.321321,-1.364796,1.1093309999999998,-0.161136,-0.225744,-0.236968,0.0,5.0,76.0,180.0,28.0,1.0
161959,-1.3854,-1.377665,1.0378,-0.14643399999999998,-0.216836,-0.126966,0.0,5.0,76.0,180.0,28.0,1.0
161960,-1.48029,-1.384933,0.930833,-0.206934,0.517604,0.678304,0.0,5.0,76.0,180.0,28.0,1.0
161961,-1.588752,-1.38509,0.818311,-0.170398,0.556485,0.224194,0.0,5.0,76.0,180.0,28.0,1.0
161962,-1.661068,-1.378427,0.791157,-0.234807,0.669325,-0.473423,0.0,5.0,76.0,180.0,28.0,1.0
161963,-1.594093,-1.370012,0.8748290000000001,0.278093,0.185647,0.482782,0.0,5.0,76.0,180.0,28.0,1.0
161964,-1.553468,-1.371439,0.8845940000000001,0.166855,-0.050415,0.537794,0.0,5.0,76.0,180.0,28.0,1.0
161965,-1.567227,-1.378594,0.855822,-0.321965,0.019223,-0.08719400000000001,0.0,5.0,76.0,180.0,28.0,1.0
161966,-1.627084,-1.382865,0.800664,0.026861000000000003,0.503966,0.07230199999999999,0.0,5.0,76.0,180.0,28.0,1.0
161967,-1.665998,-1.382699,0.755826,0.245741,0.591888,0.090064,0.0,5.0,76.0,180.0,28.0,1.0
161968,-1.708198,-1.384062,0.702925,0.375242,0.128224,-0.08162,0.0,5.0,76.0,180.0,28.0,1.0
161969,-1.753441,-1.3874799999999998,0.6483949999999999,0.141184,-0.219527,-0.18021,0.0,5.0,76.0,180.0,28.0,1.0
161970,-1.779168,-1.3904729999999998,0.622023,0.021151,-0.420813,-0.191296,0.0,5.0,76.0,180.0,28.0,1.0
161971,-1.7788099999999998,-1.39173,0.623372,0.022059,-0.433153,-0.277129,0.0,5.0,76.0,180.0,28.0,1.0
161972,-1.758093,-1.390662,0.642169,0.059582,-0.257715,-0.398997,0.0,5.0,76.0,180.0,28.0,1.0
161973,-1.729181,-1.3878780000000002,0.664289,0.119331,-0.193476,-0.251323,0.0,5.0,76.0,180.0,28.0,1.0
161974,-1.677399,-1.386833,0.696814,-0.09871,-0.197863,-0.315341,0.0,5.0,76.0,180.0,28.0,1.0
161975,-1.582384,-1.387628,0.7664270000000001,-0.13914300000000002,-0.244853,-0.264744,0.0,5.0,76.0,180.0,28.0,1.0
161976,-1.465984,-1.386148,0.8666659999999999,0.091222,-0.141845,-0.23600000000000002,0.0,5.0,76.0,180.0,28.0,1.0
161977,-1.331128,-1.383828,0.975328,0.144725,-0.129698,-0.201492,0.0,5.0,76.0,180.0,28.0,1.0
161978,-1.17993,-1.379409,1.091851,0.028373,-0.13706,-0.251198,0.0,5.0,76.0,180.0,28.0,1.0
161979,-1.016218,-1.368736,1.224615,0.002668,0.056737,-0.045175,0.0,5.0,76.0,180.0,28.0,1.0
161980,-0.8508020000000001,-1.344837,1.371158,0.080719,0.4780720000000001,-0.194685,0.0,5.0,76.0,180.0,28.0,1.0
161981,-0.715611,-1.302169,1.516621,0.21872800000000006,0.8256889999999999,-0.048589,0.0,5.0,76.0,180.0,28.0,1.0
161982,-0.6233310000000001,-1.250781,1.632208,0.246961,1.025699,0.071916,0.0,5.0,76.0,180.0,28.0,1.0
161983,-0.575303,-1.19764,1.7224389999999998,0.186501,0.946962,0.292476,0.0,5.0,76.0,180.0,28.0,1.0
161984,-0.545079,-1.150284,1.802302,-0.067888,0.436241,0.5736060000000001,0.0,5.0,76.0,180.0,28.0,1.0
161985,-0.514081,-1.115636,1.876396,-0.291131,-0.148893,0.357947,0.0,5.0,76.0,180.0,28.0,1.0
161986,-0.495384,-1.091543,1.925274,-0.340146,-0.361964,0.298847,0.0,5.0,76.0,180.0,28.0,1.0
161987,-0.479684,-1.08443,1.949044,-0.257712,-0.336048,0.373364,0.0,5.0,76.0,180.0,28.0,1.0
161988,-0.463794,-1.090294,1.96064,-0.177005,-0.289046,0.362086,0.0,5.0,76.0,180.0,28.0,1.0
161989,-0.444151,-1.104562,1.966425,0.00109,-0.30141,0.288072,0.0,5.0,76.0,180.0,28.0,1.0
161990,-0.428511,-1.127524,1.965867,0.014421000000000003,-0.460574,0.363847,0.0,5.0,76.0,180.0,28.0,1.0
161991,-0.43768,-1.156751,1.951705,0.014185,-0.568211,0.366181,0.0,5.0,76.0,180.0,28.0,1.0
161992,-0.476219,-1.188917,1.912667,0.036782,-0.724276,0.282236,0.0,5.0,76.0,180.0,28.0,1.0
161993,-0.536309,-1.223956,1.844647,0.097907,-0.657233,0.12495,0.0,5.0,76.0,180.0,28.0,1.0
161994,-0.631586,-1.258004,1.734692,0.16026300000000002,-0.490266,0.034822000000000006,0.0,5.0,76.0,180.0,28.0,1.0
161995,-0.77231,-1.281257,1.584796,0.158301,-0.049776,-0.032582,0.0,5.0,76.0,180.0,28.0,1.0
161996,-0.938981,-1.293161,1.426046,0.107367,0.622416,-0.117086,0.0,5.0,76.0,180.0,28.0,1.0
161997,-1.059953,-1.294134,1.333836,0.13153,0.69118,-0.497771,0.0,5.0,76.0,180.0,28.0,1.0
161998,-1.128599,-1.297916,1.299186,0.123638,0.230086,-0.6569159999999999,0.0,5.0,76.0,180.0,28.0,1.0
161999,-1.1820959999999998,-1.312882,1.258421,1.6e-05,-0.102621,-0.583324,0.0,5.0,76.0,180.0,28.0,1.0
162000,-1.21439,-1.336367,1.202261,-0.246027,0.132181,-0.500005,0.0,5.0,76.0,180.0,28.0,1.0
162001,-1.266635,-1.35717,1.12914,-0.379534,0.455837,0.447974,0.0,5.0,76.0,180.0,28.0,1.0
162002,-1.323383,-1.365278,1.063565,-0.180933,0.302035,0.847147,0.0,5.0,76.0,180.0,28.0,1.0
162003,-1.327823,-1.370026,1.068347,-0.146179,0.50051,-0.72768,0.0,5.0,76.0,180.0,28.0,1.0
162004,-1.247919,-1.361669,1.162426,-0.049999,0.126814,-0.5859489999999999,0.0,5.0,76.0,180.0,28.0,1.0
162005,-1.175836,-1.351316,1.212957,-0.168947,-0.07072200000000001,0.650409,0.0,5.0,76.0,180.0,28.0,1.0
162006,-1.2212459999999998,-1.355773,1.165337,-0.356194,0.364002,0.476321,0.0,5.0,76.0,180.0,28.0,1.0
162007,-1.307901,-1.356647,1.108057,-0.232947,0.7967529999999999,0.020215,0.0,5.0,76.0,180.0,28.0,1.0
162008,-1.314632,-1.356226,1.091386,0.710674,0.11685,0.027772,0.0,5.0,76.0,180.0,28.0,1.0
162009,-1.314063,-1.367759,1.077315,0.389868,-0.077115,-0.090196,0.0,5.0,76.0,180.0,28.0,1.0
162010,-1.30918,-1.375619,1.090193,-0.091279,-0.326808,-0.097631,0.0,5.0,76.0,180.0,28.0,1.0
162011,-1.329748,-1.3773030000000002,1.092247,-0.179997,-0.273422,0.044901,0.0,5.0,76.0,180.0,28.0,1.0
162012,-1.347108,-1.3730870000000002,1.081497,-0.13145,-0.231892,-0.12286500000000003,0.0,5.0,76.0,180.0,28.0,1.0
162013,-1.367368,-1.368482,1.056602,-0.088786,-0.078206,-0.35402100000000003,0.0,5.0,76.0,180.0,28.0,1.0
162014,-1.354545,-1.3662040000000002,1.054511,-0.06605499999999999,-0.103183,-0.198923,0.0,5.0,76.0,180.0,28.0,1.0
162015,-1.313338,-1.365261,1.068245,-0.033847,-0.177835,-0.126664,0.0,5.0,76.0,180.0,28.0,1.0
162016,-1.249115,-1.363767,1.105904,0.077097,-0.145989,-0.272748,0.0,5.0,76.0,180.0,28.0,1.0
162017,-1.175729,-1.36329,1.146126,0.061559,-0.22635,-0.102456,0.0,5.0,76.0,180.0,28.0,1.0
162018,-1.104529,-1.361214,1.1843290000000002,0.010881,-0.200286,-0.019127,0.0,5.0,76.0,180.0,28.0,1.0
162019,-1.034254,-1.353923,1.232861,0.139454,-0.11369,-0.012051,0.0,5.0,76.0,180.0,28.0,1.0
162020,-0.968562,-1.342027,1.278469,0.276866,0.08196200000000001,-0.119996,0.0,5.0,76.0,180.0,28.0,1.0
162021,-0.89636,-1.324135,1.33395,0.349758,0.436364,-0.178541,0.0,5.0,76.0,180.0,28.0,1.0
162022,-0.776877,-1.295894,1.446778,0.207909,0.782803,-0.39728,0.0,5.0,76.0,180.0,28.0,1.0
162023,-0.661533,-1.253043,1.577754,-0.102571,0.930554,0.053013,0.0,5.0,76.0,180.0,28.0,1.0
162024,-0.5975659999999999,-1.195913,1.683975,-0.092288,0.754676,0.32975,0.0,5.0,76.0,180.0,28.0,1.0
162025,-0.570813,-1.141014,1.76046,-0.101227,0.294862,0.748873,0.0,5.0,76.0,180.0,28.0,1.0
162026,-0.5478430000000001,-1.111373,1.82055,-0.242207,-0.141441,0.376952,0.0,5.0,76.0,180.0,28.0,1.0
162027,-0.521243,-1.103221,1.861706,-0.156668,-0.373224,0.290393,0.0,5.0,76.0,180.0,28.0,1.0
162028,-0.5114489999999999,-1.101717,1.873524,-0.038298,-0.213335,0.364223,0.0,5.0,76.0,180.0,28.0,1.0
162029,-0.511362,-1.111445,1.868028,-0.060153,-0.259881,0.3038,0.0,5.0,76.0,180.0,28.0,1.0
162030,-0.511798,-1.131023,1.854399,-0.054215999999999986,-0.4542560000000001,0.319153,0.0,5.0,76.0,180.0,28.0,1.0
162031,-0.519221,-1.160831,1.830819,0.0997,-0.6507310000000001,0.37768,0.0,5.0,76.0,180.0,28.0,1.0
162032,-0.545425,-1.198825,1.794012,0.204168,-0.664935,0.369922,0.0,5.0,76.0,180.0,28.0,1.0
162033,-0.594639,-1.236589,1.741953,0.203829,-0.613951,0.305558,0.0,5.0,76.0,180.0,28.0,1.0
162034,-0.674122,-1.268139,1.663646,0.047943,-0.341206,0.082403,0.0,5.0,76.0,180.0,28.0,1.0
162035,-0.782424,-1.2923440000000002,1.560409,0.036169,-0.113398,0.033402999999999995,0.0,5.0,76.0,180.0,28.0,1.0
162036,-0.8986719999999999,-1.307858,1.448475,0.034720999999999995,0.010627,-0.025728,0.0,5.0,76.0,180.0,28.0,1.0
162037,-1.004112,-1.314585,1.348749,0.051071,0.280736,-0.346061,0.0,5.0,76.0,180.0,28.0,1.0
162038,-1.08185,-1.318362,1.283019,0.098365,0.224838,-0.630522,0.0,5.0,76.0,180.0,28.0,1.0
162039,-1.1637030000000002,-1.328597,1.215059,0.184024,-0.077609,-0.495049,0.0,5.0,76.0,180.0,28.0,1.0
162040,-1.246052,-1.342567,1.136501,0.12752,-0.154092,-0.287625,0.0,5.0,76.0,180.0,28.0,1.0
162041,-1.306348,-1.356006,1.077328,-0.22202800000000006,0.236739,-0.07122300000000001,0.0,5.0,76.0,180.0,28.0,1.0
162042,-1.377319,-1.366581,1.020876,-0.45728,0.942639,0.4143810000000001,0.0,5.0,76.0,180.0,28.0,1.0
162043,-1.440007,-1.371319,0.965798,-0.174219,0.634622,-0.12336400000000003,0.0,5.0,76.0,180.0,28.0,1.0
162044,-1.460507,-1.376855,0.939263,0.068263,0.328226,-0.696749,0.0,5.0,76.0,180.0,28.0,1.0
162045,-1.394925,-1.378066,0.990177,-0.213655,0.210486,0.171047,0.0,5.0,76.0,180.0,28.0,1.0
162046,-1.3431110000000002,-1.374203,1.02451,-0.323873,0.073034,0.409741,0.0,5.0,76.0,180.0,28.0,1.0
162047,-1.380493,-1.369579,1.001233,-0.002691,0.458927,0.199799,0.0,5.0,76.0,180.0,28.0,1.0
162048,-1.447619,-1.362634,0.946623,0.292437,0.599438,0.16685,0.0,5.0,76.0,180.0,28.0,1.0
162049,-1.500393,-1.360906,0.8833979999999999,0.5067689999999999,0.562763,0.139424,0.0,5.0,76.0,180.0,28.0,1.0
162050,-1.544021,-1.365648,0.832227,0.311301,-0.158367,-0.196971,0.0,5.0,76.0,180.0,28.0,1.0
162051,-1.560727,-1.3714620000000002,0.81234,0.215398,-0.348576,-0.170446,0.0,5.0,76.0,180.0,28.0,1.0
162052,-1.572922,-1.376414,0.800682,0.121941,-0.479184,-0.113219,0.0,5.0,76.0,180.0,28.0,1.0
162053,-1.586094,-1.378026,0.7928569999999999,-0.282481,-0.139345,-0.146149,0.0,5.0,76.0,180.0,28.0,1.0
162054,-1.592982,-1.37345,0.794651,-0.26967,0.009003,-0.160369,0.0,5.0,76.0,180.0,28.0,1.0
162055,-1.593451,-1.364958,0.790028,0.11628800000000003,-0.207329,-0.226949,0.0,5.0,76.0,180.0,28.0,1.0
162056,-1.582993,-1.358682,0.78572,0.292724,-0.373264,-0.05707200000000001,0.0,5.0,76.0,180.0,28.0,1.0
162057,-1.545911,-1.356652,0.798459,0.288326,-0.390229,-0.027062,0.0,5.0,76.0,180.0,28.0,1.0
162058,-1.504744,-1.355082,0.8213299999999999,0.300356,-0.210192,-0.055821,0.0,5.0,76.0,180.0,28.0,1.0
162059,-1.461257,-1.35433,0.854266,0.289634,-0.06611,-0.217217,0.0,5.0,76.0,180.0,28.0,1.0
162060,-1.405298,-1.354694,0.90066,0.243722,-0.033686,-0.302359,0.0,5.0,76.0,180.0,28.0,1.0
162061,-1.344537,-1.354236,0.955441,0.095474,-0.024845,-0.225397,0.0,5.0,76.0,180.0,28.0,1.0
162062,-1.25973,-1.349905,1.033607,0.044633,0.068334,-0.36496,0.0,5.0,76.0,180.0,28.0,1.0
162063,-1.130586,-1.337512,1.155099,-0.02427,0.447483,-0.445467,0.0,5.0,76.0,180.0,28.0,1.0
162064,-0.970011,-1.311638,1.3159379999999998,-0.080933,0.604256,-0.212637,0.0,5.0,76.0,180.0,28.0,1.0
162065,-0.830575,-1.2732290000000002,1.468068,-0.039012,0.675615,0.046375,0.0,5.0,76.0,180.0,28.0,1.0
162066,-0.729594,-1.225984,1.589213,0.218203,0.6333850000000001,0.190802,0.0,5.0,76.0,180.0,28.0,1.0
162067,-0.678272,-1.183147,1.6743720000000002,0.256718,0.448528,0.480821,0.0,5.0,76.0,180.0,28.0,1.0
162068,-0.642684,-1.157398,1.750744,-0.008461,0.250529,0.393751,0.0,5.0,76.0,180.0,28.0,1.0
162069,-0.613822,-1.140645,1.819464,-0.277225,0.000445,0.24706,0.0,5.0,76.0,180.0,28.0,1.0
162070,-0.597742,-1.130777,1.863535,-0.383795,-0.089741,0.280538,0.0,5.0,76.0,180.0,28.0,1.0
162071,-0.5917319999999999,-1.1283729999999998,1.879091,-0.21655,-0.128967,0.320764,0.0,5.0,76.0,180.0,28.0,1.0
162072,-0.589309,-1.134583,1.878005,-0.087297,-0.124055,0.330706,0.0,5.0,76.0,180.0,28.0,1.0
162073,-0.5958060000000001,-1.14971,1.866214,-0.010114,-0.231264,0.392843,0.0,5.0,76.0,180.0,28.0,1.0
162074,-0.61759,-1.173136,1.845446,0.0493,-0.367374,0.370459,0.0,5.0,76.0,180.0,28.0,1.0
162075,-0.6598229999999999,-1.199358,1.812479,0.042631,-0.534879,0.30029,0.0,5.0,76.0,180.0,28.0,1.0
162076,-0.721614,-1.227302,1.758864,0.09714,-0.6390020000000001,0.22532,0.0,5.0,76.0,180.0,28.0,1.0
162077,-0.802018,-1.256653,1.67701,0.113208,-0.598217,0.154378,0.0,5.0,76.0,180.0,28.0,1.0
162078,-0.910823,-1.280865,1.560648,0.090606,-0.53059,0.134974,0.0,5.0,76.0,180.0,28.0,1.0
162079,-1.0426540000000002,-1.295279,1.423092,-0.008323,-0.166798,0.123906,0.0,5.0,76.0,180.0,28.0,1.0
162080,-1.168814,-1.302801,1.303226,0.023734,0.00788,0.02296,0.0,5.0,76.0,180.0,28.0,1.0
162081,-1.286715,-1.305175,1.204431,0.044799,0.075934,-0.090391,0.0,5.0,76.0,180.0,28.0,1.0
162082,-1.4034950000000002,-1.306474,1.116111,0.04448,0.16877899999999998,-0.498464,0.0,5.0,76.0,180.0,28.0,1.0
162083,-1.501603,-1.31093,1.036716,-0.099402,0.079566,-0.66252,0.0,5.0,76.0,180.0,28.0,1.0
162084,-1.545195,-1.318573,0.982211,-0.306842,-0.027457,-0.544333,0.0,5.0,76.0,180.0,28.0,1.0
162085,-1.573187,-1.328961,0.920954,-0.346269,-0.102736,-0.478645,0.0,5.0,76.0,180.0,28.0,1.0
162086,-1.620908,-1.338357,0.8330879999999999,-0.24026,0.390571,0.102417,0.0,5.0,76.0,180.0,28.0,1.0
162087,-1.700487,-1.339518,0.7291270000000001,-0.147445,0.585845,0.36857,0.0,5.0,76.0,180.0,28.0,1.0
162088,-1.802307,-1.32973,0.6290100000000001,0.045862,0.59015,0.420285,0.0,5.0,76.0,180.0,28.0,1.0
162089,-1.870168,-1.316493,0.592527,0.364667,0.430294,-0.5116649999999999,0.0,5.0,76.0,180.0,28.0,1.0
162090,-1.831734,-1.310856,0.6368590000000001,0.290089,0.417155,-0.42111,0.0,5.0,76.0,180.0,28.0,1.0
162091,-1.7822619999999998,-1.308822,0.662211,0.223422,0.179871,-0.026732,0.0,5.0,76.0,180.0,28.0,1.0
162092,-1.764937,-1.311865,0.6651130000000001,-0.390728,0.503734,-0.101223,0.0,5.0,76.0,180.0,28.0,1.0
162093,-1.808124,-1.311626,0.6350020000000001,-0.4169020000000001,0.878765,-0.221772,0.0,5.0,76.0,180.0,28.0,1.0
162094,-1.86061,-1.303928,0.586687,-0.048124,0.891157,-0.291948,0.0,5.0,76.0,180.0,28.0,1.0
162095,-1.878687,-1.295975,0.550316,0.331784,-0.032679,0.08594,0.0,5.0,76.0,180.0,28.0,1.0
162096,-1.899716,-1.291402,0.5217729999999999,0.201287,-0.10648599999999997,0.010527,0.0,5.0,76.0,180.0,28.0,1.0
162097,-1.933401,-1.285823,0.497043,-0.002905,-0.146589,-0.037327,0.0,5.0,76.0,180.0,28.0,1.0
162098,-1.956439,-1.276434,0.481292,0.072556,-0.06805599999999999,-0.187411,0.0,5.0,76.0,180.0,28.0,1.0
162099,-1.963231,-1.266238,0.474613,0.10193,-0.07560700000000001,-0.22064,0.0,5.0,76.0,180.0,28.0,1.0
162100,-1.968511,-1.25544,0.472266,0.093331,-0.242877,-0.262751,0.0,5.0,76.0,180.0,28.0,1.0
162101,-1.97069,-1.2429709999999998,0.473363,0.139946,-0.235868,-0.055913,0.0,5.0,76.0,180.0,28.0,1.0
162102,-1.966131,-1.227048,0.475671,0.180924,-0.17871099999999998,0.001631,0.0,5.0,76.0,180.0,28.0,1.0
162103,-1.961479,-1.208892,0.479164,0.230986,-0.118894,-0.04737,0.0,5.0,76.0,180.0,28.0,1.0
162104,-1.954776,-1.190837,0.483011,0.362994,-0.032699,-0.290719,0.0,5.0,76.0,180.0,28.0,1.0
162105,-1.942611,-1.173318,0.488542,0.392703,0.001071,-0.145337,0.0,5.0,76.0,180.0,28.0,1.0
162106,-1.930697,-1.15703,0.50038,0.4614,0.156851,-0.287735,0.0,5.0,76.0,180.0,28.0,1.0
162107,-1.907859,-1.142374,0.524968,0.452867,0.199142,-0.621787,0.0,5.0,76.0,180.0,28.0,1.0
162108,-1.873805,-1.129114,0.561333,0.301528,0.100879,-0.530695,0.0,5.0,76.0,180.0,28.0,1.0
162109,-1.843212,-1.115465,0.609651,0.302131,0.043077,-0.232678,0.0,5.0,76.0,180.0,28.0,1.0
162110,-1.815155,-1.099974,0.6612,0.306754,0.000925,-0.238829,0.0,5.0,76.0,180.0,28.0,1.0
162111,-1.779198,-1.082973,0.720841,0.29485500000000003,0.086463,-0.279493,0.0,5.0,76.0,180.0,28.0,1.0
162112,-1.725932,-1.072449,0.798277,0.388164,0.674986,-0.188383,0.0,5.0,76.0,180.0,28.0,1.0
162113,-1.651837,-1.075773,0.904042,0.442524,0.7499100000000001,0.046384,0.0,5.0,76.0,180.0,28.0,1.0
162114,-1.566061,-1.092493,1.02801,0.333475,0.628901,0.475095,0.0,5.0,76.0,180.0,28.0,1.0
162115,-1.472826,-1.114632,1.154965,0.133698,0.619478,0.433771,0.0,5.0,76.0,180.0,28.0,1.0
162116,-1.372523,-1.138965,1.276031,-0.016387,1.029955,-0.034658999999999995,0.0,5.0,76.0,180.0,28.0,1.0
162117,-1.267741,-1.162059,1.399303,0.016644,1.278528,-0.088409,0.0,5.0,76.0,180.0,28.0,1.0
162118,-1.16195,-1.179518,1.523226,0.272309,0.563401,0.299203,0.0,5.0,76.0,180.0,28.0,1.0
162119,-1.080382,-1.202396,1.629231,0.340529,0.40137,0.388673,0.0,5.0,76.0,180.0,28.0,1.0
162120,-1.006213,-1.230073,1.7443810000000002,0.35241500000000003,0.31247600000000003,0.567321,0.0,5.0,76.0,180.0,28.0,1.0
162121,-0.933266,-1.24545,1.883095,0.429144,0.150833,0.6299170000000001,0.0,5.0,76.0,180.0,28.0,1.0
162122,-0.871447,-1.243467,2.04346,0.290928,0.041041,0.592201,0.0,5.0,76.0,180.0,28.0,1.0
162123,-0.825399,-1.237477,2.193306,0.040387,-0.153824,0.6192810000000001,0.0,5.0,76.0,180.0,28.0,1.0
162124,-0.797661,-1.231085,2.33114,-0.13749,-0.50326,0.632885,0.0,5.0,76.0,180.0,28.0,1.0
162125,-0.776683,-1.227583,2.451768,-0.2215,-0.6949890000000001,0.5544359999999999,0.0,5.0,76.0,180.0,28.0,1.0
162126,-0.7646,-1.22995,2.54889,-0.140099,-0.763502,0.463069,0.0,5.0,76.0,180.0,28.0,1.0
162127,-0.761692,-1.240418,2.624861,-0.08224,-0.617306,0.374358,0.0,5.0,76.0,180.0,28.0,1.0
162128,-0.786094,-1.256155,2.670669,-0.12858499999999998,-0.390544,0.347292,0.0,5.0,76.0,180.0,28.0,1.0
162129,-0.821515,-1.274186,2.697543,-0.211848,-0.105808,-0.002803,0.0,5.0,76.0,180.0,28.0,1.0
162130,-0.838435,-1.292295,2.718346,-0.324391,0.188876,-0.507383,0.0,5.0,76.0,180.0,28.0,1.0
162131,-0.827679,-1.297802,2.763664,-0.300314,0.507888,-0.927314,0.0,5.0,76.0,180.0,28.0,1.0
162132,-0.78194,-1.277405,2.85203,-0.28367600000000004,0.734794,-0.8632549999999999,0.0,5.0,76.0,180.0,28.0,1.0
162133,-0.722474,-1.255811,2.942676,0.23595,0.440419,-0.5236270000000001,0.0,5.0,76.0,180.0,28.0,1.0
162134,-0.674561,-1.241342,3.031933,0.231937,-0.290534,-0.086234,0.0,5.0,76.0,180.0,28.0,1.0
162135,-0.641189,-1.233935,3.104003,0.099957,-0.495509,-0.211932,0.0,5.0,76.0,180.0,28.0,1.0
162136,-0.618052,-1.23732,-3.129338,0.317266,0.190435,0.267673,0.0,5.0,76.0,180.0,28.0,1.0
162137,-0.652403,-1.25658,3.11411,-0.026842,0.947627,1.165345,0.0,5.0,76.0,180.0,28.0,1.0
162138,-0.6683279999999999,-1.23869,3.045564,-0.80416,0.791718,0.669309,0.0,5.0,76.0,180.0,28.0,1.0
162139,-0.668482,-1.199055,3.03,-0.62954,-0.4514260000000001,0.401296,0.0,5.0,76.0,180.0,28.0,1.0
162140,-0.76402,-1.208901,2.970493,0.110663,-0.8456739999999999,0.743268,0.0,5.0,76.0,180.0,28.0,1.0
162141,-0.912544,-1.242074,2.830907,0.223653,-0.369673,0.833199,0.0,5.0,76.0,180.0,28.0,1.0
162142,-1.095193,-1.27249,2.6164110000000003,0.31428,0.203573,0.88094,0.0,5.0,76.0,180.0,28.0,1.0
162143,-1.225763,-1.285721,2.4273860000000003,0.497793,0.604233,0.340439,0.0,5.0,76.0,180.0,28.0,1.0
162144,-1.256556,-1.277357,2.357069,0.440898,0.625753,-0.062645,0.0,5.0,76.0,180.0,28.0,1.0
162145,-1.276413,-1.269605,2.3429,0.415426,0.5932029999999999,-0.32129800000000003,0.0,5.0,76.0,180.0,28.0,1.0
162146,-1.386179,-1.275823,2.2721150000000003,-0.120799,-0.134819,0.246171,0.0,5.0,76.0,180.0,28.0,1.0
162147,-1.521922,-1.287574,2.15777,-0.221759,-0.167985,0.17927,0.0,5.0,76.0,180.0,28.0,1.0
162148,-1.622217,-1.290751,2.058249,-0.235434,-0.159331,0.043230000000000005,0.0,5.0,76.0,180.0,28.0,1.0
162149,-1.701473,-1.282371,1.999024,0.129423,-0.096053,-0.066372,0.0,5.0,76.0,180.0,28.0,1.0
162150,-1.7839169999999998,-1.267069,1.943271,0.289483,-0.084813,-0.09386,0.0,5.0,76.0,180.0,28.0,1.0
162151,-1.852654,-1.251745,1.885473,0.287367,-0.051569,-0.056578,0.0,5.0,76.0,180.0,28.0,1.0
162152,-1.911324,-1.238422,1.826741,0.137597,-0.023945,0.024414,0.0,5.0,76.0,180.0,28.0,1.0
162153,-1.96945,-1.225272,1.777334,0.087474,-0.004542,0.018566,0.0,5.0,76.0,180.0,28.0,1.0
162154,-2.020826,-1.210139,1.7379349999999998,0.05135,-0.00375,-0.109757,0.0,5.0,76.0,180.0,28.0,1.0
162155,-2.063413,-1.192432,1.7006419999999998,0.086435,0.015035,-0.192447,0.0,5.0,76.0,180.0,28.0,1.0
162156,-2.099915,-1.172962,1.664993,0.16505699999999998,0.188907,-0.17593599999999998,0.0,5.0,76.0,180.0,28.0,1.0
162157,-2.122427,-1.153024,1.635501,0.289516,0.331488,-0.231382,0.0,5.0,76.0,180.0,28.0,1.0
162158,-2.125899,-1.138178,1.617278,0.257424,0.329449,-0.352746,0.0,5.0,76.0,180.0,28.0,1.0
162159,-2.12108,-1.128849,1.612619,0.138247,0.28126,-0.464287,0.0,5.0,76.0,180.0,28.0,1.0
162160,-2.111098,-1.124738,1.622434,0.26713600000000004,0.193945,-0.361412,0.0,5.0,76.0,180.0,28.0,1.0
162161,-2.075059,-1.120366,1.669113,0.499578,0.260827,-0.422749,0.0,5.0,76.0,180.0,28.0,1.0
162162,-2.026998,-1.1165770000000002,1.738752,0.468938,0.274751,-0.362653,0.0,5.0,76.0,180.0,28.0,1.0
162163,-1.961728,-1.11836,1.822341,0.298194,0.489119,-0.34003,0.0,5.0,76.0,180.0,28.0,1.0
162164,-1.876285,-1.1250719999999998,1.929713,0.114265,0.387481,-0.31343000000000004,0.0,5.0,76.0,180.0,28.0,1.0
162165,-1.76885,-1.133379,2.0638240000000003,0.125454,0.356725,-0.020096,0.0,5.0,76.0,180.0,28.0,1.0
162166,-1.6669060000000002,-1.144986,2.199169,0.4456270000000001,0.432832,0.458671,0.0,5.0,76.0,180.0,28.0,1.0
162167,-1.567864,-1.159722,2.339267,0.35572800000000004,0.262522,0.246945,0.0,5.0,76.0,180.0,28.0,1.0
162168,-1.458165,-1.179013,2.488254,0.175703,0.4146220000000001,0.173452,0.0,5.0,76.0,180.0,28.0,1.0
162169,-1.347287,-1.195554,2.6394900000000003,-0.216725,0.5378430000000001,0.240394,0.0,5.0,76.0,180.0,28.0,1.0
162170,-1.227391,-1.204212,2.793802,-0.109864,0.191184,0.367072,0.0,5.0,76.0,180.0,28.0,1.0
162171,-1.098687,-1.207584,2.9446380000000003,-0.009122,0.135644,0.467512,0.0,5.0,76.0,180.0,28.0,1.0
162172,-0.98459,-1.213009,3.07078,0.232633,0.18416,0.349299,0.0,5.0,76.0,180.0,28.0,1.0
162173,-0.900373,-1.223388,-3.093784,0.35191300000000003,0.060703,0.456012,0.0,5.0,76.0,180.0,28.0,1.0
162174,-0.803484,-1.227509,-2.952274,0.370835,0.05660700000000001,0.402129,0.0,5.0,76.0,180.0,28.0,1.0
162175,-0.7237520000000001,-1.2289,-2.819745,0.327838,0.01372,0.447776,0.0,5.0,76.0,180.0,28.0,1.0
162176,-0.662467,-1.223062,-2.682557,0.290559,0.011391,0.559702,0.0,5.0,76.0,180.0,28.0,1.0
162177,-0.620264,-1.2109219999999998,-2.544635,0.234494,0.025347,0.649487,0.0,5.0,76.0,180.0,28.0,1.0
162178,-0.59682,-1.201203,-2.424053,0.07372100000000001,-0.040827,0.66393,0.0,5.0,76.0,180.0,28.0,1.0
162179,-0.5808949999999999,-1.193616,-2.320805,-0.101731,-0.185887,0.532802,0.0,5.0,76.0,180.0,28.0,1.0
162180,-0.5670069999999999,-1.188855,-2.231392,-0.216276,-0.258128,0.390536,0.0,5.0,76.0,180.0,28.0,1.0
162181,-0.5469310000000001,-1.192218,-2.148021,-0.122216,-0.288688,0.336129,0.0,5.0,76.0,180.0,28.0,1.0
162182,-0.524383,-1.202589,-2.071546,-0.076325,-0.330374,0.285423,0.0,5.0,76.0,180.0,28.0,1.0
162183,-0.5046109999999999,-1.217301,-2.005869,-0.064456,-0.294141,0.251958,0.0,5.0,76.0,180.0,28.0,1.0
162184,-0.502119,-1.233288,-1.959844,-0.051669000000000014,-0.16808499999999998,0.271917,0.0,5.0,76.0,180.0,28.0,1.0
162185,-0.523522,-1.249667,-1.931365,-0.032415,-0.116558,0.359691,0.0,5.0,76.0,180.0,28.0,1.0
162186,-0.55598,-1.265707,-1.911987,-0.058003999999999986,-0.117959,0.350481,0.0,5.0,76.0,180.0,28.0,1.0
162187,-0.595862,-1.280785,-1.900806,-0.084249,0.021648,0.02044,0.0,5.0,76.0,180.0,28.0,1.0
162188,-0.6362760000000001,-1.293903,-1.894255,0.005634,0.244084,-0.329438,0.0,5.0,76.0,180.0,28.0,1.0
162189,-0.6488550000000001,-1.302529,-1.877912,0.03457,0.357637,-0.485411,0.0,5.0,76.0,180.0,28.0,1.0
162190,-0.630506,-1.30201,-1.841845,-0.229306,0.511111,-0.601183,0.0,5.0,76.0,180.0,28.0,1.0
162191,-0.6123270000000001,-1.299344,-1.790213,-0.134967,0.251644,-0.366977,0.0,5.0,76.0,180.0,28.0,1.0
162192,-0.582989,-1.298335,-1.720834,0.010067,-0.100883,0.100953,0.0,5.0,76.0,180.0,28.0,1.0
162193,-0.540435,-1.299847,-1.656736,-0.111533,0.006712999999999999,0.217237,0.0,5.0,76.0,180.0,28.0,1.0
162194,-0.541743,-1.313729,-1.661666,-0.082606,0.308114,0.660208,0.0,5.0,76.0,180.0,28.0,1.0
162195,-0.5528569999999999,-1.3157370000000002,-1.697614,-0.281974,0.373019,0.227305,0.0,5.0,76.0,180.0,28.0,1.0
162196,-0.560999,-1.291469,-1.714437,-0.441328,0.254839,0.049768,0.0,5.0,76.0,180.0,28.0,1.0
162197,-0.61838,-1.281076,-1.740478,0.205118,-0.432949,0.6664100000000001,0.0,5.0,76.0,180.0,28.0,1.0
162198,-0.721545,-1.297059,-1.801573,0.335313,-0.226546,0.508783,0.0,5.0,76.0,180.0,28.0,1.0
162199,-0.810383,-1.31596,-1.87873,0.430669,0.022759,0.478558,0.0,5.0,76.0,180.0,28.0,1.0
162200,-0.8627290000000001,-1.323562,-1.938367,0.01091,0.416027,0.211823,0.0,5.0,76.0,180.0,28.0,1.0
162201,-0.877288,-1.321786,-1.954385,-0.069546,0.368612,0.06251,0.0,5.0,76.0,180.0,28.0,1.0
162202,-0.907428,-1.322169,-1.966635,-0.118309,0.246294,-0.030872000000000007,0.0,5.0,76.0,180.0,28.0,1.0
162203,-0.973483,-1.330817,-2.006038,-0.180034,-0.27864,0.053912,0.0,5.0,76.0,180.0,28.0,1.0
162204,-1.062036,-1.342341,-2.072333,-0.14038499999999998,-0.268146,0.033067,0.0,5.0,76.0,180.0,28.0,1.0
162205,-1.151252,-1.349361,-2.145314,0.027183,-0.006925,-0.015627000000000002,0.0,5.0,76.0,180.0,28.0,1.0
162206,-1.243564,-1.353005,-2.225661,0.12501600000000002,0.010775,-0.002587,0.0,5.0,76.0,180.0,28.0,1.0
162207,-1.343709,-1.355436,-2.313699,0.15725799999999998,-0.181901,0.035558,0.0,5.0,76.0,180.0,28.0,1.0
162208,-1.420983,-1.354749,-2.378693,0.165453,-0.083442,-0.181498,0.0,5.0,76.0,180.0,28.0,1.0
162209,-1.482644,-1.350425,-2.428397,0.280114,0.076231,-0.310564,0.0,5.0,76.0,180.0,28.0,1.0
162210,-1.529408,-1.346068,-2.46706,0.360766,0.113448,-0.221525,0.0,5.0,76.0,180.0,28.0,1.0
162211,-1.546394,-1.344757,-2.484324,0.22135900000000006,0.105562,-0.227199,0.0,5.0,76.0,180.0,28.0,1.0
162212,-1.533218,-1.345491,-2.469433,0.072055,-0.041834,-0.235811,0.0,5.0,76.0,180.0,28.0,1.0
162213,-1.493066,-1.345043,-2.429571,-0.011324,-0.123475,-0.203204,0.0,5.0,76.0,180.0,28.0,1.0
162214,-1.451279,-1.342784,-2.389378,-0.048817,-0.346142,-0.03763,0.0,5.0,76.0,180.0,28.0,1.0
162215,-1.393687,-1.336101,-2.333539,-0.020347,-0.197515,-0.206108,0.0,5.0,76.0,180.0,28.0,1.0
162216,-1.335617,-1.326781,-2.27692,0.059947,0.003974,-0.052662,0.0,5.0,76.0,180.0,28.0,1.0
162217,-1.280078,-1.318752,-2.224354,0.233824,0.066553,0.020445,0.0,5.0,76.0,180.0,28.0,1.0
162218,-1.222011,-1.315189,-2.17106,0.348727,0.004368,-0.05830700000000001,0.0,5.0,76.0,180.0,28.0,1.0
162219,-1.12925,-1.3150700000000002,-2.088006,0.245525,-0.002178,-0.247744,0.0,5.0,76.0,180.0,28.0,1.0
162220,-1.013553,-1.314169,-1.975049,0.06491799999999999,-0.026517,-0.079032,0.0,5.0,76.0,180.0,28.0,1.0
162221,-0.8755149999999999,-1.304574,-1.842244,0.035546,-0.124928,-0.078164,0.0,5.0,76.0,180.0,28.0,1.0
162222,-0.733119,-1.277304,-1.704134,0.032684,-0.101649,-0.085252,0.0,5.0,76.0,180.0,28.0,1.0
162223,-0.6193310000000001,-1.224474,-1.567001,-0.025431,0.08191,0.12061199999999997,0.0,5.0,76.0,180.0,28.0,1.0
162224,-0.539642,-1.160126,-1.458133,-0.07710399999999999,0.203782,0.429769,0.0,5.0,76.0,180.0,28.0,1.0
162225,-0.495409,-1.099269,-1.375361,-0.04366,0.296869,0.639001,0.0,5.0,76.0,180.0,28.0,1.0
162226,-0.444491,-1.062366,-1.29607,0.07180800000000001,0.574198,0.374274,0.0,5.0,76.0,180.0,28.0,1.0
162227,-0.387944,-1.038312,-1.217894,-0.052633000000000006,0.098794,0.509686,0.0,5.0,76.0,180.0,28.0,1.0
162228,-0.340919,-1.020678,-1.151494,-0.100538,-0.12445,0.586241,0.0,5.0,76.0,180.0,28.0,1.0
162229,-0.309213,-1.013041,-1.114659,-0.154032,-0.284633,0.549717,0.0,5.0,76.0,180.0,28.0,1.0
162230,-0.281872,-1.021503,-1.100709,-0.236406,-0.275028,0.248128,0.0,5.0,76.0,180.0,28.0,1.0
162231,-0.258072,-1.049018,-1.09594,-0.232844,-0.26824000000000003,0.215027,0.0,5.0,76.0,180.0,28.0,1.0
162232,-0.252823,-1.089998,-1.102991,-0.079707,-0.239363,0.222901,0.0,5.0,76.0,180.0,28.0,1.0
162233,-0.282091,-1.134743,-1.132548,-0.048647,-0.182304,0.187072,0.0,5.0,76.0,180.0,28.0,1.0
162234,-0.355486,-1.17929,-1.199191,-0.040555,-0.144398,0.106696,0.0,5.0,76.0,180.0,28.0,1.0
162235,-0.475556,-1.22388,-1.310084,0.038951,0.019276,0.044436,0.0,5.0,76.0,180.0,28.0,1.0
162236,-0.6273989999999999,-1.2616690000000002,-1.45074,0.032014999999999995,0.325416,0.036898,0.0,5.0,76.0,180.0,28.0,1.0
162237,-0.778257,-1.287273,-1.582906,0.059217,0.490928,-0.025651,0.0,5.0,76.0,180.0,28.0,1.0
162238,-0.893408,-1.303373,-1.66986,0.22957,0.167961,-0.276438,0.0,5.0,76.0,180.0,28.0,1.0
162239,-0.99491,-1.323448,-1.746639,0.243499,-0.16303099999999998,-0.327402,0.0,5.0,76.0,180.0,28.0,1.0
162240,-1.087452,-1.350774,-1.834271,0.135402,-0.449205,-0.250294,0.0,5.0,76.0,180.0,28.0,1.0
162241,-1.189286,-1.382132,-1.944091,-0.117789,-0.57982,-0.211598,0.0,5.0,76.0,180.0,28.0,1.0
162242,-1.305781,-1.404087,-2.068931,-0.292823,-0.427695,0.175402,0.0,5.0,76.0,180.0,28.0,1.0
162243,-1.383473,-1.412905,-2.1649,-0.407223,-0.049481,0.17236400000000002,0.0,5.0,76.0,180.0,28.0,1.0
162244,-1.415195,-1.414257,-2.194179,-0.417764,0.612599,-0.387778,0.0,5.0,76.0,180.0,28.0,1.0
162245,-1.378965,-1.404868,-2.124496,0.326737,0.6671159999999999,-0.897784,0.0,5.0,76.0,180.0,28.0,1.0
162246,-1.30743,-1.400092,-2.053412,0.349451,0.142037,0.328218,0.0,5.0,76.0,180.0,28.0,1.0
162247,-1.184777,-1.396963,-1.934114,-0.32361100000000004,0.557796,0.463074,0.0,5.0,76.0,180.0,28.0,1.0
162248,-1.084295,-1.386593,-1.799276,0.389669,0.596126,-0.027477,0.0,5.0,76.0,180.0,28.0,1.0
162249,-1.010381,-1.378284,-1.729098,0.32340100000000005,-0.08855199999999999,0.67152,0.0,5.0,76.0,180.0,28.0,1.0
162250,-0.995895,-1.379009,-1.722186,0.31040500000000004,-0.374289,-0.039497,0.0,5.0,76.0,180.0,28.0,1.0
162251,-1.04644,-1.380021,-1.7583689999999998,0.04216,0.352478,-0.169347,0.0,5.0,76.0,180.0,28.0,1.0
162252,-1.072377,-1.383289,-1.7909419999999998,0.023542,1.047298,-0.480864,0.0,5.0,76.0,180.0,28.0,1.0
162253,-1.0477610000000002,-1.390696,-1.7940509999999998,-0.027003,0.4423220000000001,-0.7799550000000001,0.0,5.0,76.0,180.0,28.0,1.0
162254,-0.965036,-1.39422,-1.732797,-0.366604,-0.111587,-0.27337,0.0,5.0,76.0,180.0,28.0,1.0
162255,-0.83344,-1.381659,-1.603178,-0.392957,-0.29691,-0.236563,0.0,5.0,76.0,180.0,28.0,1.0
162256,-0.704997,-1.353405,-1.475644,-0.276018,-0.397499,-0.00853,0.0,5.0,76.0,180.0,28.0,1.0
162257,-0.591737,-1.317071,-1.380721,-0.070105,-0.484616,0.274065,0.0,5.0,76.0,180.0,28.0,1.0
162258,-0.49272,-1.270562,-1.305685,0.055544,-0.372793,0.233483,0.0,5.0,76.0,180.0,28.0,1.0
162259,-0.440573,-1.221493,-1.250364,0.06587799999999999,-0.250875,0.7480760000000001,0.0,5.0,76.0,180.0,28.0,1.0
162260,-0.413838,-1.178377,-1.204978,0.110729,-0.318899,0.764261,0.0,5.0,76.0,180.0,28.0,1.0
162261,-0.388418,-1.136123,-1.152537,-0.0016079999999999998,-0.109416,0.275348,0.0,5.0,76.0,180.0,28.0,1.0
162262,-0.364954,-1.101265,-1.107798,-0.15278699999999998,0.396137,0.484254,0.0,5.0,76.0,180.0,28.0,1.0
162263,-0.341016,-1.086315,-1.082781,-0.17044,0.244829,0.459729,0.0,5.0,76.0,180.0,28.0,1.0
162264,-0.300931,-1.086997,-1.061236,-0.005808,-0.045726,0.318893,0.0,5.0,76.0,180.0,28.0,1.0
162265,-0.26779000000000003,-1.096015,-1.048163,-0.095489,-0.26555300000000004,0.280039,0.0,5.0,76.0,180.0,28.0,1.0
162266,-0.249245,-1.116069,-1.047608,-0.29193,-0.340596,0.319855,0.0,5.0,76.0,180.0,28.0,1.0
162267,-0.25411300000000003,-1.145112,-1.066876,-0.4242260000000001,-0.128499,0.242134,0.0,5.0,76.0,180.0,28.0,1.0
162268,-0.292145,-1.184803,-1.117495,-0.197531,-0.015185,-0.009487,0.0,5.0,76.0,180.0,28.0,1.0
162269,-0.381948,-1.230682,-1.219609,0.155947,0.07913400000000001,-0.231559,0.0,5.0,76.0,180.0,28.0,1.0
162270,-0.5297890000000001,-1.269671,-1.370647,0.373579,0.460189,-0.292078,0.0,5.0,76.0,180.0,28.0,1.0
162271,-0.683925,-1.296837,-1.512924,0.519079,0.597046,-0.324752,0.0,5.0,76.0,180.0,28.0,1.0
162272,-0.788099,-1.3169620000000002,-1.595734,0.505578,0.024994,-0.346104,0.0,5.0,76.0,180.0,28.0,1.0
162273,-0.8704059999999999,-1.338536,-1.6467459999999998,0.501946,-0.211552,-0.254782,0.0,5.0,76.0,180.0,28.0,1.0
162274,-0.95519,-1.364699,-1.703603,0.473565,-0.7450720000000001,0.110679,0.0,5.0,76.0,180.0,28.0,1.0
162275,-1.041664,-1.393177,-1.7780779999999998,0.171545,-0.901717,0.433732,0.0,5.0,76.0,180.0,28.0,1.0
162276,-1.112385,-1.418145,-1.86331,-0.143354,-0.646803,0.426236,0.0,5.0,76.0,180.0,28.0,1.0
162277,-1.145721,-1.435133,-1.905131,-0.841173,0.362292,-0.437774,0.0,5.0,76.0,180.0,28.0,1.0
162278,-1.083664,-1.430202,-1.817791,-0.643053,1.615962,-2.048669,0.0,5.0,76.0,180.0,28.0,1.0
162279,-0.942734,-1.398922,-1.650734,-0.218714,0.244715,0.263375,0.0,5.0,76.0,180.0,28.0,1.0
162280,-0.975736,-1.403915,-1.701523,-0.308236,0.24167600000000006,0.930129,0.0,5.0,76.0,180.0,28.0,1.0
162281,-0.921032,-1.391316,-1.628865,-0.284555,0.689357,-0.359591,0.0,5.0,76.0,180.0,28.0,1.0
162282,-0.824081,-1.3644969999999998,-1.548786,0.77582,0.871928,-0.265806,0.0,5.0,76.0,180.0,28.0,1.0
162283,-0.764227,-1.367102,-1.517852,0.734322,0.126921,-0.014537,0.0,5.0,76.0,180.0,28.0,1.0
162284,-0.6900270000000001,-1.360418,-1.460005,0.219512,-0.017259,-0.409307,0.0,5.0,76.0,180.0,28.0,1.0
162285,-0.642266,-1.34819,-1.412827,0.006182,0.096864,-0.124797,0.0,5.0,76.0,180.0,28.0,1.0
162286,-0.60605,-1.333304,-1.373328,-0.206738,0.33445,-0.265834,0.0,5.0,76.0,180.0,28.0,1.0
162287,-0.558587,-1.317715,-1.331424,-0.315497,-0.107626,-0.03831,0.0,5.0,76.0,180.0,28.0,1.0
162288,-0.479655,-1.295518,-1.276284,-0.265037,-0.327798,-0.115348,0.0,5.0,76.0,180.0,28.0,1.0
162289,-0.404796,-1.254138,-1.21543,-0.201547,-0.272974,-0.142218,0.0,5.0,76.0,180.0,28.0,1.0
162290,-0.351692,-1.202913,-1.170401,-0.128618,-0.32071,0.515129,0.0,5.0,76.0,180.0,28.0,1.0
162291,-0.317013,-1.153087,-1.13483,-0.073589,-0.322087,0.711395,0.0,5.0,76.0,180.0,28.0,1.0
162292,-0.299662,-1.110976,-1.098741,-0.041073,-0.382735,0.853699,0.0,5.0,76.0,180.0,28.0,1.0
162293,-0.273715,-1.077014,-1.0583129999999998,-0.011719,-0.5013810000000001,0.4301350000000001,0.0,5.0,76.0,180.0,28.0,1.0
162294,-0.24991,-1.054154,-1.031397,0.034104,-0.310202,0.382416,0.0,5.0,76.0,180.0,28.0,1.0
162295,-0.232808,-1.040631,-1.00758,0.001016,0.33645,0.554249,0.0,5.0,76.0,180.0,28.0,1.0
162296,-0.205143,-1.046272,-0.989736,-0.143789,0.4139020000000001,0.166742,0.0,5.0,76.0,180.0,28.0,1.0
162297,-0.189541,-1.065165,-0.985899,-0.051369000000000005,0.27839,0.14538199999999998,0.0,5.0,76.0,180.0,28.0,1.0
162298,-0.213172,-1.089899,-1.001615,-0.016641999999999997,0.119874,0.18607,0.0,5.0,76.0,180.0,28.0,1.0
162299,-0.257295,-1.126329,-1.040781,-0.239695,-0.285042,0.011985,0.0,5.0,76.0,180.0,28.0,1.0
162300,-0.319527,-1.174169,-1.109459,-0.142331,-0.30036,-0.07446799999999999,0.0,5.0,76.0,180.0,28.0,1.0
162301,-0.419477,-1.225582,-1.219502,-0.054461,-0.232156,-0.129589,0.0,5.0,76.0,180.0,28.0,1.0
162302,-0.575415,-1.267521,-1.390107,-0.038759,0.72151,0.030868,0.0,5.0,76.0,180.0,28.0,1.0
162303,-0.7289140000000001,-1.296084,-1.542214,0.024,0.775961,-0.051223000000000005,0.0,5.0,76.0,180.0,28.0,1.0
162304,-0.855049,-1.320333,-1.649244,0.235481,-0.194887,-0.33886700000000003,0.0,5.0,76.0,180.0,28.0,1.0
162305,-0.966463,-1.341736,-1.740884,0.278624,-0.608997,-0.33516,0.0,5.0,76.0,180.0,28.0,1.0
162306,-1.052434,-1.360998,-1.811506,0.517595,-0.818329,-0.113955,0.0,5.0,76.0,180.0,28.0,1.0
162307,-1.119118,-1.379626,-1.878762,0.352028,-0.73018,0.27987199999999995,0.0,5.0,76.0,180.0,28.0,1.0
162308,-1.160307,-1.39724,-1.945979,-0.16251400000000002,-0.328513,0.432399,0.0,5.0,76.0,180.0,28.0,1.0
162309,-1.150842,-1.409574,-1.949841,-0.509502,-0.134889,0.133081,0.0,5.0,76.0,180.0,28.0,1.0
162310,-1.060132,-1.396694,-1.820274,-0.482379,1.168407,-1.609668,0.0,5.0,76.0,180.0,28.0,1.0
162311,-0.994172,-1.371377,-1.724854,0.174009,0.064816,0.710303,0.0,5.0,76.0,180.0,28.0,1.0
162312,-1.007755,-1.382847,-1.766441,0.236679,0.037828,1.164919,0.0,5.0,76.0,180.0,28.0,1.0
162313,-0.935744,-1.381805,-1.6971349999999998,0.5426810000000001,1.465468,-0.688174,0.0,5.0,76.0,180.0,28.0,1.0
162314,-0.8699610000000001,-1.391934,-1.669576,0.6133390000000001,0.819435,-0.034141000000000005,0.0,5.0,76.0,180.0,28.0,1.0
162315,-0.794208,-1.410002,-1.6429049999999998,0.376353,0.28597100000000003,-0.12548800000000002,0.0,5.0,76.0,180.0,28.0,1.0
162316,-0.692647,-1.399819,-1.54843,-0.16894,0.11564,-0.5677270000000001,0.0,5.0,76.0,180.0,28.0,1.0
162317,-0.633506,-1.373932,-1.47568,-0.28318000000000004,0.215711,-0.163226,0.0,5.0,76.0,180.0,28.0,1.0
162318,-0.5563939999999999,-1.339146,-1.402654,-0.290055,0.226418,-0.250678,0.0,5.0,76.0,180.0,28.0,1.0
162319,-0.4547810000000001,-1.304058,-1.323141,-0.389432,-0.116613,-0.12079,0.0,5.0,76.0,180.0,28.0,1.0
162320,-0.324334,-1.265431,-1.233778,-0.157694,-0.191072,0.008517,0.0,5.0,76.0,180.0,28.0,1.0
162321,-0.218639,-1.216114,-1.157817,-0.010797,-0.254285,0.514269,0.0,5.0,76.0,180.0,28.0,1.0
162322,-0.164278,-1.1640620000000002,-1.094612,0.093657,-0.245322,0.960186,0.0,5.0,76.0,180.0,28.0,1.0
162323,-0.144226,-1.111704,-1.031265,0.108564,-0.468644,0.732375,0.0,5.0,76.0,180.0,28.0,1.0
162324,-0.115046,-1.05945,-0.971778,-0.096476,-0.649766,0.330024,0.0,5.0,76.0,180.0,28.0,1.0
162325,-0.106121,-1.025899,-0.948199,-0.223922,-0.104555,0.6099939999999999,0.0,5.0,76.0,180.0,28.0,1.0
162326,-0.102413,-1.013308,-0.943806,-0.07645199999999999,0.230133,0.550933,0.0,5.0,76.0,180.0,28.0,1.0
162327,-0.09246,-1.017656,-0.947519,0.009641,0.017605000000000003,0.35578000000000004,0.0,5.0,76.0,180.0,28.0,1.0
162328,-0.086914,-1.037528,-0.955159,-0.104967,-0.334859,0.274015,0.0,5.0,76.0,180.0,28.0,1.0
162329,-0.08897200000000001,-1.074655,-0.9671,-0.257462,-0.334229,0.297445,0.0,5.0,76.0,180.0,28.0,1.0
162330,-0.106007,-1.133788,-0.994613,-0.303716,-0.291688,0.237049,0.0,5.0,76.0,180.0,28.0,1.0
162331,-0.182513,-1.201962,-1.081517,-0.279492,-0.041742,0.038573,0.0,5.0,76.0,180.0,28.0,1.0
162332,-0.344852,-1.261565,-1.245868,0.051083,0.498436,-0.068579,0.0,5.0,76.0,180.0,28.0,1.0
162333,-0.523245,-1.307393,-1.419289,0.556236,1.294683,-0.132147,0.0,5.0,76.0,180.0,28.0,1.0
162334,-0.638867,-1.346027,-1.529512,1.008015,0.442345,-0.412386,0.0,5.0,76.0,180.0,28.0,1.0
162335,-0.725475,-1.383675,-1.607734,0.588119,-0.255249,-0.394741,0.0,5.0,76.0,180.0,28.0,1.0
162336,-0.790695,-1.4162549999999998,-1.6610169999999995,0.216629,-0.59732,-0.183663,0.0,5.0,76.0,180.0,28.0,1.0
162337,-0.830728,-1.43959,-1.6908040000000002,-0.167865,-0.5704600000000001,0.017725,0.0,5.0,76.0,180.0,28.0,1.0
162338,-0.821725,-1.451639,-1.700473,-0.641139,-0.082249,0.029563,0.0,5.0,76.0,180.0,28.0,1.0
162339,-0.7527510000000001,-1.446782,-1.6395669999999998,-0.969123,0.383306,-0.872612,0.0,5.0,76.0,180.0,28.0,1.0
162340,-0.715806,-1.414823,-1.5465870000000002,-0.5288689999999999,0.250024,-0.622394,0.0,5.0,76.0,180.0,28.0,1.0
162341,-0.7390140000000001,-1.40048,-1.551126,0.037878,0.090305,0.80909,0.0,5.0,76.0,180.0,28.0,1.0
162342,-0.77008,-1.397828,-1.571689,0.025116,0.5400229999999999,0.834218,0.0,5.0,76.0,180.0,28.0,1.0
162343,-0.745846,-1.39896,-1.55785,0.831191,1.148166,-0.333963,0.0,5.0,76.0,180.0,28.0,1.0
162344,-0.682091,-1.413699,-1.529253,0.676838,0.796754,-0.37175,0.0,5.0,76.0,180.0,28.0,1.0
162345,-0.649237,-1.41746,-1.494218,0.280016,0.172728,0.09184,0.0,5.0,76.0,180.0,28.0,1.0
162346,-0.611166,-1.397508,-1.436175,-0.007843000000000001,0.338967,-0.677653,0.0,5.0,76.0,180.0,28.0,1.0
162347,-0.564429,-1.37307,-1.374102,-0.325759,0.414168,-0.322167,0.0,5.0,76.0,180.0,28.0,1.0
162348,-0.489738,-1.343493,-1.309202,-0.5498069999999999,-0.169743,-0.29107,0.0,5.0,76.0,180.0,28.0,1.0
162349,-0.420567,-1.306338,-1.249711,-0.331832,-0.555475,0.214914,0.0,5.0,76.0,180.0,28.0,1.0
162350,-0.352645,-1.262425,-1.203266,-0.141368,-0.629602,0.207139,0.0,5.0,76.0,180.0,28.0,1.0
162351,-0.301202,-1.219798,-1.172094,-0.027014,-0.5193369999999999,0.504499,0.0,5.0,76.0,180.0,28.0,1.0
162352,-0.266965,-1.180944,-1.146417,0.032796,-0.478096,0.71348,0.0,5.0,76.0,180.0,28.0,1.0
162353,-0.25394,-1.1502139999999998,-1.118476,0.054288,-0.459574,0.459575,0.0,5.0,76.0,180.0,28.0,1.0
162354,-0.239726,-1.11723,-1.081324,0.14715699999999998,-0.142253,0.298036,0.0,5.0,76.0,180.0,28.0,1.0
162355,-0.230992,-1.087816,-1.050718,-0.003952000000000001,0.384207,0.6891649999999999,0.0,5.0,76.0,180.0,28.0,1.0
162356,-0.206698,-1.076188,-1.028272,-0.128275,0.403704,0.294588,0.0,5.0,76.0,180.0,28.0,1.0
162357,-0.181446,-1.082655,-1.015339,-0.063841,0.212344,0.150834,0.0,5.0,76.0,180.0,28.0,1.0
162358,-0.173793,-1.1025,-1.016651,-0.117585,-0.165776,0.19254,0.0,5.0,76.0,180.0,28.0,1.0
162359,-0.196367,-1.12986,-1.04277,-0.291505,-0.215891,0.31745,0.0,5.0,76.0,180.0,28.0,1.0
162360,-0.257293,-1.159993,-1.102398,-0.496545,-0.243842,0.29643200000000003,0.0,5.0,76.0,180.0,28.0,1.0
162361,-0.350972,-1.197264,-1.200195,-0.37351,-0.042433,0.189613,0.0,5.0,76.0,180.0,28.0,1.0
162362,-0.482846,-1.23602,-1.335512,-0.048267,0.416005,-0.116679,0.0,5.0,76.0,180.0,28.0,1.0
162363,-0.644604,-1.263216,-1.478831,0.456637,0.665141,-0.461755,0.0,5.0,76.0,180.0,28.0,1.0
162364,-0.7770090000000001,-1.287416,-1.573773,0.867576,0.090544,-0.648105,0.0,5.0,76.0,180.0,28.0,1.0
162365,-0.8648100000000001,-1.3230540000000002,-1.632615,0.999226,-0.516634,-0.363927,0.0,5.0,76.0,180.0,28.0,1.0
162366,-0.947396,-1.365626,-1.7145720000000002,0.8910959999999999,-0.8818280000000001,0.059159,0.0,5.0,76.0,180.0,28.0,1.0
162367,-1.006982,-1.399474,-1.7890080000000002,0.129798,-0.5328609999999999,0.8391559999999999,0.0,5.0,76.0,180.0,28.0,1.0
162368,-0.920685,-1.408768,-1.722825,-1.010917,0.160681,-0.5252720000000001,0.0,5.0,76.0,180.0,28.0,1.0
162369,-0.781313,-1.387407,-1.563443,-1.7193470000000002,1.477782,-2.064333,0.0,5.0,76.0,180.0,28.0,1.0
162370,-0.807365,-1.359458,-1.508357,-0.132645,0.336107,-0.09613,0.0,5.0,76.0,180.0,28.0,1.0
162371,-0.8002229999999999,-1.361582,-1.52028,0.222765,-0.214523,1.257917,0.0,5.0,76.0,180.0,28.0,1.0
162372,-0.734561,-1.349969,-1.469951,0.22671,-0.242974,1.091294,0.0,5.0,76.0,180.0,28.0,1.0
162373,-0.69408,-1.342937,-1.4480879999999998,0.622516,1.747375,-0.752318,0.0,5.0,76.0,180.0,28.0,1.0
162374,-0.666438,-1.348331,-1.440178,0.394716,0.492676,0.355142,0.0,5.0,76.0,180.0,28.0,1.0
162375,-0.642762,-1.335249,-1.416674,0.145709,0.155604,-0.379494,0.0,5.0,76.0,180.0,28.0,1.0
162376,-0.64755,-1.318625,-1.4091870000000002,0.071725,0.361644,-0.08855,0.0,5.0,76.0,180.0,28.0,1.0
162377,-0.627679,-1.305314,-1.390796,-0.132449,0.467529,-0.321185,0.0,5.0,76.0,180.0,28.0,1.0
162378,-0.5826020000000001,-1.294732,-1.358689,-0.246319,0.144188,-0.196353,0.0,5.0,76.0,180.0,28.0,1.0
162379,-0.5143409999999999,-1.277964,-1.312316,-0.190581,-0.090563,-0.25114699999999995,0.0,5.0,76.0,180.0,28.0,1.0
162380,-0.4345060000000001,-1.251443,-1.257991,0.05267,-0.189795,0.08230499999999999,0.0,5.0,76.0,180.0,28.0,1.0
162381,-0.362724,-1.214576,-1.206876,0.095381,-0.200512,0.272497,0.0,5.0,76.0,180.0,28.0,1.0
162382,-0.31622100000000003,-1.172832,-1.159235,0.087049,-0.234214,0.534296,0.0,5.0,76.0,180.0,28.0,1.0
162383,-0.295639,-1.13992,-1.110098,0.094767,-0.562912,0.8253440000000001,0.0,5.0,76.0,180.0,28.0,1.0
162384,-0.281824,-1.1056979999999998,-1.05135,0.122625,-0.693476,0.656405,0.0,5.0,76.0,180.0,28.0,1.0
162385,-0.274196,-1.068686,-1.005486,0.11037,-0.7863439999999999,0.414565,0.0,5.0,76.0,180.0,28.0,1.0
162386,-0.288193,-1.043641,-0.986068,-0.248483,-0.090484,0.62064,0.0,5.0,76.0,180.0,28.0,1.0
162387,-0.286483,-1.038225,-0.9756,-0.252275,0.116645,0.612061,0.0,5.0,76.0,180.0,28.0,1.0
162388,-0.277462,-1.048814,-0.97624,-0.197413,0.253575,0.510434,0.0,5.0,76.0,180.0,28.0,1.0
162389,-0.277668,-1.071357,-0.986506,-0.258278,0.033282,0.420569,0.0,5.0,76.0,180.0,28.0,1.0
162390,-0.300584,-1.106484,-1.01375,-0.432909,0.083821,0.357023,0.0,5.0,76.0,180.0,28.0,1.0
162391,-0.352583,-1.153789,-1.080549,-0.449496,0.064913,0.180404,0.0,5.0,76.0,180.0,28.0,1.0
162392,-0.468204,-1.200381,-1.197456,0.135541,0.376066,-0.326463,0.0,5.0,76.0,180.0,28.0,1.0
162393,-0.640087,-1.233909,-1.344913,0.267481,0.653776,-0.345574,0.0,5.0,76.0,180.0,28.0,1.0
162394,-0.791496,-1.265025,-1.466341,0.396325,0.8570540000000001,-0.313516,0.0,5.0,76.0,180.0,28.0,1.0
162395,-0.8966049999999999,-1.304821,-1.570574,0.052012,-0.086632,-0.150278,0.0,5.0,76.0,180.0,28.0,1.0
162396,-0.970539,-1.348695,-1.677525,-0.084129,-0.245395,-0.23932,0.0,5.0,76.0,180.0,28.0,1.0
162397,-1.079211,-1.383703,-1.8193580000000005,-0.133444,-0.4263810000000001,-0.33407,0.0,5.0,76.0,180.0,28.0,1.0
162398,-1.183945,-1.4001629999999998,-1.926532,0.343487,-0.38303,-0.30319,0.0,5.0,76.0,180.0,28.0,1.0
162399,-1.259642,-1.408357,-1.994384,0.12875899999999998,-0.049824,0.718533,0.0,5.0,76.0,180.0,28.0,1.0
162400,-1.34138,-1.413853,-2.057111,-0.452987,0.497764,-0.031958999999999994,0.0,5.0,76.0,180.0,28.0,1.0
162401,-1.314998,-1.404449,-1.993121,-0.704882,0.7325689999999999,-1.407231,0.0,5.0,76.0,180.0,28.0,1.0
162402,-1.226732,-1.385598,-1.902307,-0.243325,0.127421,0.25052800000000003,0.0,5.0,76.0,180.0,28.0,1.0
162403,-1.215688,-1.383224,-1.918107,-0.248105,0.253716,0.640227,0.0,5.0,76.0,180.0,28.0,1.0
162404,-1.256996,-1.380034,-1.930307,-0.205976,1.012006,-0.183706,0.0,5.0,76.0,180.0,28.0,1.0
162405,-1.336323,-1.37868,-2.00102,0.357111,0.8762469999999999,0.030769,0.0,5.0,76.0,180.0,28.0,1.0
162406,-1.410208,-1.38143,-2.088478,0.537342,0.13805499999999998,0.14761400000000002,0.0,5.0,76.0,180.0,28.0,1.0
162407,-1.4410690000000002,-1.3783530000000002,-2.132151,0.157068,0.002377,-0.184219,0.0,5.0,76.0,180.0,28.0,1.0
162408,-1.455762,-1.369127,-2.152385,-0.020381,0.047137,-0.313562,0.0,5.0,76.0,180.0,28.0,1.0
162409,-1.486335,-1.356544,-2.175607,-0.262781,0.191382,-0.415798,0.0,5.0,76.0,180.0,28.0,1.0
162410,-1.503263,-1.339381,-2.192802,-0.14305199999999998,-0.018372,-0.096586,0.0,5.0,76.0,180.0,28.0,1.0
162411,-1.509232,-1.319996,-2.207924,-0.008006999999999998,-0.09582,-0.157402,0.0,5.0,76.0,180.0,28.0,1.0
162412,-1.509036,-1.29809,-2.215838,0.362828,-0.043414,0.074025,0.0,5.0,76.0,180.0,28.0,1.0
162413,-1.508413,-1.276202,-2.219113,0.545261,-0.104595,-0.068448,0.0,5.0,76.0,180.0,28.0,1.0
162414,-1.505717,-1.25755,-2.225749,0.576659,-0.194106,-0.109052,0.0,5.0,76.0,180.0,28.0,1.0
162415,-1.504627,-1.239895,-2.2284650000000004,0.3186,-0.143458,-0.318943,0.0,5.0,76.0,180.0,28.0,1.0
162416,-1.496144,-1.22494,-2.217258,0.250459,-0.132009,-0.405154,0.0,5.0,76.0,180.0,28.0,1.0
162417,-1.456562,-1.207974,-2.166181,0.112568,-0.158089,-0.625884,0.0,5.0,76.0,180.0,28.0,1.0
162418,-1.389112,-1.183786,-2.076055,0.087387,-0.051362,-0.25612,0.0,5.0,76.0,180.0,28.0,1.0
162419,-1.3099809999999998,-1.15686,-1.966365,0.243541,0.204481,0.120971,0.0,5.0,76.0,180.0,28.0,1.0
162420,-1.2318129999999998,-1.134898,-1.844059,0.331177,0.521472,0.192534,0.0,5.0,76.0,180.0,28.0,1.0
162421,-1.157959,-1.124248,-1.7302529999999998,0.4128270000000001,0.896748,0.5578850000000001,0.0,5.0,76.0,180.0,28.0,1.0
162422,-1.071359,-1.127105,-1.630146,0.470681,0.442316,0.514606,0.0,5.0,76.0,180.0,28.0,1.0
162423,-0.975501,-1.136742,-1.532628,0.458409,1.182652,0.024496,0.0,5.0,76.0,180.0,28.0,1.0
162424,-0.905099,-1.156987,-1.441343,0.3955,1.426934,0.13808299999999998,0.0,5.0,76.0,180.0,28.0,1.0
162425,-0.848613,-1.184414,-1.352406,0.187033,0.567008,0.296709,0.0,5.0,76.0,180.0,28.0,1.0
162426,-0.7762760000000001,-1.199084,-1.2433459999999998,-0.055201,0.312815,0.416082,0.0,5.0,76.0,180.0,28.0,1.0
162427,-0.7162930000000001,-1.210316,-1.137289,-0.11551,0.169375,0.425997,0.0,5.0,76.0,180.0,28.0,1.0
162428,-0.675999,-1.2172690000000002,-1.029187,0.123706,0.045897,0.458684,0.0,5.0,76.0,180.0,28.0,1.0
162429,-0.6452720000000001,-1.21212,-0.907573,0.11821,0.047692,0.469067,0.0,5.0,76.0,180.0,28.0,1.0
162430,-0.6240100000000001,-1.20428,-0.791421,0.100064,-0.079593,0.456644,0.0,5.0,76.0,180.0,28.0,1.0
162431,-0.609803,-1.198734,-0.681801,0.062849,-0.371857,0.5365840000000001,0.0,5.0,76.0,180.0,28.0,1.0
162432,-0.597382,-1.197489,-0.577793,0.059784,-0.371403,0.5401060000000001,0.0,5.0,76.0,180.0,28.0,1.0
162433,-0.591699,-1.198618,-0.489754,-0.042877,-0.543171,0.442173,0.0,5.0,76.0,180.0,28.0,1.0
162434,-0.602617,-1.2021540000000002,-0.421698,-0.05630900000000001,-0.371767,0.433898,0.0,5.0,76.0,180.0,28.0,1.0
162435,-0.62583,-1.2101030000000002,-0.372757,-0.038123,-0.29634,0.4295890000000001,0.0,5.0,76.0,180.0,28.0,1.0
162436,-0.639985,-1.222658,-0.33205100000000004,-0.049001,-0.238136,0.314864,0.0,5.0,76.0,180.0,28.0,1.0
162437,-0.63441,-1.235865,-0.291878,-0.201125,0.080286,-0.411893,0.0,5.0,76.0,180.0,28.0,1.0
162438,-0.62383,-1.239787,-0.241805,-0.149797,0.17215899999999998,-0.486678,0.0,5.0,76.0,180.0,28.0,1.0
162439,-0.615665,-1.231105,-0.188342,-0.028829,0.369307,-0.5134770000000001,0.0,5.0,76.0,180.0,28.0,1.0
162440,-0.598267,-1.2178639999999998,-0.130895,0.178305,0.387778,-0.456955,0.0,5.0,76.0,180.0,28.0,1.0
162441,-0.586191,-1.208879,-0.07834400000000001,0.33076,0.001472,-0.16506600000000002,0.0,5.0,76.0,180.0,28.0,1.0
162442,-0.5769989999999999,-1.20526,-0.035139,0.199774,-0.312045,0.015552000000000003,0.0,5.0,76.0,180.0,28.0,1.0
162443,-0.569091,-1.214147,-0.005754,0.192735,-0.188247,0.121958,0.0,5.0,76.0,180.0,28.0,1.0
162444,-0.57614,-1.231986,-0.038566,-0.08305599999999999,0.704753,0.918678,0.0,5.0,76.0,180.0,28.0,1.0
162445,-0.5810609999999999,-1.213573,-0.097884,-0.739757,1.363498,-0.509428,0.0,5.0,76.0,180.0,28.0,1.0
162446,-0.5758840000000001,-1.161237,-0.080166,-0.05897300000000001,-0.553237,1.2278870000000002,0.0,5.0,76.0,180.0,28.0,1.0
162447,-0.633676,-1.149257,-0.098528,0.10562,-1.046463,1.205647,0.0,5.0,76.0,180.0,28.0,1.0
162448,-0.6939390000000001,-1.177558,-0.147952,0.085758,-0.615232,0.829997,0.0,5.0,76.0,180.0,28.0,1.0
162449,-0.761592,-1.213907,-0.243425,0.028485000000000007,0.47915,0.917488,0.0,5.0,76.0,180.0,28.0,1.0
162450,-0.847656,-1.2402540000000002,-0.364634,0.029293,0.8243209999999999,0.876149,0.0,5.0,76.0,180.0,28.0,1.0
162451,-0.933321,-1.24536,-0.463971,0.398373,0.982542,0.13873,0.0,5.0,76.0,180.0,28.0,1.0
162452,-1.014824,-1.23742,-0.51882,0.479711,0.131824,-0.225486,0.0,5.0,76.0,180.0,28.0,1.0
162453,-1.123235,-1.241035,-0.584427,0.133177,-0.262694,0.243276,0.0,5.0,76.0,180.0,28.0,1.0
162454,-1.217831,-1.254797,-0.659292,-0.150496,-0.30758800000000003,0.252772,0.0,5.0,76.0,180.0,28.0,1.0
162455,-1.304742,-1.265687,-0.739664,-0.204356,-0.1281,0.024211,0.0,5.0,76.0,180.0,28.0,1.0
162456,-1.406319,-1.267736,-0.824285,-0.055516,-0.140966,0.002138,0.0,5.0,76.0,180.0,28.0,1.0
162457,-1.514897,-1.263036,-0.916929,0.15703399999999998,-0.089977,0.06562899999999999,0.0,5.0,76.0,180.0,28.0,1.0
162458,-1.616375,-1.2572020000000002,-1.012947,0.278723,-0.131727,0.146087,0.0,5.0,76.0,180.0,28.0,1.0
162459,-1.69645,-1.250722,-1.095001,0.235099,-0.110741,-0.008498,0.0,5.0,76.0,180.0,28.0,1.0
162460,-1.759974,-1.24147,-1.157985,0.162286,0.148115,-0.188954,0.0,5.0,76.0,180.0,28.0,1.0
162461,-1.823252,-1.226194,-1.205548,0.225583,0.31912,0.017661000000000003,0.0,5.0,76.0,180.0,28.0,1.0
162462,-1.886548,-1.2099959999999998,-1.240741,0.396639,0.342614,0.04784,0.0,5.0,76.0,180.0,28.0,1.0
162463,-1.931824,-1.19889,-1.277283,0.373218,0.115712,-0.15295,0.0,5.0,76.0,180.0,28.0,1.0
162464,-1.96506,-1.189851,-1.319798,0.062775,0.069962,-0.168076,0.0,5.0,76.0,180.0,28.0,1.0
162465,-1.998388,-1.175415,-1.354313,0.045571,0.101076,-0.265343,0.0,5.0,76.0,180.0,28.0,1.0
162466,-2.0184580000000003,-1.156433,-1.36969,0.258891,0.168993,-0.332357,0.0,5.0,76.0,180.0,28.0,1.0
162467,-2.020148,-1.138427,-1.365632,0.522849,0.233107,-0.299802,0.0,5.0,76.0,180.0,28.0,1.0
162468,-2.013318,-1.125621,-1.347189,0.560042,0.245399,-0.399155,0.0,5.0,76.0,180.0,28.0,1.0
162469,-2.002637,-1.119814,-1.320548,0.191866,0.292577,-0.495598,0.0,5.0,76.0,180.0,28.0,1.0
162470,-1.978329,-1.1166969999999998,-1.274706,0.03625,0.29484,-0.415731,0.0,5.0,76.0,180.0,28.0,1.0
162471,-1.927349,-1.112315,-1.194667,0.122264,0.283175,-0.370448,0.0,5.0,76.0,180.0,28.0,1.0
162472,-1.843232,-1.110631,-1.072543,0.321037,0.654131,-0.258178,0.0,5.0,76.0,180.0,28.0,1.0
162473,-1.734431,-1.11511,-0.922222,0.46404,0.350774,-0.185915,0.0,5.0,76.0,180.0,28.0,1.0
162474,-1.616834,-1.125578,-0.759984,0.563479,0.238108,0.246585,0.0,5.0,76.0,180.0,28.0,1.0
162475,-1.514099,-1.138585,-0.597079,0.6293529999999999,0.264642,0.563729,0.0,5.0,76.0,180.0,28.0,1.0
162476,-1.424289,-1.151552,-0.440312,0.291926,0.420771,0.366948,0.0,5.0,76.0,180.0,28.0,1.0
162477,-1.321343,-1.165154,-0.287371,0.166174,0.5072220000000001,0.348619,0.0,5.0,76.0,180.0,28.0,1.0
162478,-1.207011,-1.173184,-0.146049,0.065319,0.523019,0.28691,0.0,5.0,76.0,180.0,28.0,1.0
162479,-1.125237,-1.185978,-0.037889,0.164285,0.389387,0.379559,0.0,5.0,76.0,180.0,28.0,1.0
162480,-1.065244,-1.204016,0.056094000000000005,0.186872,0.274872,0.427996,0.0,5.0,76.0,180.0,28.0,1.0
162481,-0.97483,-1.211059,0.191223,0.211337,0.15473900000000002,0.5236649999999999,0.0,5.0,76.0,180.0,28.0,1.0
162482,-0.86955,-1.205376,0.34430900000000003,0.231748,-0.114928,0.29195,0.0,5.0,76.0,180.0,28.0,1.0
162483,-0.780886,-1.202104,0.4833,0.239619,-0.066375,0.330481,0.0,5.0,76.0,180.0,28.0,1.0
162484,-0.718028,-1.197231,0.611815,0.270216,-0.067125,0.424861,0.0,5.0,76.0,180.0,28.0,1.0
162485,-0.678574,-1.189889,0.729036,0.309174,-0.089018,0.557992,0.0,5.0,76.0,180.0,28.0,1.0
162486,-0.6623439999999999,-1.1825290000000002,0.8278110000000001,0.21648,-0.118926,0.570829,0.0,5.0,76.0,180.0,28.0,1.0
162487,-0.659812,-1.177188,0.913112,0.136826,-0.121453,0.596056,0.0,5.0,76.0,180.0,28.0,1.0
162488,-0.661672,-1.17435,0.992972,-0.151605,-0.166671,0.534559,0.0,5.0,76.0,180.0,28.0,1.0
162489,-0.6594439999999999,-1.180939,1.066174,-0.176292,-0.275503,0.470005,0.0,5.0,76.0,180.0,28.0,1.0
162490,-0.657391,-1.19619,1.121408,-0.204218,-0.477298,0.262152,0.0,5.0,76.0,180.0,28.0,1.0
162491,-0.674305,-1.217255,1.1408120000000002,-0.007693999999999999,-0.364651,0.103425,0.0,5.0,76.0,180.0,28.0,1.0
162492,-0.718014,-1.240427,1.130669,0.115697,-0.306701,0.136286,0.0,5.0,76.0,180.0,28.0,1.0
162493,-0.785092,-1.26386,1.0977059999999998,0.055892,0.111724,-0.086754,0.0,5.0,76.0,180.0,28.0,1.0
162494,-0.8702129999999999,-1.2813290000000002,1.048304,-0.187512,0.688027,-0.618907,0.0,5.0,76.0,180.0,28.0,1.0
162495,-0.910755,-1.283013,1.042609,-0.181875,0.896548,-0.910019,0.0,5.0,76.0,180.0,28.0,1.0
162496,-0.879453,-1.275523,1.109968,0.17716600000000002,0.37804,-0.411819,0.0,5.0,76.0,180.0,28.0,1.0
162497,-0.826067,-1.269906,1.19366,0.034497,-0.320414,-0.107694,0.0,5.0,76.0,180.0,28.0,1.0
162498,-0.770455,-1.2736610000000002,1.267967,0.010045,-0.4859189999999999,-0.115833,0.0,5.0,76.0,180.0,28.0,1.0
162499,-0.7828430000000001,-1.301707,1.245443,0.08226,-0.190255,1.379424,0.0,5.0,76.0,180.0,28.0,1.0
162500,-0.842211,-1.31722,1.135912,-0.6352359999999999,0.629055,-0.116301,0.0,5.0,76.0,180.0,28.0,1.0
162501,-0.8822409999999999,-1.298326,1.081198,-0.986104,1.127528,-1.297618,0.0,5.0,76.0,180.0,28.0,1.0
162502,-0.945173,-1.271415,1.076027,0.405824,-0.332793,1.0747790000000002,0.0,5.0,76.0,180.0,28.0,1.0
162503,-1.043159,-1.266458,1.0290629999999998,0.715731,-0.379827,0.693451,0.0,5.0,76.0,180.0,28.0,1.0
162504,-1.128276,-1.272338,0.956683,0.465845,0.028874,0.290362,0.0,5.0,76.0,180.0,28.0,1.0
162505,-1.16843,-1.28133,0.912026,0.22906,0.229348,0.221827,0.0,5.0,76.0,180.0,28.0,1.0
162506,-1.203101,-1.292409,0.868244,0.086301,0.374697,0.089937,0.0,5.0,76.0,180.0,28.0,1.0
162507,-1.242716,-1.301219,0.833635,0.062267,0.174407,-0.055735,0.0,5.0,76.0,180.0,28.0,1.0
162508,-1.300368,-1.306675,0.8010109999999999,0.003385,-0.127325,-0.01999,0.0,5.0,76.0,180.0,28.0,1.0
162509,-1.373947,-1.310924,0.7547520000000001,-0.161967,-0.181465,-0.06744299999999999,0.0,5.0,76.0,180.0,28.0,1.0
162510,-1.443964,-1.312333,0.705231,-0.117482,-0.205843,-0.135902,0.0,5.0,76.0,180.0,28.0,1.0
162511,-1.49549,-1.310584,0.669922,0.124042,-0.146099,-0.15307,0.0,5.0,76.0,180.0,28.0,1.0
162512,-1.527548,-1.307337,0.65037,0.304772,0.010854,-0.202655,0.0,5.0,76.0,180.0,28.0,1.0
162513,-1.547691,-1.306265,0.639324,0.363125,0.046092,-0.232684,0.0,5.0,76.0,180.0,28.0,1.0
162514,-1.56015,-1.30787,0.630089,0.376051,-0.037212,-0.194621,0.0,5.0,76.0,180.0,28.0,1.0
162515,-1.555436,-1.311301,0.632708,0.373192,-0.096067,-0.08018099999999999,0.0,5.0,76.0,180.0,28.0,1.0
162516,-1.531536,-1.315376,0.656621,0.323494,-0.103299,-0.085895,0.0,5.0,76.0,180.0,28.0,1.0
162517,-1.507516,-1.317841,0.696375,0.015291,-0.17760399999999998,-0.288894,0.0,5.0,76.0,180.0,28.0,1.0
162518,-1.472977,-1.319218,0.745388,0.03756,0.00795,-0.092819,0.0,5.0,76.0,180.0,28.0,1.0
162519,-1.395744,-1.318711,0.8189890000000001,-0.0007160000000000001,0.105779,-0.224725,0.0,5.0,76.0,180.0,28.0,1.0
162520,-1.323202,-1.317141,0.883545,-0.054182000000000015,-0.041244,-0.104738,0.0,5.0,76.0,180.0,28.0,1.0
162521,-1.227117,-1.315639,0.959888,0.008357999999999999,-0.14915699999999998,-0.134707,0.0,5.0,76.0,180.0,28.0,1.0
162522,-1.080192,-1.30718,1.089955,0.122144,-0.169052,-0.316712,0.0,5.0,76.0,180.0,28.0,1.0
162523,-0.881998,-1.276721,1.282965,-0.060765,-0.031884,-0.104005,0.0,5.0,76.0,180.0,28.0,1.0
162524,-0.720456,-1.231508,1.441991,-0.116857,-0.188246,0.159108,0.0,5.0,76.0,180.0,28.0,1.0
162525,-0.604992,-1.180572,1.56926,0.13129000000000002,-0.299244,0.813398,0.0,5.0,76.0,180.0,28.0,1.0
162526,-0.534539,-1.130568,1.663806,0.292682,-0.379081,0.5410189999999999,0.0,5.0,76.0,180.0,28.0,1.0
162527,-0.495594,-1.095959,1.739126,0.381538,0.149833,0.412842,0.0,5.0,76.0,180.0,28.0,1.0
162528,-0.459483,-1.068511,1.806977,0.384568,0.353847,0.493834,0.0,5.0,76.0,180.0,28.0,1.0
162529,-0.423027,-1.056731,1.857118,0.24591,0.426077,0.546022,0.0,5.0,76.0,180.0,28.0,1.0
162530,-0.395327,-1.059958,1.88058,-0.208617,0.002314,0.301134,0.0,5.0,76.0,180.0,28.0,1.0
162531,-0.380538,-1.078518,1.876887,-0.328639,0.044462,0.287706,0.0,5.0,76.0,180.0,28.0,1.0
162532,-0.367167,-1.121264,1.864813,-0.430334,0.168182,0.230031,0.0,5.0,76.0,180.0,28.0,1.0
162533,-0.38812,-1.178785,1.831122,-0.075361,0.137625,-0.281851,0.0,5.0,76.0,180.0,28.0,1.0
162534,-0.457404,-1.233814,1.75997,0.1293,-0.002625,-0.330092,0.0,5.0,76.0,180.0,28.0,1.0
162535,-0.570177,-1.277796,1.639401,0.63448,-0.165481,-0.047124,0.0,5.0,76.0,180.0,28.0,1.0
162536,-0.692487,-1.315558,1.497164,0.5165810000000001,0.005099,0.213431,0.0,5.0,76.0,180.0,28.0,1.0
162537,-0.821227,-1.347545,1.364007,0.06390499999999999,0.219794,0.095355,0.0,5.0,76.0,180.0,28.0,1.0
162538,-0.930737,-1.36538,1.274782,0.06677899999999999,0.032544,-0.354918,0.0,5.0,76.0,180.0,28.0,1.0
162539,-1.052836,-1.376968,1.201129,0.411467,-0.495343,-0.432138,0.0,5.0,76.0,180.0,28.0,1.0
162540,-1.197738,-1.386139,1.11693,0.586767,-0.832425,-0.01423,0.0,5.0,76.0,180.0,28.0,1.0
162541,-1.316708,-1.395181,1.022976,0.271652,-1.051865,0.137668,0.0,5.0,76.0,180.0,28.0,1.0
162542,-1.435361,-1.4038700000000002,0.910752,-0.345544,-0.732896,0.172252,0.0,5.0,76.0,180.0,28.0,1.0
162543,-1.59448,-1.414168,0.7672260000000001,-0.562761,-0.402767,0.193146,0.0,5.0,76.0,180.0,28.0,1.0
162544,-1.633906,-1.4184370000000002,0.752881,-1.142709,1.958713,-1.361252,0.0,5.0,76.0,180.0,28.0,1.0
162545,-1.484811,-1.414389,0.906327,0.398024,0.801162,-0.115809,0.0,5.0,76.0,180.0,28.0,1.0
162546,-1.373492,-1.423597,0.998927,0.345117,0.274974,0.520957,0.0,5.0,76.0,180.0,28.0,1.0
162547,-1.128819,-1.424508,1.251551,0.288671,0.952759,0.061604999999999986,0.0,5.0,76.0,180.0,28.0,1.0
162548,-0.932366,-1.413694,1.408523,0.076814,-0.29344000000000003,0.5809380000000001,0.0,5.0,76.0,180.0,28.0,1.0
162549,-0.8940170000000001,-1.402222,1.451283,0.104712,-0.146424,-0.078137,0.0,5.0,76.0,180.0,28.0,1.0
162550,-0.943354,-1.391829,1.416908,0.347941,0.415203,-0.074461,0.0,5.0,76.0,180.0,28.0,1.0
162551,-0.986442,-1.390545,1.3733229999999998,0.239088,0.815609,-0.20113,0.0,5.0,76.0,180.0,28.0,1.0
162552,-0.969425,-1.39105,1.368049,0.179997,0.583997,-0.749084,0.0,5.0,76.0,180.0,28.0,1.0
162553,-0.8743989999999999,-1.387702,1.437449,-0.003913000000000001,0.203788,-0.398361,0.0,5.0,76.0,180.0,28.0,1.0
162554,-0.72424,-1.367049,1.5808870000000002,-0.280606,0.024881,-0.517255,0.0,5.0,76.0,180.0,28.0,1.0
162555,-0.582825,-1.326706,1.7245150000000002,-0.318954,-0.235693,0.135373,0.0,5.0,76.0,180.0,28.0,1.0
162556,-0.466818,-1.275678,1.828565,-0.26060900000000004,-0.398433,0.436438,0.0,5.0,76.0,180.0,28.0,1.0
162557,-0.378713,-1.229225,1.90618,-0.09038,-0.394027,0.777187,0.0,5.0,76.0,180.0,28.0,1.0
162558,-0.31302,-1.199291,1.978085,-0.049871,-0.398991,0.818812,0.0,5.0,76.0,180.0,28.0,1.0
162559,-0.26491,-1.15076,2.059418,0.057617,-0.460605,0.71878,0.0,5.0,76.0,180.0,28.0,1.0
162560,-0.242501,-1.101173,2.111828,0.06739400000000001,-0.569824,0.27265500000000004,0.0,5.0,76.0,180.0,28.0,1.0
162561,-0.230453,-1.073198,2.134686,-0.075972,-0.403817,0.486644,0.0,5.0,76.0,180.0,28.0,1.0
162562,-0.196071,-1.06881,2.148581,-0.238141,0.22823,0.5864090000000001,0.0,5.0,76.0,180.0,28.0,1.0
162563,-0.160642,-1.091944,2.145224,-0.082842,0.474613,0.193998,0.0,5.0,76.0,180.0,28.0,1.0
162564,-0.148632,-1.133114,2.131097,-0.137006,0.417582,0.158229,0.0,5.0,76.0,180.0,28.0,1.0
162565,-0.184362,-1.178158,2.094344,0.11056,-0.184782,0.021054,0.0,5.0,76.0,180.0,28.0,1.0
162566,-0.27839200000000003,-1.22397,2.008902,0.213585,-0.515011,-0.146688,0.0,5.0,76.0,180.0,28.0,1.0
162567,-0.427611,-1.271711,1.869291,0.26082,-0.609201,-0.227573,0.0,5.0,76.0,180.0,28.0,1.0
162568,-0.644174,-1.313831,1.6628459999999998,0.476153,0.013028,0.044391,0.0,5.0,76.0,180.0,28.0,1.0
162569,-0.887437,-1.334904,1.440784,0.248434,0.596785,0.107076,0.0,5.0,76.0,180.0,28.0,1.0
162570,-1.041438,-1.340971,1.319664,0.05819700000000001,0.518786,-0.28583000000000003,0.0,5.0,76.0,180.0,28.0,1.0
162571,-1.1699540000000002,-1.348569,1.221148,0.319105,-0.25672,-0.406158,0.0,5.0,76.0,180.0,28.0,1.0
162572,-1.292095,-1.368216,1.101446,0.520967,-0.877668,-0.271367,0.0,5.0,76.0,180.0,28.0,1.0
162573,-1.401957,-1.395161,0.951352,0.378374,-0.813153,0.184672,0.0,5.0,76.0,180.0,28.0,1.0
162574,-1.51833,-1.4143370000000002,0.820416,-0.5400550000000001,-0.282905,0.144643,0.0,5.0,76.0,180.0,28.0,1.0
162575,-1.4494790000000002,-1.416159,0.948525,-1.630754,1.241959,-1.622389,0.0,5.0,76.0,180.0,28.0,1.0
162576,-1.256159,-1.389226,1.187984,0.108719,1.385823,-0.5080979999999999,0.0,5.0,76.0,180.0,28.0,1.0
162577,-1.1860700000000002,-1.392218,1.215213,0.371691,0.363315,1.037243,0.0,5.0,76.0,180.0,28.0,1.0
162578,-1.026967,-1.386615,1.376949,0.441744,0.349921,-0.031119,0.0,5.0,76.0,180.0,28.0,1.0
162579,-0.970912,-1.389994,1.418853,0.386222,0.30547,0.51871,0.0,5.0,76.0,180.0,28.0,1.0
162580,-0.984829,-1.404017,1.379688,0.533974,0.505849,-0.63337,0.0,5.0,76.0,180.0,28.0,1.0
162581,-0.978742,-1.408703,1.370792,0.303793,0.604737,-0.313653,0.0,5.0,76.0,180.0,28.0,1.0
162582,-0.8957370000000001,-1.403672,1.442949,0.053223,0.322466,-0.696108,0.0,5.0,76.0,180.0,28.0,1.0
162583,-0.697915,-1.374963,1.629768,-0.424528,0.267176,-0.755272,0.0,5.0,76.0,180.0,28.0,1.0
162584,-0.532805,-1.322123,1.80518,-0.57704,-0.002931,0.072482,0.0,5.0,76.0,180.0,28.0,1.0
162585,-0.413733,-1.258584,1.920577,-0.498742,-0.421719,0.5241939999999999,0.0,5.0,76.0,180.0,28.0,1.0
162586,-0.313959,-1.19905,2.005113,-0.229379,-0.6822590000000001,0.891782,0.0,5.0,76.0,180.0,28.0,1.0
162587,-0.238859,-1.165614,2.0746860000000003,-0.051654,-0.76307,0.7173470000000001,0.0,5.0,76.0,180.0,28.0,1.0
162588,-0.196465,-1.137905,2.13824,0.08778999999999999,-0.714809,0.5523600000000001,0.0,5.0,76.0,180.0,28.0,1.0
162589,-0.180018,-1.101415,2.173346,0.199441,-0.218356,0.437949,0.0,5.0,76.0,180.0,28.0,1.0
162590,-0.165656,-1.078662,2.1925950000000003,-0.248196,-0.119882,0.671764,0.0,5.0,76.0,180.0,28.0,1.0
162591,-0.146032,-1.071823,2.199301,-0.246989,0.053749,0.564836,0.0,5.0,76.0,180.0,28.0,1.0
162592,-0.154901,-1.080373,2.180613,0.034533,0.075874,0.325701,0.0,5.0,76.0,180.0,28.0,1.0
162593,-0.191427,-1.105195,2.1452310000000003,-0.079515,0.058078,0.25282,0.0,5.0,76.0,180.0,28.0,1.0
162594,-0.25264200000000003,-1.147053,2.088374,-0.260643,-0.006573000000000001,-0.142127,0.0,5.0,76.0,180.0,28.0,1.0
162595,-0.368095,-1.196543,1.980856,0.004468,-0.069605,-0.24639,0.0,5.0,76.0,180.0,28.0,1.0
162596,-0.549896,-1.239937,1.814296,0.154026,0.467566,-0.019393,0.0,5.0,76.0,180.0,28.0,1.0
162597,-0.769359,-1.275018,1.6022299999999998,0.262179,0.641996,-0.011987,0.0,5.0,76.0,180.0,28.0,1.0
162598,-0.944639,-1.302271,1.4360389999999998,0.511614,0.015237,-0.153603,0.0,5.0,76.0,180.0,28.0,1.0
162599,-1.075721,-1.324285,1.323995,0.404192,-0.4913,-0.067477,0.0,5.0,76.0,180.0,28.0,1.0
162600,-1.165304,-1.345935,1.248179,0.361868,-0.666567,-0.147716,0.0,5.0,76.0,180.0,28.0,1.0
162601,-1.219116,-1.368714,1.192341,0.350556,-0.559088,0.026706,0.0,5.0,76.0,180.0,28.0,1.0
162602,-1.26485,-1.390485,1.125226,-0.152738,-0.146386,-0.07666,0.0,5.0,76.0,180.0,28.0,1.0
162603,-1.219929,-1.404876,1.1424379999999998,-0.6835760000000001,0.140381,-0.754042,0.0,5.0,76.0,180.0,28.0,1.0
162604,-1.144645,-1.40025,1.249753,-0.150423,0.823025,-0.027780000000000003,0.0,5.0,76.0,180.0,28.0,1.0
162605,-1.15636,-1.394476,1.261339,-0.033701,1.290574,-0.579809,0.0,5.0,76.0,180.0,28.0,1.0
162606,-0.983052,-1.395931,1.408417,0.774943,1.205817,0.676136,0.0,5.0,76.0,180.0,28.0,1.0
162607,-0.8217840000000001,-1.391981,1.529613,0.34855,-0.58519,0.408417,0.0,5.0,76.0,180.0,28.0,1.0
162608,-0.7579670000000001,-1.392394,1.593946,0.445478,-0.60214,-0.1617,0.0,5.0,76.0,180.0,28.0,1.0
162609,-0.783335,-1.398417,1.592106,0.241793,0.215611,-0.6117560000000001,0.0,5.0,76.0,180.0,28.0,1.0
162610,-0.803344,-1.401741,1.555539,-0.08681799999999999,1.402821,-0.527732,0.0,5.0,76.0,180.0,28.0,1.0
162611,-0.7551180000000001,-1.397712,1.581893,-0.27570300000000003,0.166324,-0.605367,0.0,5.0,76.0,180.0,28.0,1.0
162612,-0.629102,-1.373004,1.696416,-0.481732,-0.074909,-0.274252,0.0,5.0,76.0,180.0,28.0,1.0
162613,-0.5229,-1.339134,1.801479,-0.557796,-0.263935,-0.118891,0.0,5.0,76.0,180.0,28.0,1.0
162614,-0.408423,-1.29608,1.896773,-0.286191,-0.538064,0.266852,0.0,5.0,76.0,180.0,28.0,1.0
162615,-0.309047,-1.249927,1.970915,-0.102825,-0.475726,0.364105,0.0,5.0,76.0,180.0,28.0,1.0
162616,-0.238907,-1.215141,2.040401,0.136854,-0.25825,0.772517,0.0,5.0,76.0,180.0,28.0,1.0
162617,-0.175926,-1.182447,2.125435,0.197359,-0.200361,0.459822,0.0,5.0,76.0,180.0,28.0,1.0
162618,-0.137596,-1.140327,2.187555,0.145584,-0.174319,0.259196,0.0,5.0,76.0,180.0,28.0,1.0
162619,-0.131948,-1.102421,2.210754,-0.107508,-0.194946,0.543175,0.0,5.0,76.0,180.0,28.0,1.0
162620,-0.132888,-1.074544,2.213523,-0.158915,-0.213922,0.4315350000000001,0.0,5.0,76.0,180.0,28.0,1.0
162621,-0.126512,-1.066078,2.200321,-0.355034,0.059611,0.268871,0.0,5.0,76.0,180.0,28.0,1.0
162622,-0.109509,-1.088023,2.1893860000000003,-0.4507600000000001,0.238923,-0.025966000000000003,0.0,5.0,76.0,180.0,28.0,1.0
162623,-0.11343699999999997,-1.132286,2.171818,-0.237341,-0.063497,-0.019297,0.0,5.0,76.0,180.0,28.0,1.0
162624,-0.17189200000000002,-1.182678,2.119217,-0.140562,-0.341684,-0.031701,0.0,5.0,76.0,180.0,28.0,1.0
162625,-0.28493,-1.229919,2.005493,0.11896099999999997,-0.412234,-0.176009,0.0,5.0,76.0,180.0,28.0,1.0
162626,-0.462668,-1.269191,1.827543,0.506722,0.088535,-0.151266,0.0,5.0,76.0,180.0,28.0,1.0
162627,-0.6856399999999999,-1.297657,1.611616,0.638863,0.795708,-0.066174,0.0,5.0,76.0,180.0,28.0,1.0
162628,-0.880033,-1.315189,1.437783,0.5460619999999999,0.5636329999999999,-0.246632,0.0,5.0,76.0,180.0,28.0,1.0
162629,-1.010498,-1.327794,1.351739,0.447909,-0.361215,-0.119046,0.0,5.0,76.0,180.0,28.0,1.0
162630,-1.091446,-1.346678,1.297934,0.431145,-0.808608,0.124091,0.0,5.0,76.0,180.0,28.0,1.0
162631,-1.127673,-1.372101,1.243934,-0.11999,-0.770486,0.220556,0.0,5.0,76.0,180.0,28.0,1.0
162632,-1.146168,-1.393109,1.189535,-0.7154050000000001,-0.5111720000000001,-0.464645,0.0,5.0,76.0,180.0,28.0,1.0
162633,-1.145276,-1.394352,1.218662,-1.771639,0.969841,-1.54388,0.0,5.0,76.0,180.0,28.0,1.0
162634,-1.140821,-1.372464,1.2931629999999998,0.396636,1.688808,-0.075584,0.0,5.0,76.0,180.0,28.0,1.0
162635,-1.100554,-1.378275,1.282297,0.039578,-0.015049000000000003,0.34978200000000004,0.0,5.0,76.0,180.0,28.0,1.0
162636,-1.073073,-1.387499,1.299767,0.207833,0.21572600000000006,-0.3281,0.0,5.0,76.0,180.0,28.0,1.0
162637,-1.030107,-1.384896,1.338729,0.629132,0.5619529999999999,0.114265,0.0,5.0,76.0,180.0,28.0,1.0
162638,-1.028645,-1.390362,1.312391,0.757721,0.849776,-0.643922,0.0,5.0,76.0,180.0,28.0,1.0
162639,-0.996459,-1.393966,1.334573,0.276144,0.639541,-0.43128,0.0,5.0,76.0,180.0,28.0,1.0
162640,-0.929817,-1.389093,1.4034209999999998,-0.097993,0.131606,-0.421369,0.0,5.0,76.0,180.0,28.0,1.0
162641,-0.8234819999999999,-1.372289,1.509409,-0.49322,-0.197861,-0.336158,0.0,5.0,76.0,180.0,28.0,1.0
162642,-0.686466,-1.339355,1.644823,-0.603781,-0.254465,-0.335142,0.0,5.0,76.0,180.0,28.0,1.0
162643,-0.5527890000000001,-1.295204,1.764821,-0.4663560000000001,-0.32415700000000003,0.185534,0.0,5.0,76.0,180.0,28.0,1.0
162644,-0.442626,-1.244924,1.852445,-0.290791,-0.479919,0.670585,0.0,5.0,76.0,180.0,28.0,1.0
162645,-0.356008,-1.193906,1.920636,0.026582,-0.5855600000000001,0.883591,0.0,5.0,76.0,180.0,28.0,1.0
162646,-0.301917,-1.161057,1.983612,0.158934,-0.759235,0.479323,0.0,5.0,76.0,180.0,28.0,1.0
162647,-0.253383,-1.132285,2.052134,0.309269,-0.391774,0.360472,0.0,5.0,76.0,180.0,28.0,1.0
162648,-0.226504,-1.108802,2.0790040000000003,0.040252,0.094901,0.685865,0.0,5.0,76.0,180.0,28.0,1.0
162649,-0.210374,-1.102789,2.084101,-0.10596400000000003,0.358996,0.483832,0.0,5.0,76.0,180.0,28.0,1.0
162650,-0.195246,-1.113626,2.07756,0.021792,0.239398,0.316543,0.0,5.0,76.0,180.0,28.0,1.0
162651,-0.189524,-1.139679,2.066954,-0.033245,0.177331,0.383369,0.0,5.0,76.0,180.0,28.0,1.0
162652,-0.227541,-1.1764709999999998,2.035098,-0.194023,-0.064736,0.208224,0.0,5.0,76.0,180.0,28.0,1.0
162653,-0.326263,-1.219037,1.95225,0.021009,-0.214006,-0.26418600000000003,0.0,5.0,76.0,180.0,28.0,1.0
162654,-0.487358,-1.263077,1.808672,0.229858,0.08599,-0.386174,0.0,5.0,76.0,180.0,28.0,1.0
162655,-0.705418,-1.298549,1.604595,0.200219,0.558865,-0.150368,0.0,5.0,76.0,180.0,28.0,1.0
162656,-0.908606,-1.326331,1.40847,0.465441,-0.132651,-0.288031,0.0,5.0,76.0,180.0,28.0,1.0
162657,-1.074648,-1.3536629999999998,1.2492299999999998,0.38135,-0.37926,-0.359666,0.0,5.0,76.0,180.0,28.0,1.0
162658,-1.273857,-1.376394,1.055396,0.317836,-0.588341,-0.4375520000000001,0.0,5.0,76.0,180.0,28.0,1.0
162659,-1.455434,-1.390673,0.883969,-0.106784,-0.150417,-0.001845,0.0,5.0,76.0,180.0,28.0,1.0
162660,-1.517565,-1.396305,0.8256,-0.11138499999999997,-0.151411,-0.013227,0.0,5.0,76.0,180.0,28.0,1.0
162661,-1.460983,-1.400753,0.8755809999999999,-0.728708,1.120807,-0.668929,0.0,5.0,76.0,180.0,28.0,1.0
162662,-1.328486,-1.396396,1.018597,-0.081855,0.523424,-0.7550979999999999,0.0,5.0,76.0,180.0,28.0,1.0
162663,-1.199366,-1.387912,1.1640780000000002,0.077186,0.116057,-0.414094,0.0,5.0,76.0,180.0,28.0,1.0
162664,-1.140989,-1.386431,1.215927,-0.08892699999999999,-0.306921,0.86185,0.0,5.0,76.0,180.0,28.0,1.0
