index,attitude.roll,attitude.pitch,attitude.yaw,userAcceleration.x,userAcceleration.y,userAcceleration.z,act,id,weight,height,age,gender
192582,0.602232,-1.176033,-0.279871,-0.047604,-0.18856,-0.115294,0.0,6.0,62.0,175.0,30.0,0.0
192583,0.621863,-1.192802,-0.261036,-0.130107,-0.77955,0.062583,0.0,6.0,62.0,175.0,30.0,0.0
192584,0.608809,-1.213846,-0.268921,-0.029783,-0.837159,0.022063,0.0,6.0,62.0,175.0,30.0,0.0
192585,0.574745,-1.244896,-0.29027600000000003,0.026883,-0.712591,0.02824,0.0,6.0,62.0,175.0,30.0,0.0
192586,0.541574,-1.279399,-0.30600900000000003,-0.0118,-0.309162,0.030919,0.0,6.0,62.0,175.0,30.0,0.0
192587,0.5218430000000001,-1.3112,-0.306706,0.065881,-0.101961,-0.067748,0.0,6.0,62.0,175.0,30.0,0.0
192588,0.519334,-1.341199,-0.289275,0.220915,0.153027,-0.14244,0.0,6.0,62.0,175.0,30.0,0.0
192589,0.52992,-1.366594,-0.262031,-0.001789,0.045039,0.101403,0.0,6.0,62.0,175.0,30.0,0.0
192590,0.563526,-1.386659,-0.218589,-0.152274,-0.039735,0.16253,0.0,6.0,62.0,175.0,30.0,0.0
192591,0.6049640000000001,-1.40192,-0.169376,-0.5317390000000001,0.026753,0.033041,0.0,6.0,62.0,175.0,30.0,0.0
192592,0.670601,-1.418819,-0.097874,-0.260869,0.070853,0.115149,0.0,6.0,62.0,175.0,30.0,0.0
192593,0.74922,-1.431916,-0.016572999999999997,-0.101749,0.027771,0.296329,0.0,6.0,62.0,175.0,30.0,0.0
192594,0.78847,-1.440608,0.023392,-0.037318,0.113596,0.382747,0.0,6.0,62.0,175.0,30.0,0.0
192595,0.682975,-1.441134,-0.069262,-0.002412,0.577059,0.133257,0.0,6.0,62.0,175.0,30.0,0.0
192596,0.5854229999999999,-1.44321,-0.148812,-0.084534,1.47462,-0.37582,0.0,6.0,62.0,175.0,30.0,0.0
192597,0.5983470000000001,-1.459216,-0.132501,0.246053,0.423394,0.345466,0.0,6.0,62.0,175.0,30.0,0.0
192598,0.703658,-1.450269,-0.039888,0.620934,-0.293862,-0.13248900000000002,0.0,6.0,62.0,175.0,30.0,0.0
192599,0.7783100000000001,-1.4395639999999998,0.020353,0.091628,-0.377571,-0.12979100000000002,0.0,6.0,62.0,175.0,30.0,0.0
192600,0.8860389999999999,-1.442034,0.131303,0.035898,-0.43885,0.084898,0.0,6.0,62.0,175.0,30.0,0.0
192601,0.945828,-1.447632,0.200457,0.010078,-0.211785,0.028304000000000006,0.0,6.0,62.0,175.0,30.0,0.0
192602,1.016417,-1.451805,0.269916,-0.100701,-0.114816,-0.005268,0.0,6.0,62.0,175.0,30.0,0.0
192603,1.115803,-1.45449,0.361901,-0.102755,-0.107227,-0.084388,0.0,6.0,62.0,175.0,30.0,0.0
192604,1.138537,-1.454805,0.37395,-0.056163,-0.075831,-0.114322,0.0,6.0,62.0,175.0,30.0,0.0
192605,1.107802,-1.454723,0.33570500000000003,-0.004877,-0.363861,0.038701,0.0,6.0,62.0,175.0,30.0,0.0
192606,1.094589,-1.453767,0.316249,-0.010322,-0.381527,0.019702,0.0,6.0,62.0,175.0,30.0,0.0
192607,1.076191,-1.452878,0.289294,-0.013103,-0.14391900000000002,-0.13751,0.0,6.0,62.0,175.0,30.0,0.0
192608,1.020025,-1.452762,0.224036,0.11150999999999997,0.07077,0.0077090000000000014,0.0,6.0,62.0,175.0,30.0,0.0
192609,0.937275,-1.450146,0.13581700000000002,0.346663,-0.002527,0.039119,0.0,6.0,62.0,175.0,30.0,0.0
192610,0.854929,-1.441194,0.05007,0.237476,-0.122335,0.098995,0.0,6.0,62.0,175.0,30.0,0.0
192611,0.795687,-1.426975,-0.008398000000000001,0.077164,-0.263144,0.314947,0.0,6.0,62.0,175.0,30.0,0.0
192612,0.711025,-1.400361,-0.091734,-0.034921,-0.34542,0.379647,0.0,6.0,62.0,175.0,30.0,0.0
192613,0.607087,-1.359121,-0.192842,-0.301261,-0.422917,0.2128,0.0,6.0,62.0,175.0,30.0,0.0
192614,0.539986,-1.30967,-0.262094,-0.305227,0.000224,-0.119271,0.0,6.0,62.0,175.0,30.0,0.0
192615,0.529402,-1.261095,-0.287043,-0.233808,0.173537,0.033433,0.0,6.0,62.0,175.0,30.0,0.0
192616,0.535148,-1.217692,-0.285874,0.090556,0.336995,0.224707,0.0,6.0,62.0,175.0,30.0,0.0
192617,0.5412279999999999,-1.179838,-0.28386300000000003,0.096493,1.6344610000000002,-0.488137,0.0,6.0,62.0,175.0,30.0,0.0
192618,0.592122,-1.17018,-0.265119,0.122262,1.546602,-0.395465,0.0,6.0,62.0,175.0,30.0,0.0
192619,0.611313,-1.17491,-0.250719,-0.012767,0.506742,-0.329862,0.0,6.0,62.0,175.0,30.0,0.0
192620,0.621496,-1.185448,-0.238316,0.08217,-0.187089,-0.040677,0.0,6.0,62.0,175.0,30.0,0.0
192621,0.627703,-1.201053,-0.236081,-0.032298,-0.110246,-0.07839299999999999,0.0,6.0,62.0,175.0,30.0,0.0
192622,0.62127,-1.227951,-0.245088,0.036812,0.129121,-0.087781,0.0,6.0,62.0,175.0,30.0,0.0
192623,0.617751,-1.268957,-0.25685,-0.060243,0.147946,0.02825,0.0,6.0,62.0,175.0,30.0,0.0
192624,0.611934,-1.308138,-0.270418,-0.251967,-0.171376,0.018803,0.0,6.0,62.0,175.0,30.0,0.0
192625,0.602577,-1.337593,-0.278904,-0.210549,-0.606491,0.125113,0.0,6.0,62.0,175.0,30.0,0.0
192626,0.575167,-1.364934,-0.308114,-0.16565,-0.893497,0.114373,0.0,6.0,62.0,175.0,30.0,0.0
192627,0.486232,-1.393382,-0.392426,0.157538,-1.394826,0.071688,0.0,6.0,62.0,175.0,30.0,0.0
192628,0.370183,-1.417316,-0.504456,0.400169,-1.232935,0.252361,0.0,6.0,62.0,175.0,30.0,0.0
192629,0.399206,-1.437571,-0.473191,0.62617,-1.159504,0.013122,0.0,6.0,62.0,175.0,30.0,0.0
192630,0.697749,-1.453022,-0.154353,0.013627,-0.939102,-0.54408,0.0,6.0,62.0,175.0,30.0,0.0
192631,0.943765,-1.435193,0.096196,-0.778361,0.4668060000000001,0.458311,0.0,6.0,62.0,175.0,30.0,0.0
192632,0.96929,-1.42479,0.15701600000000002,-0.65751,1.091466,0.386385,0.0,6.0,62.0,175.0,30.0,0.0
192633,0.906249,-1.434391,0.128686,-0.486108,1.582302,0.039373000000000005,0.0,6.0,62.0,175.0,30.0,0.0
192634,0.975849,-1.448015,0.180338,-0.255973,2.445913,0.669539,0.0,6.0,62.0,175.0,30.0,0.0
192635,0.972486,-1.442439,0.12736199999999998,0.643266,-0.208555,0.195519,0.0,6.0,62.0,175.0,30.0,0.0
192636,0.802088,-1.400709,-0.069289,0.722527,-0.42629,0.120234,0.0,6.0,62.0,175.0,30.0,0.0
192637,0.784975,-1.3798700000000002,-0.119896,0.247087,-1.147158,-0.164881,0.0,6.0,62.0,175.0,30.0,0.0
192638,0.7031569999999999,-1.353365,-0.207142,0.182824,0.288773,-0.293292,0.0,6.0,62.0,175.0,30.0,0.0
192639,0.605406,-1.314678,-0.300997,0.35576,0.803875,-0.16484,0.0,6.0,62.0,175.0,30.0,0.0
192640,0.638285,-1.283125,-0.268395,0.016472999999999998,-0.089156,0.361188,0.0,6.0,62.0,175.0,30.0,0.0
192641,0.6771,-1.243977,-0.237571,-0.444941,-0.378282,0.151651,0.0,6.0,62.0,175.0,30.0,0.0
192642,0.687813,-1.2037870000000002,-0.243954,-0.537948,-0.230997,0.188174,0.0,6.0,62.0,175.0,30.0,0.0
192643,0.674349,-1.16196,-0.272975,-0.304798,0.153079,0.132911,0.0,6.0,62.0,175.0,30.0,0.0
192644,0.6491319999999999,-1.122269,-0.301318,-0.136888,0.212439,0.213634,0.0,6.0,62.0,175.0,30.0,0.0
192645,0.643097,-1.088741,-0.308068,0.242697,0.324833,-0.05848200000000001,0.0,6.0,62.0,175.0,30.0,0.0
192646,0.67314,-1.061892,-0.294552,-0.058408,1.382764,-0.505518,0.0,6.0,62.0,175.0,30.0,0.0
192647,0.700806,-1.055968,-0.281687,-0.403138,0.603179,-0.177142,0.0,6.0,62.0,175.0,30.0,0.0
192648,0.744532,-1.066122,-0.260872,-0.025416,0.06454800000000001,-0.147179,0.0,6.0,62.0,175.0,30.0,0.0
192649,0.768031,-1.085006,-0.254822,0.09273,-0.198515,-0.165827,0.0,6.0,62.0,175.0,30.0,0.0
192650,0.751213,-1.116261,-0.272463,0.218744,-0.158154,-0.203366,0.0,6.0,62.0,175.0,30.0,0.0
192651,0.708267,-1.157374,-0.298111,0.28783800000000004,-0.143352,-0.17043599999999998,0.0,6.0,62.0,175.0,30.0,0.0
192652,0.6658729999999999,-1.201469,-0.31823,0.119624,-0.126632,-0.175754,0.0,6.0,62.0,175.0,30.0,0.0
192653,0.646363,-1.244732,-0.321639,-0.036549,-0.094558,-0.10102,0.0,6.0,62.0,175.0,30.0,0.0
192654,0.6486149999999999,-1.281301,-0.309199,-0.030873,-0.215667,0.026199,0.0,6.0,62.0,175.0,30.0,0.0
192655,0.668977,-1.31339,-0.280989,-0.07345299999999999,-0.27992,0.092399,0.0,6.0,62.0,175.0,30.0,0.0
192656,0.696297,-1.347309,-0.237541,-0.13961500000000002,-0.339175,0.121438,0.0,6.0,62.0,175.0,30.0,0.0
192657,0.696547,-1.382564,-0.208698,-0.200646,-0.28772600000000004,0.17055399999999998,0.0,6.0,62.0,175.0,30.0,0.0
192658,0.668287,-1.409691,-0.206634,-0.268262,-0.408742,0.186307,0.0,6.0,62.0,175.0,30.0,0.0
192659,0.700217,-1.427787,-0.15443800000000002,-0.305625,-0.580566,0.267795,0.0,6.0,62.0,175.0,30.0,0.0
192660,0.812358,-1.440118,-0.031514,-0.258985,-0.494403,0.469929,0.0,6.0,62.0,175.0,30.0,0.0
192661,0.82755,-1.438673,-0.008282,-0.221916,-0.06855499999999999,0.178207,0.0,6.0,62.0,175.0,30.0,0.0
192662,0.68009,-1.421198,-0.150573,-0.358418,0.759536,-0.18536,0.0,6.0,62.0,175.0,30.0,0.0
192663,0.646672,-1.420387,-0.185861,0.210117,0.767775,-0.171873,0.0,6.0,62.0,175.0,30.0,0.0
192664,0.663502,-1.423056,-0.181713,0.415783,2.107009,-0.002027,0.0,6.0,62.0,175.0,30.0,0.0
192665,0.696371,-1.418311,-0.170749,0.7778619999999999,0.05782200000000001,-0.028997,0.0,6.0,62.0,175.0,30.0,0.0
192666,0.702112,-1.416858,-0.177887,0.564476,0.189712,-0.026433,0.0,6.0,62.0,175.0,30.0,0.0
192667,0.740815,-1.425662,-0.140753,0.405344,0.070603,-0.145878,0.0,6.0,62.0,175.0,30.0,0.0
192668,0.784246,-1.440224,-0.081427,-0.033253,0.011015,0.024493,0.0,6.0,62.0,175.0,30.0,0.0
192669,0.848354,-1.46078,0.002643,-0.13231600000000002,-0.03291,0.033177,0.0,6.0,62.0,175.0,30.0,0.0
192670,0.942541,-1.477481,0.10857,-0.344222,0.113619,0.018015,0.0,6.0,62.0,175.0,30.0,0.0
192671,0.931927,-1.484435,0.097354,-0.276721,0.05611,0.018816,0.0,6.0,62.0,175.0,30.0,0.0
192672,0.802104,-1.479897,-0.036246,-0.05366,-0.343574,0.26723,0.0,6.0,62.0,175.0,30.0,0.0
192673,0.641774,-1.46134,-0.202011,-0.093645,-0.552808,0.20717,0.0,6.0,62.0,175.0,30.0,0.0
192674,0.5061869999999999,-1.4274440000000002,-0.346867,-0.13121300000000002,-0.662671,0.162523,0.0,6.0,62.0,175.0,30.0,0.0
192675,0.424715,-1.388494,-0.439364,-0.189982,-0.8480219999999999,0.176886,0.0,6.0,62.0,175.0,30.0,0.0
192676,0.353137,-1.346133,-0.519709,-0.14949400000000002,-0.93277,0.174879,0.0,6.0,62.0,175.0,30.0,0.0
192677,0.297762,-1.306841,-0.575944,-0.028905,-0.990787,0.242322,0.0,6.0,62.0,175.0,30.0,0.0
192678,0.268937,-1.267439,-0.593881,0.135425,-0.8762139999999999,0.098258,0.0,6.0,62.0,175.0,30.0,0.0
192679,0.268919,-1.225843,-0.580128,0.170945,-0.028478,0.015343,0.0,6.0,62.0,175.0,30.0,0.0
192680,0.309057,-1.178954,-0.530381,0.339227,1.140292,0.194302,0.0,6.0,62.0,175.0,30.0,0.0
192681,0.362455,-1.141851,-0.467234,0.595847,1.303516,0.25090300000000004,0.0,6.0,62.0,175.0,30.0,0.0
192682,0.451342,-1.159755,-0.391861,0.008384,1.755918,-0.954078,0.0,6.0,62.0,175.0,30.0,0.0
192683,0.501149,-1.180941,-0.34059,-0.520664,1.153512,-1.031596,0.0,6.0,62.0,175.0,30.0,0.0
192684,0.501007,-1.202328,-0.335623,-0.319805,0.739804,-0.933258,0.0,6.0,62.0,175.0,30.0,0.0
192685,0.4673310000000001,-1.2237360000000002,-0.360766,0.931653,0.2351,0.040448000000000005,0.0,6.0,62.0,175.0,30.0,0.0
192686,0.426486,-1.24899,-0.389148,0.4750140000000001,-0.301388,-0.07303,0.0,6.0,62.0,175.0,30.0,0.0
192687,0.3698010000000001,-1.277592,-0.400745,0.471986,-0.362901,0.00323,0.0,6.0,62.0,175.0,30.0,0.0
192688,0.306698,-1.305963,-0.4123770000000001,-0.016600999999999998,-0.417086,0.076558,0.0,6.0,62.0,175.0,30.0,0.0
192689,0.247223,-1.331002,-0.4254060000000001,-0.21267600000000006,-0.298108,0.01867,0.0,6.0,62.0,175.0,30.0,0.0
192690,0.181168,-1.355868,-0.447115,-0.231527,-0.1859,0.024924,0.0,6.0,62.0,175.0,30.0,0.0
192691,0.096831,-1.37255,-0.4917470000000001,-0.114088,-0.055609000000000006,0.124171,0.0,6.0,62.0,175.0,30.0,0.0
192692,-0.008154,-1.377514,-0.5594979999999999,-0.052679,-0.235041,0.093591,0.0,6.0,62.0,175.0,30.0,0.0
192693,-0.108524,-1.38185,-0.628375,-0.017606,-0.30987,0.091211,0.0,6.0,62.0,175.0,30.0,0.0
192694,-0.187749,-1.386698,-0.687442,0.038668,-0.479333,0.08293099999999999,0.0,6.0,62.0,175.0,30.0,0.0
192695,-0.241402,-1.390295,-0.730187,0.012399,-0.523945,0.090575,0.0,6.0,62.0,175.0,30.0,0.0
192696,-0.265474,-1.392911,-0.750432,0.012306,-0.527158,0.070086,0.0,6.0,62.0,175.0,30.0,0.0
192697,-0.278306,-1.3952639999999998,-0.761833,0.118731,-0.477477,0.095691,0.0,6.0,62.0,175.0,30.0,0.0
192698,-0.30187600000000003,-1.39374,-0.779091,0.111966,-0.5344,0.06890700000000001,0.0,6.0,62.0,175.0,30.0,0.0
192699,-0.327617,-1.386554,-0.791146,-0.100213,-0.416486,-0.183326,0.0,6.0,62.0,175.0,30.0,0.0
192700,-0.284656,-1.379406,-0.734157,-0.273912,0.29235300000000003,0.655879,0.0,6.0,62.0,175.0,30.0,0.0
192701,-0.193698,-1.359334,-0.619171,-0.146016,0.68179,0.907256,0.0,6.0,62.0,175.0,30.0,0.0
192702,-0.121414,-1.356273,-0.5086689999999999,-0.150929,1.437885,0.225991,0.0,6.0,62.0,175.0,30.0,0.0
192703,-0.12721,-1.354699,-0.487478,0.271129,1.622212,0.367408,0.0,6.0,62.0,175.0,30.0,0.0
192704,-0.18395,-1.337736,-0.5160710000000001,0.918343,0.582501,0.115346,0.0,6.0,62.0,175.0,30.0,0.0
192705,-0.17261600000000002,-1.339545,-0.497669,0.209731,0.341119,0.128497,0.0,6.0,62.0,175.0,30.0,0.0
192706,-0.17109000000000002,-1.358857,-0.467024,0.07760800000000001,0.566534,0.048849,0.0,6.0,62.0,175.0,30.0,0.0
192707,-0.243092,-1.3867,-0.513208,0.379801,0.81742,0.09294,0.0,6.0,62.0,175.0,30.0,0.0
192708,-0.378551,-1.417861,-0.632925,0.370187,0.64572,0.251641,0.0,6.0,62.0,175.0,30.0,0.0
192709,-0.574788,-1.446174,-0.815555,0.30643400000000004,-0.074505,0.116238,0.0,6.0,62.0,175.0,30.0,0.0
192710,-0.87136,-1.463615,-1.0884200000000002,0.17594,-0.253829,0.152316,0.0,6.0,62.0,175.0,30.0,0.0
192711,-1.197202,-1.469566,-1.388369,0.139218,-0.34095,0.102539,0.0,6.0,62.0,175.0,30.0,0.0
192712,-1.502712,-1.4633969999999998,-1.6723740000000002,-0.233119,-0.383826,0.07610900000000001,0.0,6.0,62.0,175.0,30.0,0.0
192713,-1.7165560000000002,-1.444433,-1.870176,-0.282466,-0.34520700000000004,-0.032143,0.0,6.0,62.0,175.0,30.0,0.0
192714,-1.820645,-1.423567,-1.966252,-0.16766199999999998,-0.295318,-0.068726,0.0,6.0,62.0,175.0,30.0,0.0
192715,-1.851905,-1.409995,-2.002119,0.080576,-0.32203000000000004,-0.135633,0.0,6.0,62.0,175.0,30.0,0.0
192716,-1.848623,-1.401872,-2.009347,0.096743,-0.339587,-0.14175,0.0,6.0,62.0,175.0,30.0,0.0
192717,-1.827418,-1.396783,-1.997069,0.338558,-0.150624,-0.079481,0.0,6.0,62.0,175.0,30.0,0.0
192718,-1.797753,-1.394206,-1.968185,0.527091,-0.114758,-0.049599,0.0,6.0,62.0,175.0,30.0,0.0
192719,-1.759543,-1.396556,-1.923187,0.5729390000000001,-0.162211,-0.053675,0.0,6.0,62.0,175.0,30.0,0.0
192720,-1.691442,-1.402869,-1.841191,0.625588,-0.107729,0.11816,0.0,6.0,62.0,175.0,30.0,0.0
192721,-1.590847,-1.409299,-1.717814,0.584324,0.183987,0.12762,0.0,6.0,62.0,175.0,30.0,0.0
192722,-1.468908,-1.421398,-1.566904,0.337622,0.469544,0.32019200000000003,0.0,6.0,62.0,175.0,30.0,0.0
192723,-1.2803790000000002,-1.443789,-1.34928,0.019226,0.474974,0.280974,0.0,6.0,62.0,175.0,30.0,0.0
192724,-0.937252,-1.453959,-0.983902,-0.240929,0.524686,0.165745,0.0,6.0,62.0,175.0,30.0,0.0
192725,-0.594957,-1.442253,-0.6237729999999999,-0.190166,0.6098279999999999,0.200944,0.0,6.0,62.0,175.0,30.0,0.0
192726,-0.367724,-1.427396,-0.373368,0.099727,0.384715,0.173327,0.0,6.0,62.0,175.0,30.0,0.0
192727,-0.183269,-1.408796,-0.16254100000000002,0.221227,0.359178,0.043884,0.0,6.0,62.0,175.0,30.0,0.0
192728,-0.048549,-1.387877,0.001358,0.300118,0.31587800000000005,0.166421,0.0,6.0,62.0,175.0,30.0,0.0
192729,0.024444,-1.366148,0.116205,0.389671,0.249826,0.194856,0.0,6.0,62.0,175.0,30.0,0.0
192730,0.054099,-1.343856,0.201954,0.389125,0.117529,0.245827,0.0,6.0,62.0,175.0,30.0,0.0
192731,0.074382,-1.323411,0.282276,0.199607,0.010028,0.272708,0.0,6.0,62.0,175.0,30.0,0.0
192732,0.08458500000000001,-1.30651,0.3602,0.131297,-0.10833,0.334395,0.0,6.0,62.0,175.0,30.0,0.0
192733,0.083633,-1.291539,0.431863,0.091614,-0.302294,0.353015,0.0,6.0,62.0,175.0,30.0,0.0
192734,0.07030299999999999,-1.278265,0.491992,0.095847,-0.324781,0.365909,0.0,6.0,62.0,175.0,30.0,0.0
192735,0.05524,-1.268629,0.549168,0.084049,-0.316205,0.370955,0.0,6.0,62.0,175.0,30.0,0.0
192736,0.043833,-1.263645,0.610234,0.060299,-0.245252,0.407199,0.0,6.0,62.0,175.0,30.0,0.0
192737,0.032245,-1.263584,0.670329,0.015625999999999998,-0.159891,0.394712,0.0,6.0,62.0,175.0,30.0,0.0
192738,0.016153999999999998,-1.269107,0.72055,-0.057579999999999985,-0.117662,0.351795,0.0,6.0,62.0,175.0,30.0,0.0
192739,-0.012449,-1.278595,0.7474270000000001,-0.097458,-0.131303,0.267284,0.0,6.0,62.0,175.0,30.0,0.0
192740,-0.050165,-1.28989,0.752101,-0.061599,-0.193074,0.122013,0.0,6.0,62.0,175.0,30.0,0.0
192741,-0.093257,-1.2997,0.744233,0.050159,-0.14936,-0.002925,0.0,6.0,62.0,175.0,30.0,0.0
192742,-0.14424,-1.305378,0.726366,0.157181,-0.072283,-0.018567,0.0,6.0,62.0,175.0,30.0,0.0
192743,-0.203308,-1.30801,0.697685,0.211324,0.25900100000000004,-0.367712,0.0,6.0,62.0,175.0,30.0,0.0
192744,-0.254661,-1.3150540000000002,0.674499,0.300908,0.350517,-0.34339400000000003,0.0,6.0,62.0,175.0,30.0,0.0
192745,-0.256221,-1.313409,0.697707,0.378613,0.110762,-0.048466,0.0,6.0,62.0,175.0,30.0,0.0
192746,-0.214783,-1.297123,0.766904,0.469469,-0.150819,-0.165233,0.0,6.0,62.0,175.0,30.0,0.0
192747,-0.16579000000000002,-1.285817,0.8358549999999999,0.354532,0.209186,0.00955,0.0,6.0,62.0,175.0,30.0,0.0
192748,-0.110619,-1.274236,0.915217,0.306827,1.03816,0.36068,0.0,6.0,62.0,175.0,30.0,0.0
192749,-0.043036000000000005,-1.267727,1.012378,0.015754,0.8140539999999999,0.424164,0.0,6.0,62.0,175.0,30.0,0.0
192750,0.019424,-1.295824,1.116948,0.26824000000000003,-0.16229200000000002,0.356839,0.0,6.0,62.0,175.0,30.0,0.0
192751,-0.000972,-1.301262,1.152178,0.194747,-0.07748200000000001,0.427076,0.0,6.0,62.0,175.0,30.0,0.0
192752,-0.109581,-1.292129,1.104016,0.10157,-0.234265,0.574874,0.0,6.0,62.0,175.0,30.0,0.0
192753,-0.225388,-1.291385,1.045366,0.324604,-0.142767,0.644879,0.0,6.0,62.0,175.0,30.0,0.0
192754,-0.308943,-1.303806,1.002501,0.148347,0.243072,0.5508649999999999,0.0,6.0,62.0,175.0,30.0,0.0
192755,-0.393649,-1.331356,0.963221,-0.250406,0.310771,0.293053,0.0,6.0,62.0,175.0,30.0,0.0
192756,-0.483315,-1.36002,0.915525,-0.315875,0.205633,0.159495,0.0,6.0,62.0,175.0,30.0,0.0
192757,-0.562501,-1.382241,0.8586459999999999,-0.098587,-0.037299,0.03969,0.0,6.0,62.0,175.0,30.0,0.0
192758,-0.654561,-1.404583,0.774412,0.068161,-0.175275,0.105994,0.0,6.0,62.0,175.0,30.0,0.0
192759,-0.817659,-1.421291,0.6232439999999999,0.210054,-0.309783,0.102353,0.0,6.0,62.0,175.0,30.0,0.0
192760,-1.027558,-1.430325,0.430894,0.31550900000000004,-0.259285,0.019099,0.0,6.0,62.0,175.0,30.0,0.0
192761,-1.246036,-1.434087,0.230379,0.254959,-0.204827,0.025248,0.0,6.0,62.0,175.0,30.0,0.0
192762,-1.437185,-1.433612,0.057077,0.112835,-0.17986,0.06442,0.0,6.0,62.0,175.0,30.0,0.0
192763,-1.604503,-1.430011,-0.092878,0.056353,-0.070398,-0.046034,0.0,6.0,62.0,175.0,30.0,0.0
192764,-1.759326,-1.425585,-0.231162,0.054176,-0.024128,-0.086688,0.0,6.0,62.0,175.0,30.0,0.0
192765,-1.899644,-1.420357,-0.359927,0.07618899999999999,0.021228,-0.135999,0.0,6.0,62.0,175.0,30.0,0.0
192766,-2.009895,-1.414837,-0.464052,0.273991,-0.007425,-0.122151,0.0,6.0,62.0,175.0,30.0,0.0
192767,-2.070418,-1.410081,-0.518476,0.361371,0.204415,-0.150667,0.0,6.0,62.0,175.0,30.0,0.0
192768,-2.091727,-1.408133,-0.529958,0.360824,0.376817,0.004383,0.0,6.0,62.0,175.0,30.0,0.0
192769,-2.07908,-1.41457,-0.503011,0.387468,0.155398,0.066708,0.0,6.0,62.0,175.0,30.0,0.0
192770,-2.006517,-1.42874,-0.406756,0.462538,-0.000333,0.17995,0.0,6.0,62.0,175.0,30.0,0.0
192771,-1.857157,-1.45005,-0.230708,0.291118,0.056536,0.13709200000000002,0.0,6.0,62.0,175.0,30.0,0.0
192772,-1.488858,-1.4765780000000002,0.153219,-0.019108,0.285044,0.222771,0.0,6.0,62.0,175.0,30.0,0.0
192773,-0.858192,-1.481961,0.789094,-0.290457,0.348014,0.125652,0.0,6.0,62.0,175.0,30.0,0.0
192774,-0.378342,-1.460073,1.281541,-0.262045,0.345876,0.153667,0.0,6.0,62.0,175.0,30.0,0.0
192775,-0.158031,-1.435142,1.51879,-0.099797,0.199525,0.194642,0.0,6.0,62.0,175.0,30.0,0.0
192776,-0.02221,-1.405985,1.6707150000000002,0.128888,0.409013,0.010957,0.0,6.0,62.0,175.0,30.0,0.0
192777,0.125564,-1.373153,1.819045,0.256416,0.4291970000000001,0.03659,0.0,6.0,62.0,175.0,30.0,0.0
192778,0.238877,-1.345004,1.936013,0.388755,0.19767,0.176059,0.0,6.0,62.0,175.0,30.0,0.0
192779,0.303518,-1.32058,2.025052,0.186538,-0.068148,0.189234,0.0,6.0,62.0,175.0,30.0,0.0
192780,0.336014,-1.301685,2.091421,-0.018466,-0.234363,0.115016,0.0,6.0,62.0,175.0,30.0,0.0
192781,0.350317,-1.28844,2.142808,-0.181328,-0.242964,0.143561,0.0,6.0,62.0,175.0,30.0,0.0
192782,0.360971,-1.278346,2.18701,-0.165771,-0.182196,0.228793,0.0,6.0,62.0,175.0,30.0,0.0
192783,0.377115,-1.270595,2.227319,-0.092855,-0.225068,0.235014,0.0,6.0,62.0,175.0,30.0,0.0
192784,0.396392,-1.266646,2.266202,0.056263,-0.406403,0.196913,0.0,6.0,62.0,175.0,30.0,0.0
192785,0.412853,-1.268837,2.303114,0.154988,-0.546613,0.128939,0.0,6.0,62.0,175.0,30.0,0.0
192786,0.407672,-1.277472,2.316779,0.136251,-0.502775,0.101573,0.0,6.0,62.0,175.0,30.0,0.0
192787,0.376515,-1.289654,2.305526,0.103004,-0.313477,0.098851,0.0,6.0,62.0,175.0,30.0,0.0
192788,0.322606,-1.305005,2.274285,0.003973,-0.138683,0.046649,0.0,6.0,62.0,175.0,30.0,0.0
192789,0.260357,-1.322656,2.233085,-0.051749,0.104985,0.032548,0.0,6.0,62.0,175.0,30.0,0.0
192790,0.193038,-1.339057,2.178742,-0.11837,0.274458,-0.011141,0.0,6.0,62.0,175.0,30.0,0.0
192791,0.135667,-1.357769,2.12381,-0.110397,0.31545100000000004,-0.106521,0.0,6.0,62.0,175.0,30.0,0.0
192792,0.091986,-1.380045,2.071639,-0.062703,0.293422,-0.150306,0.0,6.0,62.0,175.0,30.0,0.0
192793,0.061002,-1.39905,2.02376,-0.033581,0.134448,0.068758,0.0,6.0,62.0,175.0,30.0,0.0
192794,0.028768,-1.409589,1.98029,0.076972,-0.238789,0.371117,0.0,6.0,62.0,175.0,30.0,0.0
192795,-0.024136,-1.416188,1.931102,0.146844,-0.644154,0.184124,0.0,6.0,62.0,175.0,30.0,0.0
192796,-0.089491,-1.432104,1.871954,0.26815300000000003,-0.866771,-0.045553,0.0,6.0,62.0,175.0,30.0,0.0
192797,-0.14574,-1.452313,1.814766,0.316345,-1.360192,0.023397,0.0,6.0,62.0,175.0,30.0,0.0
192798,-0.161164,-1.473499,1.792397,0.265801,-1.37201,0.042107,0.0,6.0,62.0,175.0,30.0,0.0
192799,-0.105016,-1.50519,1.872361,0.147527,-1.162247,0.024234,0.0,6.0,62.0,175.0,30.0,0.0
192800,-0.046187,-1.509412,1.973957,-0.21147800000000005,0.8716649999999999,0.127588,0.0,6.0,62.0,175.0,30.0,0.0
192801,0.043002,-1.490713,2.096553,-0.076299,1.851822,0.221624,0.0,6.0,62.0,175.0,30.0,0.0
192802,0.181218,-1.508297,2.26052,0.076285,-0.036698,0.109124,0.0,6.0,62.0,175.0,30.0,0.0
192803,0.439225,-1.501231,2.511902,-0.081664,1.624672,-0.451912,0.0,6.0,62.0,175.0,30.0,0.0
192804,0.319406,-1.497223,2.381223,0.244576,1.118443,0.494845,0.0,6.0,62.0,175.0,30.0,0.0
192805,0.432598,-1.486657,2.478795,0.31554,-0.38724,-0.151127,0.0,6.0,62.0,175.0,30.0,0.0
192806,0.422453,-1.4844389999999998,2.467127,0.400143,-0.026562,-0.240908,0.0,6.0,62.0,175.0,30.0,0.0
192807,0.356591,-1.4841950000000002,2.409639,0.444557,0.13001400000000002,-0.204877,0.0,6.0,62.0,175.0,30.0,0.0
192808,0.346655,-1.483229,2.406022,0.292037,0.114793,0.179594,0.0,6.0,62.0,175.0,30.0,0.0
192809,0.428962,-1.483668,2.497893,0.160375,-0.079565,0.26519000000000004,0.0,6.0,62.0,175.0,30.0,0.0
192810,0.498752,-1.474278,2.585397,0.0060030000000000005,-0.23820500000000006,0.266306,0.0,6.0,62.0,175.0,30.0,0.0
192811,0.502159,-1.44851,2.594035,-0.237633,-0.475656,0.214582,0.0,6.0,62.0,175.0,30.0,0.0
192812,0.479798,-1.411405,2.5682,-0.188892,-0.552098,0.231336,0.0,6.0,62.0,175.0,30.0,0.0
192813,0.418585,-1.367604,2.515834,-0.167166,-0.5880850000000001,0.198637,0.0,6.0,62.0,175.0,30.0,0.0
192814,0.370369,-1.324702,2.481784,-0.214292,-0.491814,0.071485,0.0,6.0,62.0,175.0,30.0,0.0
192815,0.381904,-1.282269,2.497822,-0.096827,0.255463,0.033722,0.0,6.0,62.0,175.0,30.0,0.0
192816,0.420864,-1.235099,2.537201,0.041485,0.635791,0.059299,0.0,6.0,62.0,175.0,30.0,0.0
192817,0.453604,-1.208065,2.564192,0.248748,1.155004,-0.418482,0.0,6.0,62.0,175.0,30.0,0.0
192818,0.4949770000000001,-1.214022,2.601462,0.190959,0.612639,-0.23504,0.0,6.0,62.0,175.0,30.0,0.0
192819,0.519382,-1.229941,2.6297900000000003,-0.104384,0.105581,-0.239487,0.0,6.0,62.0,175.0,30.0,0.0
192820,0.541474,-1.25473,2.639636,0.009981,-0.084758,-0.26623,0.0,6.0,62.0,175.0,30.0,0.0
192821,0.552882,-1.280338,2.63124,0.239666,0.031389,-0.206352,0.0,6.0,62.0,175.0,30.0,0.0
192822,0.553892,-1.312484,2.600082,0.331974,0.135778,-0.146624,0.0,6.0,62.0,175.0,30.0,0.0
192823,0.546567,-1.352379,2.555751,0.035054,0.198655,-0.159477,0.0,6.0,62.0,175.0,30.0,0.0
192824,0.5314,-1.388675,2.522782,-0.009241,0.118558,-0.133706,0.0,6.0,62.0,175.0,30.0,0.0
192825,0.496066,-1.419842,2.484848,-0.04394,-0.502163,-0.012649,0.0,6.0,62.0,175.0,30.0,0.0
192826,0.401615,-1.448664,2.3979790000000003,-0.068631,-0.5984470000000001,0.200582,0.0,6.0,62.0,175.0,30.0,0.0
192827,0.218575,-1.472121,2.2389490000000003,0.064303,-0.952625,0.196397,0.0,6.0,62.0,175.0,30.0,0.0
192828,-0.030477,-1.492236,2.0161740000000004,0.13611900000000002,-1.064161,0.088853,0.0,6.0,62.0,175.0,30.0,0.0
192829,-0.310298,-1.508574,1.750803,0.119675,-1.167956,-0.06188,0.0,6.0,62.0,175.0,30.0,0.0
192830,-0.535749,-1.527705,1.526715,0.088479,-1.062213,0.13839,0.0,6.0,62.0,175.0,30.0,0.0
192831,-0.292567,-1.542144,1.784169,0.034926,-0.202837,-0.072667,0.0,6.0,62.0,175.0,30.0,0.0
192832,0.408099,-1.526455,2.503873,-0.149499,0.65972,-0.010411,0.0,6.0,62.0,175.0,30.0,0.0
192833,0.641003,-1.510818,2.755321,-0.040494,1.755262,0.069552,0.0,6.0,62.0,175.0,30.0,0.0
192834,0.783918,-1.514051,2.890832,-0.000226,0.151527,-0.123907,0.0,6.0,62.0,175.0,30.0,0.0
192835,0.693405,-1.51324,2.79336,0.199154,1.549736,0.178497,0.0,6.0,62.0,175.0,30.0,0.0
192836,0.622128,-1.50616,2.6975,0.399467,-0.339892,-0.131127,0.0,6.0,62.0,175.0,30.0,0.0
192837,0.6510520000000001,-1.493682,2.708087,0.290489,-0.407078,-0.058445,0.0,6.0,62.0,175.0,30.0,0.0
192838,0.573484,-1.476941,2.628083,0.04054,-0.133828,-0.132324,0.0,6.0,62.0,175.0,30.0,0.0
192839,0.5088550000000001,-1.445597,2.565181,-0.041134,-0.114945,0.116434,0.0,6.0,62.0,175.0,30.0,0.0
192840,0.472403,-1.409746,2.530247,-0.076688,-0.243804,0.214628,0.0,6.0,62.0,175.0,30.0,0.0
192841,0.476509,-1.370845,2.534265,-0.065575,-0.583012,0.211344,0.0,6.0,62.0,175.0,30.0,0.0
192842,0.507259,-1.321814,2.550309,-0.151504,-0.709001,0.257668,0.0,6.0,62.0,175.0,30.0,0.0
192843,0.5202319999999999,-1.269688,2.551509,-0.184807,-0.452536,0.18825,0.0,6.0,62.0,175.0,30.0,0.0
192844,0.554654,-1.220662,2.565347,-0.200474,0.418721,-0.050595,0.0,6.0,62.0,175.0,30.0,0.0
192845,0.59053,-1.181382,2.578368,0.4596020000000001,0.650537,0.137235,0.0,6.0,62.0,175.0,30.0,0.0
192846,0.613939,-1.163301,2.592437,0.334998,0.482412,-0.27634200000000003,0.0,6.0,62.0,175.0,30.0,0.0
192847,0.653022,-1.162695,2.619896,0.07033099999999999,0.766023,-0.4592479999999999,0.0,6.0,62.0,175.0,30.0,0.0
192848,0.67595,-1.173217,2.631732,-0.110693,0.5552020000000001,-0.46385,0.0,6.0,62.0,175.0,30.0,0.0
192849,0.679709,-1.187947,2.632083,0.148323,0.289086,-0.395478,0.0,6.0,62.0,175.0,30.0,0.0
192850,0.659443,-1.206787,2.616028,0.276654,0.122576,-0.260508,0.0,6.0,62.0,175.0,30.0,0.0
192851,0.6225189999999999,-1.232459,2.582298,0.278571,-0.016733,-0.19203,0.0,6.0,62.0,175.0,30.0,0.0
192852,0.568244,-1.261457,2.532254,0.308216,-0.061803,-0.161977,0.0,6.0,62.0,175.0,30.0,0.0
192853,0.504637,-1.290749,2.475349,0.179992,-0.06582400000000001,-0.096538,0.0,6.0,62.0,175.0,30.0,0.0
192854,0.443095,-1.319973,2.423445,0.110781,-0.188206,-0.005184,0.0,6.0,62.0,175.0,30.0,0.0
192855,0.387109,-1.348568,2.381832,0.054063,-0.28236999999999995,0.043083,0.0,6.0,62.0,175.0,30.0,0.0
192856,0.333724,-1.37488,2.347432,-0.083235,-0.524907,0.16709300000000002,0.0,6.0,62.0,175.0,30.0,0.0
192857,0.27434200000000003,-1.397593,2.309705,-0.073254,-0.727363,0.223814,0.0,6.0,62.0,175.0,30.0,0.0
192858,0.19432,-1.416872,2.251326,-0.040103,-0.822741,0.210244,0.0,6.0,62.0,175.0,30.0,0.0
192859,0.07978500000000001,-1.4366450000000002,2.157046,-0.11593,-1.079028,0.163442,0.0,6.0,62.0,175.0,30.0,0.0
192860,-0.031289,-1.458303,2.064691,-0.201887,-0.833676,0.134918,0.0,6.0,62.0,175.0,30.0,0.0
192861,-0.11806300000000003,-1.463088,2.012331,-0.213214,-0.416904,0.004116,0.0,6.0,62.0,175.0,30.0,0.0
192862,-0.088898,-1.4496870000000002,2.0579560000000003,0.004850999999999999,1.381958,0.414855,0.0,6.0,62.0,175.0,30.0,0.0
192863,0.054957000000000006,-1.466429,2.208,0.230133,0.6964359999999999,0.098063,0.0,6.0,62.0,175.0,30.0,0.0
192864,0.134881,-1.472828,2.291221,0.35486,-0.095791,-0.399834,0.0,6.0,62.0,175.0,30.0,0.0
192865,0.217008,-1.470674,2.355945,0.230983,0.465106,0.4447100000000001,0.0,6.0,62.0,175.0,30.0,0.0
192866,0.32075,-1.463747,2.454336,0.312798,0.217364,0.002512,0.0,6.0,62.0,175.0,30.0,0.0
192867,0.413451,-1.457904,2.544977,0.203643,0.025347,-0.057887,0.0,6.0,62.0,175.0,30.0,0.0
192868,0.50607,-1.455661,2.638366,0.028926,-0.020616,-0.073262,0.0,6.0,62.0,175.0,30.0,0.0
192869,0.558609,-1.455849,2.689465,-0.095377,0.023247,-0.005224,0.0,6.0,62.0,175.0,30.0,0.0
192870,0.570271,-1.456306,2.692867,-0.027749,0.008958,0.035441,0.0,6.0,62.0,175.0,30.0,0.0
192871,0.547994,-1.456685,2.664899,0.114421,-0.10252,0.065094,0.0,6.0,62.0,175.0,30.0,0.0
192872,0.5214260000000001,-1.454579,2.630707,0.110961,-0.147231,0.029708,0.0,6.0,62.0,175.0,30.0,0.0
192873,0.493713,-1.446252,2.5959,0.103458,-0.225195,0.005529999999999999,0.0,6.0,62.0,175.0,30.0,0.0
192874,0.4674180000000001,-1.432967,2.568108,0.008256,-0.382088,0.138534,0.0,6.0,62.0,175.0,30.0,0.0
192875,0.44906,-1.4122709999999998,2.5520560000000003,-0.057314,-0.54781,0.24708,0.0,6.0,62.0,175.0,30.0,0.0
192876,0.457055,-1.383906,2.563039,-0.04954,-0.691281,0.260204,0.0,6.0,62.0,175.0,30.0,0.0
192877,0.478207,-1.344347,2.582237,-0.06978,-0.485548,0.025379,0.0,6.0,62.0,175.0,30.0,0.0
192878,0.513158,-1.296538,2.607266,-0.112314,0.101628,0.051834000000000005,0.0,6.0,62.0,175.0,30.0,0.0
192879,0.544971,-1.246589,2.633137,0.026513,0.801974,0.001247,0.0,6.0,62.0,175.0,30.0,0.0
192880,0.563624,-1.211316,2.654751,0.365494,0.914064,0.046275,0.0,6.0,62.0,175.0,30.0,0.0
192881,0.596076,-1.193074,2.677694,0.235887,0.386975,-0.064077,0.0,6.0,62.0,175.0,30.0,0.0
192882,0.651708,-1.188284,2.704658,0.068345,0.712086,-0.208893,0.0,6.0,62.0,175.0,30.0,0.0
192883,0.7203510000000001,-1.193859,2.736169,-0.055375,0.244795,-0.189567,0.0,6.0,62.0,175.0,30.0,0.0
192884,0.7646350000000001,-1.20657,2.758778,0.033988,-0.22810100000000005,-0.171722,0.0,6.0,62.0,175.0,30.0,0.0
192885,0.76978,-1.22488,2.760393,0.097352,-0.278503,-0.102253,0.0,6.0,62.0,175.0,30.0,0.0
192886,0.745019,-1.248085,2.738224,0.138668,-0.282516,-0.076404,0.0,6.0,62.0,175.0,30.0,0.0
192887,0.699695,-1.277744,2.700311,0.176716,-0.24887,-0.168282,0.0,6.0,62.0,175.0,30.0,0.0
192888,0.6371439999999999,-1.313275,2.649895,0.213494,-0.26374699999999995,-0.114409,0.0,6.0,62.0,175.0,30.0,0.0
192889,0.560925,-1.350144,2.593705,0.221797,-0.237092,-0.006490999999999999,0.0,6.0,62.0,175.0,30.0,0.0
192890,0.483721,-1.386122,2.54465,0.248539,-0.30459,0.010901,0.0,6.0,62.0,175.0,30.0,0.0
192891,0.416665,-1.4173639999999998,2.505869,0.207496,-0.355775,0.013212,0.0,6.0,62.0,175.0,30.0,0.0
192892,0.354116,-1.441386,2.468298,-0.047052,-0.224579,0.081366,0.0,6.0,62.0,175.0,30.0,0.0
192893,0.29859600000000003,-1.4610610000000002,2.440274,-0.265554,-0.130445,0.029318,0.0,6.0,62.0,175.0,30.0,0.0
192894,0.308817,-1.479206,2.472299,-0.216762,-0.213414,0.093693,0.0,6.0,62.0,175.0,30.0,0.0
192895,0.354897,-1.498806,2.541757,-0.219282,-0.303974,0.06678300000000001,0.0,6.0,62.0,175.0,30.0,0.0
192896,0.264471,-1.5135809999999998,2.480048,-0.188926,0.27667600000000003,-0.071004,0.0,6.0,62.0,175.0,30.0,0.0
192897,0.028294,-1.518447,2.264242,-0.118378,0.639447,-0.056425,0.0,6.0,62.0,175.0,30.0,0.0
192898,-0.08978799999999999,-1.5138049999999998,2.147193,0.187526,2.102957,-0.056605,0.0,6.0,62.0,175.0,30.0,0.0
192899,-0.058369,-1.518557,2.164553,0.455209,-0.280969,0.182153,0.0,6.0,62.0,175.0,30.0,0.0
192900,0.080091,-1.508569,2.310404,0.710785,-0.077593,-0.06807,0.0,6.0,62.0,175.0,30.0,0.0
192901,0.186619,-1.510491,2.429036,0.349766,0.125155,0.012398,0.0,6.0,62.0,175.0,30.0,0.0
192902,0.400136,-1.518289,2.6602,0.246269,-0.144084,0.100022,0.0,6.0,62.0,175.0,30.0,0.0
192903,0.531416,-1.535648,2.820475,0.015819999999999997,-0.287133,0.167297,0.0,6.0,62.0,175.0,30.0,0.0
192904,1.712451,-1.560885,-2.261438,-0.08187,0.117603,0.030275,0.0,6.0,62.0,175.0,30.0,0.0
192905,3.06388,-1.534159,-0.902491,-0.015171,0.017013,-0.022115,0.0,6.0,62.0,175.0,30.0,0.0
192906,-3.1129290000000003,-1.513738,-0.791693,0.073152,-0.229803,-0.004737,0.0,6.0,62.0,175.0,30.0,0.0
192907,-3.063669,-1.500822,-0.7406590000000001,-0.025916,-0.408976,0.083924,0.0,6.0,62.0,175.0,30.0,0.0
192908,-3.028085,-1.492207,-0.705622,-0.012472,-0.423244,0.117402,0.0,6.0,62.0,175.0,30.0,0.0
192909,-2.9742,-1.494322,-0.65212,-0.016662,-0.447303,0.063003,0.0,6.0,62.0,175.0,30.0,0.0
192910,-2.901053,-1.508475,-0.584358,-0.00598,-0.425595,-0.04964,0.0,6.0,62.0,175.0,30.0,0.0
192911,-2.848579,-1.530752,-0.5425369999999999,0.046729,-0.326271,0.07195,0.0,6.0,62.0,175.0,30.0,0.0
192912,-2.98805,-1.55775,-0.693365,0.022572,-0.370734,0.019171,0.0,6.0,62.0,175.0,30.0,0.0
192913,0.6228229999999999,-1.549972,2.906471,-0.028289,-0.5970270000000001,0.255049,0.0,6.0,62.0,175.0,30.0,0.0
192914,0.590391,-1.510106,2.864072,-0.009436,-0.773962,0.338448,0.0,6.0,62.0,175.0,30.0,0.0
192915,0.595155,-1.455865,2.8685970000000003,-0.07755,-0.5459689999999999,-0.055770000000000014,0.0,6.0,62.0,175.0,30.0,0.0
192916,0.596672,-1.391985,2.865266,-0.062934,0.21292,-0.368592,0.0,6.0,62.0,175.0,30.0,0.0
192917,0.599037,-1.328609,2.861285,0.167114,1.357645,-0.34797100000000003,0.0,6.0,62.0,175.0,30.0,0.0
192918,0.596748,-1.28562,2.864739,0.344136,0.914854,-0.035883,0.0,6.0,62.0,175.0,30.0,0.0
192919,0.599622,-1.256671,2.870012,0.09086,1.251387,-0.595536,0.0,6.0,62.0,175.0,30.0,0.0
192920,0.6385310000000001,-1.247724,2.897254,-0.033858,0.518792,-0.191194,0.0,6.0,62.0,175.0,30.0,0.0
192921,0.717623,-1.248365,2.946052,0.01999,0.218723,-0.00046,0.0,6.0,62.0,175.0,30.0,0.0
192922,0.7976770000000001,-1.249902,2.980378,-0.30990500000000004,0.254339,-0.29396100000000003,0.0,6.0,62.0,175.0,30.0,0.0
192923,0.82862,-1.256115,2.99961,0.042185,0.062334,-0.18271,0.0,6.0,62.0,175.0,30.0,0.0
192924,0.829239,-1.275943,2.997213,0.07054500000000001,0.032184,-0.233896,0.0,6.0,62.0,175.0,30.0,0.0
192925,0.8274370000000001,-1.312484,2.99152,0.126639,-0.030772000000000008,-0.302267,0.0,6.0,62.0,175.0,30.0,0.0
192926,0.828606,-1.360914,2.98758,0.15369100000000002,-0.038556,-0.180197,0.0,6.0,62.0,175.0,30.0,0.0
192927,0.830573,-1.415257,2.9827630000000003,0.178798,-0.114698,-0.0775,0.0,6.0,62.0,175.0,30.0,0.0
192928,0.8307190000000001,-1.462234,2.983241,0.091999,-0.495929,0.093626,0.0,6.0,62.0,175.0,30.0,0.0
192929,0.839357,-1.497243,2.9937240000000003,0.027368,-0.94212,0.119982,0.0,6.0,62.0,175.0,30.0,0.0
192930,0.8435389999999999,-1.524636,3.00307,0.028384,-0.999209,0.136787,0.0,6.0,62.0,175.0,30.0,0.0
192931,0.721725,-1.549448,2.897571,0.10991,-1.049851,0.169518,0.0,6.0,62.0,175.0,30.0,0.0
192932,1.669399,-1.567578,-2.412116,0.206996,-1.104029,0.072607,0.0,6.0,62.0,175.0,30.0,0.0
192933,2.907923,-1.547795,-1.163334,0.08046,-1.189356,-0.303605,0.0,6.0,62.0,175.0,30.0,0.0
192934,2.70444,-1.512082,-1.357324,-0.031833999999999994,-0.892915,-0.048954,0.0,6.0,62.0,175.0,30.0,0.0
192935,2.362998,-1.4955459999999998,-1.672454,-0.216293,0.427803,-0.471853,0.0,6.0,62.0,175.0,30.0,0.0
192936,2.278841,-1.488772,-1.756314,-0.324442,2.670187,0.377228,0.0,6.0,62.0,175.0,30.0,0.0
192937,2.47154,-1.477678,-1.557783,-0.4692310000000001,1.352782,0.7387670000000001,0.0,6.0,62.0,175.0,30.0,0.0
192938,2.146256,-1.503781,-1.885649,0.169812,-0.259886,-0.4691520000000001,0.0,6.0,62.0,175.0,30.0,0.0
192939,1.90821,-1.523273,-2.151523,0.185104,-0.351746,-0.424235,0.0,6.0,62.0,175.0,30.0,0.0
192940,1.7941,-1.531067,-2.299901,0.300808,0.514018,-0.137233,0.0,6.0,62.0,175.0,30.0,0.0
192941,1.800976,-1.531862,-2.331486,0.279512,0.527369,-0.315157,0.0,6.0,62.0,175.0,30.0,0.0
192942,1.642095,-1.531647,-2.529462,0.378747,0.35007,-0.101417,0.0,6.0,62.0,175.0,30.0,0.0
192943,1.467586,-1.53179,-2.718334,0.385623,0.095731,-0.13963499999999998,0.0,6.0,62.0,175.0,30.0,0.0
192944,1.243203,-1.531389,-2.940876,0.207006,-0.207659,0.064246,0.0,6.0,62.0,175.0,30.0,0.0
192945,1.012819,-1.52523,3.124742,0.098338,-0.268341,0.08771699999999999,0.0,6.0,62.0,175.0,30.0,0.0
192946,0.8016949999999999,-1.509093,2.9278060000000004,-0.101896,-0.395314,0.122692,0.0,6.0,62.0,175.0,30.0,0.0
192947,0.615136,-1.48091,2.747642,-0.447338,-0.605643,0.025863,0.0,6.0,62.0,175.0,30.0,0.0
192948,0.466103,-1.441846,2.598901,-0.38162,-0.702162,0.148367,0.0,6.0,62.0,175.0,30.0,0.0
192949,0.4110970000000001,-1.400037,2.5416,-0.144928,-0.760191,0.258102,0.0,6.0,62.0,175.0,30.0,0.0
192950,0.37575,-1.356125,2.514729,-0.01352,-0.241222,-0.034022000000000004,0.0,6.0,62.0,175.0,30.0,0.0
192951,0.393562,-1.305874,2.524107,0.021756,0.347936,-0.244793,0.0,6.0,62.0,175.0,30.0,0.0
192952,0.446445,-1.25485,2.5697,0.444292,1.864927,-0.048249,0.0,6.0,62.0,175.0,30.0,0.0
192953,0.4739680000000001,-1.23837,2.602906,0.154827,0.4214310000000001,-0.272828,0.0,6.0,62.0,175.0,30.0,0.0
192954,0.495748,-1.243642,2.638843,0.085589,0.160339,-0.262446,0.0,6.0,62.0,175.0,30.0,0.0
192955,0.512528,-1.255783,2.662837,-0.117508,-0.130663,-0.149146,0.0,6.0,62.0,175.0,30.0,0.0
192956,0.523392,-1.276015,2.666653,0.184685,-0.032458,-0.263704,0.0,6.0,62.0,175.0,30.0,0.0
192957,0.5223260000000001,-1.30225,2.659806,0.295091,0.144241,-0.280294,0.0,6.0,62.0,175.0,30.0,0.0
192958,0.486099,-1.341081,2.628602,0.219052,0.353677,-0.25245100000000004,0.0,6.0,62.0,175.0,30.0,0.0
192959,0.430226,-1.38389,2.579841,0.104191,0.103796,-0.100931,0.0,6.0,62.0,175.0,30.0,0.0
192960,0.415206,-1.41495,2.564194,0.082721,-0.407299,0.091582,0.0,6.0,62.0,175.0,30.0,0.0
192961,0.437503,-1.43254,2.579613,0.101301,-0.845576,0.14023,0.0,6.0,62.0,175.0,30.0,0.0
192962,0.414872,-1.447124,2.567196,0.041213,-1.26667,0.104161,0.0,6.0,62.0,175.0,30.0,0.0
192963,0.322637,-1.467115,2.504507,-0.105592,-1.167115,0.084247,0.0,6.0,62.0,175.0,30.0,0.0
192964,0.315017,-1.492788,2.527773,-0.083629,-0.7988689999999999,0.20921,0.0,6.0,62.0,175.0,30.0,0.0
192965,0.441212,-1.496238,2.703438,-0.14764000000000002,0.614732,-0.305584,0.0,6.0,62.0,175.0,30.0,0.0
192966,0.540235,-1.472337,2.828411,-0.167443,2.658621,0.269733,0.0,6.0,62.0,175.0,30.0,0.0
192967,0.719169,-1.49275,3.014647,-0.019891,0.343758,0.52131,0.0,6.0,62.0,175.0,30.0,0.0
192968,0.7373810000000001,-1.483838,3.022789,0.391946,-0.08426499999999999,-0.627355,0.0,6.0,62.0,175.0,30.0,0.0
192969,0.607111,-1.4792299999999998,2.901419,0.44094,0.539284,-0.474076,0.0,6.0,62.0,175.0,30.0,0.0
192970,0.485417,-1.4745700000000002,2.787607,0.505646,0.243304,0.092203,0.0,6.0,62.0,175.0,30.0,0.0
192971,0.538211,-1.46828,2.841415,0.14591800000000002,0.038072,-0.238582,0.0,6.0,62.0,175.0,30.0,0.0
192972,0.604996,-1.461451,2.907033,0.094256,0.07067000000000001,-0.268475,0.0,6.0,62.0,175.0,30.0,0.0
192973,0.641241,-1.44723,2.933154,0.064635,0.133876,-0.135241,0.0,6.0,62.0,175.0,30.0,0.0
192974,0.6210939999999999,-1.432604,2.90112,0.271136,-0.184803,-0.07799,0.0,6.0,62.0,175.0,30.0,0.0
192975,0.571071,-1.422368,2.851587,0.198576,-0.5085970000000001,0.087631,0.0,6.0,62.0,175.0,30.0,0.0
192976,0.533675,-1.416688,2.824094,-0.110991,-0.512502,0.052827,0.0,6.0,62.0,175.0,30.0,0.0
192977,0.473944,-1.407897,2.780285,-0.170204,-0.496176,0.132421,0.0,6.0,62.0,175.0,30.0,0.0
192978,0.406975,-1.392603,2.7269240000000003,-0.180097,-0.47884,0.25125,0.0,6.0,62.0,175.0,30.0,0.0
192979,0.348405,-1.368747,2.681992,-0.088894,-0.410566,0.295515,0.0,6.0,62.0,175.0,30.0,0.0
192980,0.338898,-1.338718,2.681311,-0.176741,-0.13858099999999998,0.111336,0.0,6.0,62.0,175.0,30.0,0.0
192981,0.394673,-1.305449,2.736987,-0.217669,0.065501,0.181211,0.0,6.0,62.0,175.0,30.0,0.0
192982,0.453612,-1.268518,2.793784,-0.18717,0.531744,0.061638,0.0,6.0,62.0,175.0,30.0,0.0
192983,0.479809,-1.239524,2.820753,0.360134,0.803715,-0.263485,0.0,6.0,62.0,175.0,30.0,0.0
192984,0.48798,-1.225661,2.834759,0.329998,0.79571,-0.197017,0.0,6.0,62.0,175.0,30.0,0.0
192985,0.509414,-1.22034,2.859249,0.20504,0.573662,-0.160168,0.0,6.0,62.0,175.0,30.0,0.0
192986,0.541906,-1.218036,2.893803,-0.045059,0.191292,-0.225069,0.0,6.0,62.0,175.0,30.0,0.0
192987,0.569431,-1.222142,2.92668,-0.009768,0.16836700000000002,-0.112636,0.0,6.0,62.0,175.0,30.0,0.0
192988,0.576729,-1.232322,2.942683,-0.008329999999999999,0.318868,-0.130446,0.0,6.0,62.0,175.0,30.0,0.0
192989,0.566559,-1.250154,2.947198,0.012386,0.43912,-0.306322,0.0,6.0,62.0,175.0,30.0,0.0
192990,0.549709,-1.272959,2.944302,0.114025,0.274984,-0.104778,0.0,6.0,62.0,175.0,30.0,0.0
192991,0.532173,-1.2930469999999998,2.933776,0.053777,-0.086141,0.092562,0.0,6.0,62.0,175.0,30.0,0.0
192992,0.507708,-1.310496,2.917107,-0.067829,-0.305516,0.018024,0.0,6.0,62.0,175.0,30.0,0.0
192993,0.46229,-1.329972,2.883773,-0.093782,-0.314587,-0.031820999999999995,0.0,6.0,62.0,175.0,30.0,0.0
192994,0.393454,-1.350893,2.827784,-0.04316,-0.140851,-0.13903800000000002,0.0,6.0,62.0,175.0,30.0,0.0
192995,0.314135,-1.369171,2.758673,0.10336,0.087778,-0.055317,0.0,6.0,62.0,175.0,30.0,0.0
192996,0.257097,-1.385617,2.710035,0.120161,0.03025,-0.081899,0.0,6.0,62.0,175.0,30.0,0.0
192997,0.213073,-1.399323,2.673553,0.065664,-0.095472,-0.17042000000000002,0.0,6.0,62.0,175.0,30.0,0.0
192998,0.180246,-1.412249,2.645283,0.044909,-0.101502,-0.136216,0.0,6.0,62.0,175.0,30.0,0.0
192999,0.159948,-1.424214,2.629179,0.101754,-0.097247,-0.16125,0.0,6.0,62.0,175.0,30.0,0.0
193000,0.145887,-1.432342,2.620822,0.151661,-0.126813,-0.196304,0.0,6.0,62.0,175.0,30.0,0.0
193001,0.13475,-1.436407,2.616337,0.1809,-0.17335599999999998,-0.108895,0.0,6.0,62.0,175.0,30.0,0.0
193002,0.120486,-1.438717,2.612527,0.202129,-0.20264,-0.112374,0.0,6.0,62.0,175.0,30.0,0.0
193003,0.088056,-1.443777,2.593686,0.157409,-0.204194,-0.153945,0.0,6.0,62.0,175.0,30.0,0.0
193004,0.037302,-1.449894,2.557742,0.015934,-0.17103,-0.155153,0.0,6.0,62.0,175.0,30.0,0.0
193005,-0.024716,-1.45506,2.507946,-0.052933,-0.227654,-0.130617,0.0,6.0,62.0,175.0,30.0,0.0
193006,-0.091435,-1.460827,2.447987,-0.052312,-0.28996500000000003,-0.098181,0.0,6.0,62.0,175.0,30.0,0.0
193007,-0.157118,-1.467339,2.385805,-0.019014,-0.34205,-0.067445,0.0,6.0,62.0,175.0,30.0,0.0
193008,-0.209069,-1.47492,2.334277,-0.003724,-0.349121,-0.08274400000000001,0.0,6.0,62.0,175.0,30.0,0.0
193009,-0.253578,-1.4825620000000002,2.287332,-0.00843,-0.358277,-0.14583800000000002,0.0,6.0,62.0,175.0,30.0,0.0
193010,-0.315807,-1.48865,2.219565,0.006437000000000001,-0.396088,-0.15322,0.0,6.0,62.0,175.0,30.0,0.0
193011,-0.400992,-1.489452,2.124153,-0.059827,-0.339589,-0.060167999999999985,0.0,6.0,62.0,175.0,30.0,0.0
193012,-0.412121,-1.476711,2.099086,0.055723,-0.054293,0.15794,0.0,6.0,62.0,175.0,30.0,0.0
193013,-0.27115700000000004,-1.449235,2.219464,-0.17611,0.724726,0.30235500000000004,0.0,6.0,62.0,175.0,30.0,0.0
193014,-0.15396600000000002,-1.44404,2.304469,-0.202248,1.251339,0.9003040000000001,0.0,6.0,62.0,175.0,30.0,0.0
193015,-0.084687,-1.432902,2.317536,0.065612,0.820161,0.12578699999999998,0.0,6.0,62.0,175.0,30.0,0.0
193016,-0.101856,-1.428579,2.264037,0.516731,0.050303,0.111929,0.0,6.0,62.0,175.0,30.0,0.0
193017,-0.13713399999999998,-1.4188889999999998,2.216171,0.472407,0.129436,-0.115622,0.0,6.0,62.0,175.0,30.0,0.0
193018,-0.098906,-1.429275,2.2432830000000004,0.504528,0.7249479999999999,0.042041,0.0,6.0,62.0,175.0,30.0,0.0
193019,-0.002179,-1.449088,2.325332,0.232366,0.65379,-0.008406,0.0,6.0,62.0,175.0,30.0,0.0
193020,-0.056264,-1.473848,2.263733,0.118556,0.37434,0.097488,0.0,6.0,62.0,175.0,30.0,0.0
193021,-0.448549,-1.498018,1.874515,-0.252499,0.211601,0.109776,0.0,6.0,62.0,175.0,30.0,0.0
193022,-0.992426,-1.505128,1.337855,-0.130246,0.206501,0.07221,0.0,6.0,62.0,175.0,30.0,0.0
193023,-1.417053,-1.498344,0.920293,0.02733,-0.055512,-0.0033979999999999995,0.0,6.0,62.0,175.0,30.0,0.0
193024,-1.7018220000000002,-1.487399,0.641725,0.050669,-0.283466,-0.023592,0.0,6.0,62.0,175.0,30.0,0.0
193025,-1.877578,-1.468018,0.466959,0.06589400000000001,-0.281664,-0.043692,0.0,6.0,62.0,175.0,30.0,0.0
193026,-1.96229,-1.441605,0.380821,0.002152,-0.448164,-0.053002,0.0,6.0,62.0,175.0,30.0,0.0
193027,-2.005488,-1.413709,0.335975,0.116194,-0.523805,-0.073709,0.0,6.0,62.0,175.0,30.0,0.0
193028,-2.028165,-1.392262,0.304946,0.178267,-0.5037739999999999,-0.108754,0.0,6.0,62.0,175.0,30.0,0.0
193029,-2.034056,-1.3778549999999998,0.285777,0.281887,-0.35031,-0.223593,0.0,6.0,62.0,175.0,30.0,0.0
193030,-2.033298,-1.364044,0.276941,0.243681,-0.200855,-0.154613,0.0,6.0,62.0,175.0,30.0,0.0
193031,-2.030242,-1.351504,0.275338,0.436967,-0.115197,-0.114534,0.0,6.0,62.0,175.0,30.0,0.0
193032,-2.031809,-1.342166,0.274122,0.611,-0.168756,-0.1148,0.0,6.0,62.0,175.0,30.0,0.0
193033,-2.02,-1.337748,0.286204,0.619301,-0.087042,-0.095876,0.0,6.0,62.0,175.0,30.0,0.0
193034,-1.996032,-1.336743,0.316324,0.604743,0.067686,-0.112765,0.0,6.0,62.0,175.0,30.0,0.0
193035,-1.968715,-1.336864,0.357809,0.471991,0.117615,-0.172175,0.0,6.0,62.0,175.0,30.0,0.0
193036,-1.936592,-1.338755,0.4089,0.339457,0.114463,0.019811,0.0,6.0,62.0,175.0,30.0,0.0
193037,-1.896728,-1.3437290000000002,0.471984,0.359399,0.125538,0.139086,0.0,6.0,62.0,175.0,30.0,0.0
193038,-1.83373,-1.354897,0.5638770000000001,-0.048803,0.380745,0.342911,0.0,6.0,62.0,175.0,30.0,0.0
193039,-1.631991,-1.38115,0.767441,-0.060154,0.4767,0.346214,0.0,6.0,62.0,175.0,30.0,0.0
193040,-1.309342,-1.405474,1.094472,0.012548,0.690484,0.040310000000000006,0.0,6.0,62.0,175.0,30.0,0.0
193041,-1.031921,-1.417049,1.391721,-0.031804,0.830277,0.158861,0.0,6.0,62.0,175.0,30.0,0.0
193042,-0.78364,-1.426473,1.6645450000000002,0.110304,0.800054,0.164098,0.0,6.0,62.0,175.0,30.0,0.0
193043,-0.507319,-1.424192,1.978311,0.312988,0.363068,0.097922,0.0,6.0,62.0,175.0,30.0,0.0
193044,-0.247174,-1.412511,2.281829,0.291311,0.341114,0.138673,0.0,6.0,62.0,175.0,30.0,0.0
193045,-0.064817,-1.393428,2.507951,0.228637,0.340563,0.129941,0.0,6.0,62.0,175.0,30.0,0.0
193046,0.030066,-1.3701219999999998,2.658764,0.234212,0.171923,0.179448,0.0,6.0,62.0,175.0,30.0,0.0
193047,0.081525,-1.348099,2.777644,0.210423,0.104834,0.23035,0.0,6.0,62.0,175.0,30.0,0.0
193048,0.114296,-1.331372,2.884585,0.217065,0.051185,0.277906,0.0,6.0,62.0,175.0,30.0,0.0
193049,0.136518,-1.319277,2.9852220000000003,0.265339,-0.044189,0.352576,0.0,6.0,62.0,175.0,30.0,0.0
193050,0.147988,-1.312291,3.078643,0.236355,-0.095695,0.399096,0.0,6.0,62.0,175.0,30.0,0.0
193051,0.15582,-1.311741,-3.110695,0.267985,-0.208271,0.46162,0.0,6.0,62.0,175.0,30.0,0.0
193052,0.160831,-1.317353,-3.014542,0.284158,-0.322394,0.5481,0.0,6.0,62.0,175.0,30.0,0.0
193053,0.15201900000000002,-1.325891,-2.931182,0.239162,-0.388953,0.5394869999999999,0.0,6.0,62.0,175.0,30.0,0.0
193054,0.124168,-1.336201,-2.868982,0.04308,-0.30027600000000004,0.507895,0.0,6.0,62.0,175.0,30.0,0.0
193055,0.083815,-1.349536,-2.820001,-0.07187,-0.17766300000000002,0.509718,0.0,6.0,62.0,175.0,30.0,0.0
193056,0.036618,-1.365269,-2.782769,-0.131602,-0.117686,0.525708,0.0,6.0,62.0,175.0,30.0,0.0
193057,-0.002989,-1.381316,-2.749161,-0.206529,-0.168336,0.484809,0.0,6.0,62.0,175.0,30.0,0.0
193058,-0.038135,-1.392751,-2.725352,-0.234062,-0.169693,0.353306,0.0,6.0,62.0,175.0,30.0,0.0
193059,-0.088378,-1.398096,-2.722311,-0.205444,-0.105181,0.085904,0.0,6.0,62.0,175.0,30.0,0.0
193060,-0.170235,-1.401286,-2.753145,0.015259,-0.002223,-0.206238,0.0,6.0,62.0,175.0,30.0,0.0
193061,-0.276299,-1.40167,-2.815425,0.087513,0.02411,-0.350729,0.0,6.0,62.0,175.0,30.0,0.0
193062,-0.347399,-1.4005530000000002,-2.8594150000000003,0.221559,0.006171,-0.216905,0.0,6.0,62.0,175.0,30.0,0.0
193063,-0.294158,-1.391595,-2.795136,0.4880640000000001,0.185111,-0.162957,0.0,6.0,62.0,175.0,30.0,0.0
193064,-0.173969,-1.3792879999999998,-2.668807,0.464404,0.099642,-0.248249,0.0,6.0,62.0,175.0,30.0,0.0
193065,-0.07111,-1.37958,-2.555991,0.477584,-0.031121,-0.336474,0.0,6.0,62.0,175.0,30.0,0.0
193066,0.001585,-1.379311,-2.46069,0.673404,0.748334,0.109963,0.0,6.0,62.0,175.0,30.0,0.0
193067,0.058904,-1.361984,-2.37664,0.546268,1.062997,0.170042,0.0,6.0,62.0,175.0,30.0,0.0
193068,0.153559,-1.354302,-2.260645,-0.01099,0.032377,0.334547,0.0,6.0,62.0,175.0,30.0,0.0
193069,0.283171,-1.374854,-2.10149,-0.178451,-0.358306,0.214188,0.0,6.0,62.0,175.0,30.0,0.0
193070,0.353188,-1.402409,-1.982139,-0.08201599999999999,-0.500123,0.360509,0.0,6.0,62.0,175.0,30.0,0.0
193071,0.26221500000000003,-1.406396,-2.019364,-0.0071769999999999985,-0.56011,0.50995,0.0,6.0,62.0,175.0,30.0,0.0
193072,0.077267,-1.394001,-2.153265,0.123128,-0.432944,0.419597,0.0,6.0,62.0,175.0,30.0,0.0
193073,-0.090159,-1.386937,-2.271045,0.090863,-0.012595,0.337187,0.0,6.0,62.0,175.0,30.0,0.0
193074,-0.198731,-1.4073129999999998,-2.33912,-0.123538,1.140256,0.332524,0.0,6.0,62.0,175.0,30.0,0.0
193075,-0.245314,-1.441008,-2.346473,-0.324785,0.268024,0.056348,0.0,6.0,62.0,175.0,30.0,0.0
193076,-0.306657,-1.464153,-2.373448,-0.040165,-0.072963,0.100908,0.0,6.0,62.0,175.0,30.0,0.0
193077,-0.391281,-1.486403,-2.435772,0.008692,-0.092297,0.164052,0.0,6.0,62.0,175.0,30.0,0.0
193078,-0.609173,-1.50862,-2.635025,-0.00957,-0.221258,0.186757,0.0,6.0,62.0,175.0,30.0,0.0
193079,-1.202438,-1.5215610000000002,3.0796360000000003,0.014783,-0.136438,0.15076199999999998,0.0,6.0,62.0,175.0,30.0,0.0
193080,-1.844621,-1.50908,2.458499,-0.04594,0.007992,0.114365,0.0,6.0,62.0,175.0,30.0,0.0
193081,-2.125583,-1.486101,2.190577,-0.092174,-0.031602,0.092754,0.0,6.0,62.0,175.0,30.0,0.0
193082,-2.255313,-1.464558,2.0734630000000003,-0.09879,-0.094704,0.067322,0.0,6.0,62.0,175.0,30.0,0.0
193083,-2.332015,-1.443114,2.003805,-0.060368,-0.109444,-0.050604,0.0,6.0,62.0,175.0,30.0,0.0
193084,-2.3809,-1.422841,1.954393,0.06078400000000001,-0.130401,-0.115754,0.0,6.0,62.0,175.0,30.0,0.0
193085,-2.4016740000000003,-1.405514,1.929444,0.157394,-0.184599,-0.135761,0.0,6.0,62.0,175.0,30.0,0.0
193086,-2.413718,-1.387197,1.916911,0.1875,-0.163109,-0.147809,0.0,6.0,62.0,175.0,30.0,0.0
193087,-2.431614,-1.36729,1.901912,0.150289,-0.020624,-0.205303,0.0,6.0,62.0,175.0,30.0,0.0
193088,-2.44541,-1.352459,1.886875,0.105399,0.059035,-0.206743,0.0,6.0,62.0,175.0,30.0,0.0
193089,-2.451287,-1.342364,1.876344,0.277193,0.06575700000000001,-0.104048,0.0,6.0,62.0,175.0,30.0,0.0
193090,-2.453464,-1.33742,1.874113,0.636572,0.019907,-0.02272,0.0,6.0,62.0,175.0,30.0,0.0
193091,-2.464601,-1.339086,1.872957,0.94853,-0.067162,0.036703,0.0,6.0,62.0,175.0,30.0,0.0
193092,-2.4857560000000003,-1.345049,1.878127,0.8019189999999999,0.070127,0.004672,0.0,6.0,62.0,175.0,30.0,0.0
193093,-2.524121,-1.362033,1.874398,0.574749,0.277602,0.00221,0.0,6.0,62.0,175.0,30.0,0.0
193094,-2.575663,-1.39264,1.846072,-0.17510499999999998,0.272252,0.247252,0.0,6.0,62.0,175.0,30.0,0.0
193095,-2.630637,-1.439769,1.805351,-0.212784,0.187603,0.209617,0.0,6.0,62.0,175.0,30.0,0.0
193096,-2.718141,-1.502876,1.726231,-0.259072,0.34915300000000005,0.042763,0.0,6.0,62.0,175.0,30.0,0.0
193097,2.769146,-1.557589,0.936205,-0.164617,0.455394,0.23963,0.0,6.0,62.0,175.0,30.0,0.0
193098,1.100878,-1.531665,-0.713937,-0.147446,0.514224,0.330665,0.0,6.0,62.0,175.0,30.0,0.0
193099,0.963991,-1.491615,-0.8316040000000001,-0.130201,0.484899,0.015681999999999998,0.0,6.0,62.0,175.0,30.0,0.0
193100,0.875656,-1.447543,-0.908693,0.021663,0.272631,0.052373,0.0,6.0,62.0,175.0,30.0,0.0
193101,0.8500489999999999,-1.403949,-0.93673,-0.034043000000000004,0.147584,0.08079,0.0,6.0,62.0,175.0,30.0,0.0
193102,0.8969950000000001,-1.3670870000000002,-0.900727,0.03405,0.101656,-0.196633,0.0,6.0,62.0,175.0,30.0,0.0
193103,0.875108,-1.336355,-0.8879549999999999,0.056091,-0.098438,0.047717,0.0,6.0,62.0,175.0,30.0,0.0
193104,0.824541,-1.307525,-0.8903049999999999,0.055459,-0.231276,0.182183,0.0,6.0,62.0,175.0,30.0,0.0
193105,0.7818729999999999,-1.281096,-0.8898719999999999,0.073087,-0.264817,0.246224,0.0,6.0,62.0,175.0,30.0,0.0
193106,0.7471270000000001,-1.259046,-0.8892610000000001,0.065451,-0.256989,0.257878,0.0,6.0,62.0,175.0,30.0,0.0
193107,0.711866,-1.244514,-0.8854790000000001,-0.049713,-0.216619,0.140677,0.0,6.0,62.0,175.0,30.0,0.0
193108,0.670621,-1.240453,-0.8751049999999999,-0.234407,-0.276513,0.146531,0.0,6.0,62.0,175.0,30.0,0.0
193109,0.6323449999999999,-1.2428709999999998,-0.866137,-0.228843,-0.352901,0.140112,0.0,6.0,62.0,175.0,30.0,0.0
193110,0.600526,-1.249877,-0.863345,-0.222497,-0.30977,0.090891,0.0,6.0,62.0,175.0,30.0,0.0
193111,0.569846,-1.2619360000000002,-0.866801,-0.143989,-0.268232,-0.004848,0.0,6.0,62.0,175.0,30.0,0.0
193112,0.5360659999999999,-1.277316,-0.8768450000000001,-0.097156,-0.203062,-0.007811,0.0,6.0,62.0,175.0,30.0,0.0
193113,0.503758,-1.296327,-0.8867219999999999,-0.12389100000000003,-0.1454,-0.011658,0.0,6.0,62.0,175.0,30.0,0.0
193114,0.48893,-1.318554,-0.8824360000000001,-0.023714,-0.030855,0.072277,0.0,6.0,62.0,175.0,30.0,0.0
193115,0.487836,-1.337401,-0.871058,-0.050803,0.150923,0.051546,0.0,6.0,62.0,175.0,30.0,0.0
193116,0.475928,-1.342364,-0.869583,-0.064917,0.29843800000000004,-0.037822,0.0,6.0,62.0,175.0,30.0,0.0
193117,0.4771510000000001,-1.338108,-0.8577799999999999,-0.082203,0.308582,-0.197231,0.0,6.0,62.0,175.0,30.0,0.0
193118,0.498003,-1.332309,-0.8387,0.012006,0.132079,-0.146282,0.0,6.0,62.0,175.0,30.0,0.0
193119,0.546487,-1.329472,-0.804863,0.171165,0.020173,-0.039655,0.0,6.0,62.0,175.0,30.0,0.0
193120,0.59856,-1.329019,-0.7615,0.06489299999999999,0.405017,-0.055128,0.0,6.0,62.0,175.0,30.0,0.0
193121,0.631634,-1.325536,-0.727785,0.002154,1.023227,0.206734,0.0,6.0,62.0,175.0,30.0,0.0
193122,0.6810390000000001,-1.324101,-0.673032,-0.044296,0.113817,0.216653,0.0,6.0,62.0,175.0,30.0,0.0
193123,0.73324,-1.32351,-0.61277,0.039381,-0.345694,0.237302,0.0,6.0,62.0,175.0,30.0,0.0
193124,0.732314,-1.330627,-0.595626,0.00184,-0.39064,0.121066,0.0,6.0,62.0,175.0,30.0,0.0
193125,0.6695369999999999,-1.339721,-0.6258520000000001,0.009735,-0.467714,0.29946500000000004,0.0,6.0,62.0,175.0,30.0,0.0
193126,0.581509,-1.355745,-0.673265,-0.009197,-0.299399,0.447286,0.0,6.0,62.0,175.0,30.0,0.0
193127,0.476386,-1.373558,-0.738379,-0.145037,0.312037,0.270698,0.0,6.0,62.0,175.0,30.0,0.0
193128,0.4427970000000001,-1.393726,-0.7404890000000001,-0.35980300000000004,0.4192,0.163823,0.0,6.0,62.0,175.0,30.0,0.0
193129,0.5409390000000001,-1.4152559999999998,-0.624135,-0.199963,-0.007368,0.030864,0.0,6.0,62.0,175.0,30.0,0.0
193130,0.677742,-1.424343,-0.489464,-0.058847,-0.110007,0.04852,0.0,6.0,62.0,175.0,30.0,0.0
193131,0.770829,-1.425681,-0.406007,0.02451,-0.168994,-0.001252,0.0,6.0,62.0,175.0,30.0,0.0
193132,0.833349,-1.430262,-0.347636,0.058998,-0.26045100000000004,0.08463,0.0,6.0,62.0,175.0,30.0,0.0
193133,0.86682,-1.436782,-0.308908,0.048193,-0.29280700000000004,0.142494,0.0,6.0,62.0,175.0,30.0,0.0
193134,0.892106,-1.441028,-0.274795,0.017394,-0.211273,-0.006855,0.0,6.0,62.0,175.0,30.0,0.0
193135,0.943688,-1.44202,-0.221771,-0.031671,-0.215063,-0.025139,0.0,6.0,62.0,175.0,30.0,0.0
193136,0.989445,-1.442394,-0.172905,-0.036347,-0.223427,0.051594000000000015,0.0,6.0,62.0,175.0,30.0,0.0
193137,1.036729,-1.441316,-0.12621400000000002,-0.01949,-0.195212,-0.046459,0.0,6.0,62.0,175.0,30.0,0.0
193138,1.080454,-1.439435,-0.090804,-0.060966999999999986,-0.144537,-0.0962,0.0,6.0,62.0,175.0,30.0,0.0
193139,1.086313,-1.435499,-0.09453,-0.045674,-0.152086,-0.031402,0.0,6.0,62.0,175.0,30.0,0.0
193140,1.064282,-1.430307,-0.124837,0.024468,-0.15021199999999998,-0.023759,0.0,6.0,62.0,175.0,30.0,0.0
193141,1.049688,-1.426042,-0.14999300000000002,0.121374,-0.124612,0.008046,0.0,6.0,62.0,175.0,30.0,0.0
193142,1.039438,-1.425096,-0.167986,0.147066,-0.06290599999999999,0.014575,0.0,6.0,62.0,175.0,30.0,0.0
193143,1.015988,-1.426716,-0.193539,0.266934,-0.009444,-0.063388,0.0,6.0,62.0,175.0,30.0,0.0
193144,0.972102,-1.428373,-0.230964,0.35165100000000005,0.093972,-0.053919000000000016,0.0,6.0,62.0,175.0,30.0,0.0
193145,0.92551,-1.429458,-0.261038,0.314247,-0.008598,-0.013119,0.0,6.0,62.0,175.0,30.0,0.0
193146,0.878445,-1.4271,-0.28675900000000004,0.109453,-0.058465,0.049678,0.0,6.0,62.0,175.0,30.0,0.0
193147,0.812619,-1.418311,-0.326808,-0.101621,-0.09649,0.235453,0.0,6.0,62.0,175.0,30.0,0.0
193148,0.721627,-1.396358,-0.393946,-0.241879,-0.25208200000000003,0.334272,0.0,6.0,62.0,175.0,30.0,0.0
193149,0.618013,-1.360649,-0.477848,-0.340229,-0.417453,0.428991,0.0,6.0,62.0,175.0,30.0,0.0
193150,0.529021,-1.31495,-0.55488,-0.547122,-0.033108,-0.024479,0.0,6.0,62.0,175.0,30.0,0.0
193151,0.507668,-1.263626,-0.576982,-0.613421,0.296288,0.076576,0.0,6.0,62.0,175.0,30.0,0.0
193152,0.557527,-1.2199950000000002,-0.544798,-0.360075,0.941823,-0.037004,0.0,6.0,62.0,175.0,30.0,0.0
193153,0.6052029999999999,-1.186143,-0.508732,0.378267,0.188901,0.021726,0.0,6.0,62.0,175.0,30.0,0.0
193154,0.654929,-1.160021,-0.474788,0.439207,-0.094653,0.122377,0.0,6.0,62.0,175.0,30.0,0.0
193155,0.680901,-1.151254,-0.4592189999999999,0.162908,-0.220114,-0.064795,0.0,6.0,62.0,175.0,30.0,0.0
193156,0.702179,-1.156882,-0.445444,0.037852,0.243535,-0.207278,0.0,6.0,62.0,175.0,30.0,0.0
193157,0.7233569999999999,-1.1735520000000002,-0.430972,0.065594,0.329227,-0.280527,0.0,6.0,62.0,175.0,30.0,0.0
193158,0.737873,-1.200114,-0.412983,0.094122,0.280551,-0.350501,0.0,6.0,62.0,175.0,30.0,0.0
193159,0.745875,-1.229059,-0.402413,0.151319,0.083003,-0.153878,0.0,6.0,62.0,175.0,30.0,0.0
193160,0.7360720000000001,-1.258191,-0.410776,0.205862,-0.0388,-0.034256,0.0,6.0,62.0,175.0,30.0,0.0
193161,0.726286,-1.293102,-0.413612,0.110853,-0.133428,-0.047696,0.0,6.0,62.0,175.0,30.0,0.0
193162,0.740524,-1.331762,-0.387157,-0.159418,-0.220865,0.061584,0.0,6.0,62.0,175.0,30.0,0.0
193163,0.7586390000000001,-1.3608559999999998,-0.350599,-0.257883,-0.568711,0.304495,0.0,6.0,62.0,175.0,30.0,0.0
193164,0.736769,-1.380298,-0.34883200000000003,-0.14862899999999998,-1.056709,0.217462,0.0,6.0,62.0,175.0,30.0,0.0
193165,0.7057399999999999,-1.400803,-0.356151,-0.040527,-1.3146719999999998,0.063837,0.0,6.0,62.0,175.0,30.0,0.0
193166,0.71491,-1.427608,-0.334124,-0.184548,-1.366643,0.06994700000000001,0.0,6.0,62.0,175.0,30.0,0.0
193167,0.814549,-1.448447,-0.219797,-0.189361,-0.951494,0.100132,0.0,6.0,62.0,175.0,30.0,0.0
193168,0.860447,-1.437167,-0.15500799999999998,-0.200004,0.643269,-0.013204,0.0,6.0,62.0,175.0,30.0,0.0
193169,0.8662489999999999,-1.406324,-0.135218,-0.084874,2.236502,0.078823,0.0,6.0,62.0,175.0,30.0,0.0
193170,0.954957,-1.408775,-0.026205000000000003,0.241432,0.42545,0.175044,0.0,6.0,62.0,175.0,30.0,0.0
193171,0.944858,-1.3971559999999998,-0.049284,0.31702,1.594826,0.031178,0.0,6.0,62.0,175.0,30.0,0.0
193172,0.917191,-1.38503,-0.080822,0.235924,-0.072791,0.07638500000000001,0.0,6.0,62.0,175.0,30.0,0.0
193173,0.899652,-1.371316,-0.097249,0.28735700000000003,-0.5512600000000001,-0.183609,0.0,6.0,62.0,175.0,30.0,0.0
193174,0.908138,-1.364871,-0.088733,0.26248,-0.24570300000000006,-0.297028,0.0,6.0,62.0,175.0,30.0,0.0
193175,0.913434,-1.365377,-0.076204,0.15998900000000002,0.659849,0.089159,0.0,6.0,62.0,175.0,30.0,0.0
193176,0.902405,-1.370428,-0.081087,0.140201,0.553088,0.127645,0.0,6.0,62.0,175.0,30.0,0.0
193177,0.903278,-1.3652540000000002,-0.069235,0.018957,-0.096474,0.195816,0.0,6.0,62.0,175.0,30.0,0.0
193178,0.873876,-1.353131,-0.093756,-0.067525,-0.335413,0.21003400000000005,0.0,6.0,62.0,175.0,30.0,0.0
193179,0.829139,-1.337165,-0.139501,-0.19794,-0.393075,0.227783,0.0,6.0,62.0,175.0,30.0,0.0
193180,0.7711859999999999,-1.315055,-0.199388,-0.204386,-0.392769,0.265455,0.0,6.0,62.0,175.0,30.0,0.0
193181,0.702014,-1.282456,-0.267354,-0.227176,-0.5643229999999999,0.267505,0.0,6.0,62.0,175.0,30.0,0.0
193182,0.659295,-1.240183,-0.311272,-0.301923,-0.355634,0.16792,0.0,6.0,62.0,175.0,30.0,0.0
193183,0.660887,-1.19333,-0.317411,-0.275838,0.182612,0.16071400000000002,0.0,6.0,62.0,175.0,30.0,0.0
193184,0.669784,-1.146484,-0.312475,-0.140764,0.714761,0.077693,0.0,6.0,62.0,175.0,30.0,0.0
193185,0.671117,-1.112629,-0.308377,0.175128,0.710451,-0.078164,0.0,6.0,62.0,175.0,30.0,0.0
193186,0.671402,-1.097098,-0.30248200000000003,0.138154,0.891561,-0.19444,0.0,6.0,62.0,175.0,30.0,0.0
193187,0.674379,-1.096468,-0.290083,-0.090858,0.518985,-0.194482,0.0,6.0,62.0,175.0,30.0,0.0
193188,0.682052,-1.102575,-0.27591,-0.315392,0.047767,-0.17794,0.0,6.0,62.0,175.0,30.0,0.0
193189,0.710206,-1.114224,-0.257088,-0.111373,-0.148622,-0.074974,0.0,6.0,62.0,175.0,30.0,0.0
193190,0.72944,-1.132122,-0.24754,-0.056139,-0.051861,-0.084445,0.0,6.0,62.0,175.0,30.0,0.0
193191,0.726591,-1.1590120000000002,-0.249527,0.04705,-0.001857,-0.16071,0.0,6.0,62.0,175.0,30.0,0.0
193192,0.713033,-1.195198,-0.257899,0.14971099999999998,0.021967,-0.182271,0.0,6.0,62.0,175.0,30.0,0.0
193193,0.705256,-1.232379,-0.263558,0.232364,-0.08997899999999999,-0.124327,0.0,6.0,62.0,175.0,30.0,0.0
193194,0.710303,-1.262947,-0.255328,0.130209,-0.349167,-0.049354,0.0,6.0,62.0,175.0,30.0,0.0
193195,0.715662,-1.290096,-0.237692,0.041902,-0.495621,0.058684,0.0,6.0,62.0,175.0,30.0,0.0
193196,0.71034,-1.316762,-0.222323,-0.087642,-0.407741,0.103643,0.0,6.0,62.0,175.0,30.0,0.0
193197,0.708186,-1.345242,-0.197929,-0.161797,-0.306045,0.126913,0.0,6.0,62.0,175.0,30.0,0.0
193198,0.734016,-1.37603,-0.140773,-0.326095,0.062791,0.066501,0.0,6.0,62.0,175.0,30.0,0.0
193199,0.793589,-1.402487,-0.059247,-0.343091,0.008119,-0.027639,0.0,6.0,62.0,175.0,30.0,0.0
193200,0.890366,-1.420294,0.032915,-0.420463,-0.153994,-0.073874,0.0,6.0,62.0,175.0,30.0,0.0
193201,1.002285,-1.428965,0.116866,-0.382862,0.107911,0.128589,0.0,6.0,62.0,175.0,30.0,0.0
193202,1.007367,-1.432678,0.094026,-0.435497,0.33275,0.195797,0.0,6.0,62.0,175.0,30.0,0.0
193203,0.928568,-1.433978,0.000903,-0.225161,0.096778,0.354517,0.0,6.0,62.0,175.0,30.0,0.0
193204,0.8891180000000001,-1.437061,-0.048117,0.101166,0.366717,-0.14081400000000002,0.0,6.0,62.0,175.0,30.0,0.0
193205,0.8762610000000001,-1.44247,-0.061169000000000015,0.621696,1.564909,-0.325006,0.0,6.0,62.0,175.0,30.0,0.0
193206,0.932284,-1.450111,-0.010267,0.407043,1.805018,0.097077,0.0,6.0,62.0,175.0,30.0,0.0
193207,0.974151,-1.436369,0.02837,0.5498460000000001,-0.250103,-0.120258,0.0,6.0,62.0,175.0,30.0,0.0
193208,0.971607,-1.427626,0.026664,0.13831500000000002,-0.014351,-0.011333,0.0,6.0,62.0,175.0,30.0,0.0
193209,1.010708,-1.432519,0.07155399999999999,0.010855,-0.098518,0.13003199999999998,0.0,6.0,62.0,175.0,30.0,0.0
193210,1.0322870000000002,-1.438477,0.107363,-0.180759,-0.32965300000000003,-0.017897999999999997,0.0,6.0,62.0,175.0,30.0,0.0
193211,1.118867,-1.449153,0.198914,-0.245247,-0.128475,0.07718799999999999,0.0,6.0,62.0,175.0,30.0,0.0
193212,1.18837,-1.454346,0.264898,-0.221662,-0.118883,0.010991,0.0,6.0,62.0,175.0,30.0,0.0
193213,1.2029459999999998,-1.453997,0.2663,-0.123257,-0.16434400000000002,0.006564,0.0,6.0,62.0,175.0,30.0,0.0
193214,1.177232,-1.449832,0.223599,-0.087786,-0.214922,-0.053048000000000005,0.0,6.0,62.0,175.0,30.0,0.0
193215,1.141731,-1.4452459999999998,0.169438,-0.064853,-0.239947,-0.035173,0.0,6.0,62.0,175.0,30.0,0.0
193216,1.124581,-1.441014,0.132472,0.038732,-0.392805,-0.081726,0.0,6.0,62.0,175.0,30.0,0.0
193217,1.086383,-1.43699,0.07725499999999999,0.17681,-0.170444,-0.06829500000000001,0.0,6.0,62.0,175.0,30.0,0.0
193218,1.038596,-1.43538,0.01706,0.281046,0.073776,0.018665,0.0,6.0,62.0,175.0,30.0,0.0
193219,1.01663,-1.435899,-0.013588,0.259243,-0.020685,0.145902,0.0,6.0,62.0,175.0,30.0,0.0
193220,0.983296,-1.430274,-0.050433,0.117456,-0.24620100000000006,0.183035,0.0,6.0,62.0,175.0,30.0,0.0
193221,0.892717,-1.413468,-0.139228,-0.031878,-0.31991,0.20738,0.0,6.0,62.0,175.0,30.0,0.0
193222,0.7912060000000001,-1.383123,-0.235189,-0.188,-0.221134,0.211659,0.0,6.0,62.0,175.0,30.0,0.0
193223,0.7124739999999999,-1.334732,-0.310283,-0.260779,0.220346,0.007961,0.0,6.0,62.0,175.0,30.0,0.0
193224,0.673813,-1.275153,-0.353233,-0.139069,0.662846,-0.094621,0.0,6.0,62.0,175.0,30.0,0.0
193225,0.66478,-1.221176,-0.366636,0.111478,0.7001609999999999,-0.013028,0.0,6.0,62.0,175.0,30.0,0.0
193226,0.6630510000000001,-1.185124,-0.362822,0.274388,0.382216,0.10429,0.0,6.0,62.0,175.0,30.0,0.0
193227,0.665272,-1.162312,-0.362659,0.053607,0.558183,-0.207464,0.0,6.0,62.0,175.0,30.0,0.0
193228,0.690635,-1.152596,-0.348357,-0.250679,0.8957639999999999,-0.285858,0.0,6.0,62.0,175.0,30.0,0.0
193229,0.7308100000000001,-1.151774,-0.310619,-0.315608,0.324367,-0.072157,0.0,6.0,62.0,175.0,30.0,0.0
193230,0.771095,-1.155608,-0.27467,-0.168225,-0.269853,-0.01516,0.0,6.0,62.0,175.0,30.0,0.0
193231,0.816122,-1.167348,-0.241683,-0.099048,-0.5216109999999999,-0.085884,0.0,6.0,62.0,175.0,30.0,0.0
193232,0.8369059999999999,-1.188041,-0.22741,-0.068715,-0.759975,-0.051007,0.0,6.0,62.0,175.0,30.0,0.0
193233,0.829017,-1.218084,-0.231889,-0.008695999999999999,-0.61924,-0.054186,0.0,6.0,62.0,175.0,30.0,0.0
193234,0.809693,-1.253532,-0.242768,-0.005244,-0.498951,-0.037746,0.0,6.0,62.0,175.0,30.0,0.0
193235,0.785198,-1.286779,-0.256018,-0.037134,-0.17385,0.00958,0.0,6.0,62.0,175.0,30.0,0.0
193236,0.769518,-1.3134370000000002,-0.264453,-0.039872000000000005,-0.108896,-0.028128,0.0,6.0,62.0,175.0,30.0,0.0
193237,0.795778,-1.333349,-0.237938,-0.178448,0.069547,0.104011,0.0,6.0,62.0,175.0,30.0,0.0
193238,0.844628,-1.349656,-0.192574,-0.243379,0.05989,0.169918,0.0,6.0,62.0,175.0,30.0,0.0
193239,0.884792,-1.3636549999999998,-0.15695499999999998,-0.25824,0.13758800000000002,0.111306,0.0,6.0,62.0,175.0,30.0,0.0
193240,0.913585,-1.379324,-0.131855,-0.23913,0.064448,0.029372,0.0,6.0,62.0,175.0,30.0,0.0
193241,0.960667,-1.396918,-0.096974,-0.284667,0.121509,-0.050048,0.0,6.0,62.0,175.0,30.0,0.0
193242,1.031683,-1.408969,-0.056046000000000006,-0.244051,0.228718,0.068399,0.0,6.0,62.0,175.0,30.0,0.0
193243,1.071101,-1.411875,-0.052553,-0.158503,0.24050700000000005,-0.117596,0.0,6.0,62.0,175.0,30.0,0.0
193244,1.060302,-1.412854,-0.084736,0.060224,0.154918,0.17941700000000002,0.0,6.0,62.0,175.0,30.0,0.0
193245,1.026626,-1.412652,-0.137208,0.2627,0.16048900000000002,0.19667,0.0,6.0,62.0,175.0,30.0,0.0
193246,0.977094,-1.403767,-0.207273,0.33695,0.129075,0.030686,0.0,6.0,62.0,175.0,30.0,0.0
193247,1.009183,-1.4005379999999998,-0.185011,0.091322,0.54342,-0.188228,0.0,6.0,62.0,175.0,30.0,0.0
193248,1.0358379999999998,-1.407038,-0.154702,0.263382,1.144833,-0.164466,0.0,6.0,62.0,175.0,30.0,0.0
193249,1.097461,-1.402549,-0.098911,0.304197,-0.178751,0.050513,0.0,6.0,62.0,175.0,30.0,0.0
193250,1.119773,-1.392524,-0.081581,0.287937,-0.158636,-0.054666999999999986,0.0,6.0,62.0,175.0,30.0,0.0
193251,1.137836,-1.386709,-0.06292400000000001,0.03383,-0.184627,-0.170106,0.0,6.0,62.0,175.0,30.0,0.0
193252,1.1616030000000002,-1.3854229999999998,-0.029843,-0.075706,-0.349033,-0.08565199999999999,0.0,6.0,62.0,175.0,30.0,0.0
193253,1.180057,-1.387733,-0.003516,-0.13128199999999998,-0.07968,-0.154896,0.0,6.0,62.0,175.0,30.0,0.0
193254,1.221747,-1.388967,0.038081,-0.07069,-0.022501,-0.127077,0.0,6.0,62.0,175.0,30.0,0.0
193255,1.245709,-1.390108,0.060789,0.114778,-0.144777,-0.018854,0.0,6.0,62.0,175.0,30.0,0.0
193256,1.249302,-1.390872,0.062136,0.126915,-0.165101,-0.062322,0.0,6.0,62.0,175.0,30.0,0.0
193257,1.261676,-1.390456,0.07109,0.176787,-0.113604,-0.018038,0.0,6.0,62.0,175.0,30.0,0.0
193258,1.267487,-1.392501,0.079593,0.138676,-0.097535,0.00115,0.0,6.0,62.0,175.0,30.0,0.0
193259,1.230921,-1.396764,0.051581,0.026412,0.026305,-0.044177,0.0,6.0,62.0,175.0,30.0,0.0
193260,1.171596,-1.401267,-0.00049,0.023498,-0.027397,0.042884,0.0,6.0,62.0,175.0,30.0,0.0
193261,1.094341,-1.399903,-0.074018,0.07903500000000001,-0.225683,0.146473,0.0,6.0,62.0,175.0,30.0,0.0
193262,0.985936,-1.390975,-0.176291,0.095235,-0.372029,0.277967,0.0,6.0,62.0,175.0,30.0,0.0
193263,0.8691129999999999,-1.37252,-0.27863000000000004,-0.03757,-0.374405,0.39973,0.0,6.0,62.0,175.0,30.0,0.0
193264,0.771367,-1.337915,-0.36408,-0.26823800000000003,-0.163023,0.21198000000000006,0.0,6.0,62.0,175.0,30.0,0.0
193265,0.7225659999999999,-1.286553,-0.414629,-0.38836,0.31692,-0.14693399999999998,0.0,6.0,62.0,175.0,30.0,0.0
193266,0.7199479999999999,-1.233598,-0.426724,-0.345473,0.7840060000000001,-0.012659,0.0,6.0,62.0,175.0,30.0,0.0
193267,0.717771,-1.192421,-0.428184,-0.14964,0.643259,0.061652,0.0,6.0,62.0,175.0,30.0,0.0
193268,0.724294,-1.163708,-0.41932,0.128474,0.303418,-0.091855,0.0,6.0,62.0,175.0,30.0,0.0
193269,0.740876,-1.1449,-0.410857,0.072739,0.466437,-0.220731,0.0,6.0,62.0,175.0,30.0,0.0
193270,0.759558,-1.1391870000000002,-0.398915,0.01786,0.376267,-0.195797,0.0,6.0,62.0,175.0,30.0,0.0
193271,0.777777,-1.144969,-0.376343,-0.158962,-0.013891999999999998,-0.08474,0.0,6.0,62.0,175.0,30.0,0.0
193272,0.7982520000000001,-1.156554,-0.349345,-0.150607,-0.285722,-0.048681,0.0,6.0,62.0,175.0,30.0,0.0
193273,0.817978,-1.1756,-0.329557,-0.063039,-0.617791,-0.027664,0.0,6.0,62.0,175.0,30.0,0.0
193274,0.825218,-1.202342,-0.326717,-0.034498,-0.500833,-0.076859,0.0,6.0,62.0,175.0,30.0,0.0
193275,0.815229,-1.235297,-0.339395,0.054254,-0.381563,-0.173717,0.0,6.0,62.0,175.0,30.0,0.0
193276,0.7955949999999999,-1.273588,-0.361047,0.065315,-0.24403,-0.173618,0.0,6.0,62.0,175.0,30.0,0.0
193277,0.7719520000000001,-1.311675,-0.380838,0.104995,-0.057816999999999986,-0.147791,0.0,6.0,62.0,175.0,30.0,0.0
193278,0.76281,-1.345795,-0.379447,0.14970899999999998,-0.025148,-0.16008499999999998,0.0,6.0,62.0,175.0,30.0,0.0
193279,0.791241,-1.3717,-0.34170900000000004,0.043463,0.01211,0.044777,0.0,6.0,62.0,175.0,30.0,0.0
193280,0.8201219999999999,-1.385374,-0.306997,-0.11935,-0.008615000000000001,0.13730599999999998,0.0,6.0,62.0,175.0,30.0,0.0
193281,0.816878,-1.388952,-0.301225,-0.308942,-0.08451,0.004171,0.0,6.0,62.0,175.0,30.0,0.0
193282,0.8429549999999999,-1.391615,-0.26607,-0.354709,-0.225979,0.021866,0.0,6.0,62.0,175.0,30.0,0.0
193283,0.940851,-1.401248,-0.165545,-0.328316,-0.182484,0.091053,0.0,6.0,62.0,175.0,30.0,0.0
193284,1.034679,-1.4143139999999998,-0.061364,-0.06853,0.630947,0.155912,0.0,6.0,62.0,175.0,30.0,0.0
193285,0.942363,-1.418447,-0.132365,0.239405,0.987916,-0.03397,0.0,6.0,62.0,175.0,30.0,0.0
193286,0.8546790000000001,-1.4111280000000002,-0.207952,0.424379,0.546488,0.077269,0.0,6.0,62.0,175.0,30.0,0.0
193287,0.916296,-1.408825,-0.143788,0.108759,0.4995850000000001,-0.051627,0.0,6.0,62.0,175.0,30.0,0.0
193288,0.978419,-1.408571,-0.073331,0.313075,0.063316,0.065946,0.0,6.0,62.0,175.0,30.0,0.0
193289,1.019146,-1.403242,-0.027721,0.318343,-0.075198,0.011719,0.0,6.0,62.0,175.0,30.0,0.0
193290,1.037157,-1.40273,0.002106,0.17011600000000002,-0.090723,0.003544,0.0,6.0,62.0,175.0,30.0,0.0
193291,1.090261,-1.406356,0.072424,0.001739,-0.229171,0.058854,0.0,6.0,62.0,175.0,30.0,0.0
193292,1.144501,-1.413306,0.145311,-0.102411,-0.273452,0.027224,0.0,6.0,62.0,175.0,30.0,0.0
193293,1.186513,-1.420712,0.199714,-0.161944,-0.216465,-0.056754999999999986,0.0,6.0,62.0,175.0,30.0,0.0
193294,1.226715,-1.42659,0.243704,-0.0572,-0.15223299999999998,-0.06592,0.0,6.0,62.0,175.0,30.0,0.0
193295,1.26596,-1.430807,0.284166,0.040155,-0.168822,-0.017480000000000002,0.0,6.0,62.0,175.0,30.0,0.0
193296,1.281069,-1.433533,0.298043,0.060282,-0.13498800000000002,-0.077426,0.0,6.0,62.0,175.0,30.0,0.0
193297,1.262103,-1.43529,0.274694,0.120689,-0.080951,0.004512,0.0,6.0,62.0,175.0,30.0,0.0
193298,1.190701,-1.438666,0.206098,0.206308,-0.087872,0.06711,0.0,6.0,62.0,175.0,30.0,0.0
193299,1.070356,-1.438105,0.093582,0.151582,-0.372572,0.163224,0.0,6.0,62.0,175.0,30.0,0.0
193300,0.936839,-1.429185,-0.028457,-0.006225,-0.5630029999999999,0.218164,0.0,6.0,62.0,175.0,30.0,0.0
193301,0.810566,-1.409143,-0.140404,-0.1522,-0.572976,0.398441,0.0,6.0,62.0,175.0,30.0,0.0
193302,0.695321,-1.378229,-0.241217,-0.281323,-0.495493,0.321843,0.0,6.0,62.0,175.0,30.0,0.0
193303,0.60605,-1.335678,-0.318961,-0.44123,-0.230299,0.027862,0.0,6.0,62.0,175.0,30.0,0.0
193304,0.570261,-1.287565,-0.352418,-0.307665,0.242357,0.047461,0.0,6.0,62.0,175.0,30.0,0.0
193305,0.571523,-1.245354,-0.354595,-0.177522,0.4834600000000001,0.047571,0.0,6.0,62.0,175.0,30.0,0.0
193306,0.5628029999999999,-1.21118,-0.353926,0.242562,0.700595,0.030118,0.0,6.0,62.0,175.0,30.0,0.0
193307,0.566555,-1.187531,-0.346857,0.157888,0.545482,-0.281952,0.0,6.0,62.0,175.0,30.0,0.0
193308,0.590882,-1.183909,-0.325839,-0.082936,0.926436,-0.334067,0.0,6.0,62.0,175.0,30.0,0.0
193309,0.625777,-1.191165,-0.292512,-0.192871,0.51085,-0.23107800000000006,0.0,6.0,62.0,175.0,30.0,0.0
193310,0.662506,-1.202195,-0.255937,-0.128591,0.099837,-0.202532,0.0,6.0,62.0,175.0,30.0,0.0
193311,0.698417,-1.219868,-0.225463,0.135447,0.10631,-0.036481,0.0,6.0,62.0,175.0,30.0,0.0
193312,0.718592,-1.243482,-0.212795,0.174458,0.071234,0.033461000000000005,0.0,6.0,62.0,175.0,30.0,0.0
193313,0.738807,-1.275099,-0.198886,0.109904,-0.130214,-0.042233,0.0,6.0,62.0,175.0,30.0,0.0
193314,0.780172,-1.312639,-0.16276400000000002,-0.018199,-0.308125,-0.127039,0.0,6.0,62.0,175.0,30.0,0.0
193315,0.831267,-1.35007,-0.10876,0.008192,-0.409409,-0.106571,0.0,6.0,62.0,175.0,30.0,0.0
193316,0.855504,-1.38216,-0.07638500000000001,0.013886,-0.602729,0.102487,0.0,6.0,62.0,175.0,30.0,0.0
193317,0.8408690000000001,-1.405437,-0.084922,0.01915,-0.761033,0.17213699999999998,0.0,6.0,62.0,175.0,30.0,0.0
193318,0.817103,-1.4224,-0.098277,0.181853,-1.243038,-0.011235,0.0,6.0,62.0,175.0,30.0,0.0
193319,0.813895,-1.436348,-0.084663,-0.113309,-1.307733,0.176939,0.0,6.0,62.0,175.0,30.0,0.0
193320,0.942606,-1.44681,0.075003,-0.240266,-1.204604,0.271907,0.0,6.0,62.0,175.0,30.0,0.0
193321,1.073981,-1.438182,0.252993,-0.276129,-0.783944,0.050064,0.0,6.0,62.0,175.0,30.0,0.0
193322,1.132044,-1.440149,0.322703,-0.11924,2.870629,0.207652,0.0,6.0,62.0,175.0,30.0,0.0
193323,1.345053,-1.460627,0.551875,-0.355375,1.187352,0.76655,0.0,6.0,62.0,175.0,30.0,0.0
193324,1.188168,-1.445929,0.378445,0.09686,0.765293,-0.233641,0.0,6.0,62.0,175.0,30.0,0.0
193325,1.029543,-1.437779,0.220927,0.4628930000000001,0.011824,-0.062382000000000014,0.0,6.0,62.0,175.0,30.0,0.0
193326,0.980306,-1.4271459999999998,0.17653,0.5011770000000001,-0.128402,-0.14941,0.0,6.0,62.0,175.0,30.0,0.0
193327,1.0034299999999998,-1.427878,0.208059,0.129661,0.183871,-0.237195,0.0,6.0,62.0,175.0,30.0,0.0
193328,1.023865,-1.43067,0.23154,0.256917,0.655157,-0.187422,0.0,6.0,62.0,175.0,30.0,0.0
193329,1.030346,-1.433607,0.239341,0.338745,0.262325,0.064626,0.0,6.0,62.0,175.0,30.0,0.0
193330,1.038089,-1.435644,0.257597,0.15879,-0.207632,0.165916,0.0,6.0,62.0,175.0,30.0,0.0
193331,1.041716,-1.436226,0.27269,-0.014971,-0.315346,0.225217,0.0,6.0,62.0,175.0,30.0,0.0
193332,0.979769,-1.430674,0.211848,-0.367936,-0.441722,0.231185,0.0,6.0,62.0,175.0,30.0,0.0
193333,0.853751,-1.415838,0.08519,-0.464473,-0.5677760000000001,0.195614,0.0,6.0,62.0,175.0,30.0,0.0
193334,0.724747,-1.3927969999999998,-0.041382,-0.331398,-0.615609,0.232348,0.0,6.0,62.0,175.0,30.0,0.0
193335,0.620533,-1.358906,-0.14470999999999998,-0.29962300000000003,-0.5971420000000001,0.200119,0.0,6.0,62.0,175.0,30.0,0.0
193336,0.5630189999999999,-1.31827,-0.206295,-0.167061,-0.49955,0.121699,0.0,6.0,62.0,175.0,30.0,0.0
193337,0.5462359999999999,-1.275817,-0.226685,-0.154621,-0.207022,0.16667300000000002,0.0,6.0,62.0,175.0,30.0,0.0
193338,0.540058,-1.231266,-0.237764,-0.14263499999999998,-0.035944,0.149153,0.0,6.0,62.0,175.0,30.0,0.0
193339,0.531511,-1.189055,-0.244368,0.447431,1.005241,0.108815,0.0,6.0,62.0,175.0,30.0,0.0
193340,0.5097470000000001,-1.17203,-0.25716100000000003,0.565419,0.916625,-0.040554,0.0,6.0,62.0,175.0,30.0,0.0
193341,0.520985,-1.185599,-0.244411,-0.123939,0.668521,-0.210669,0.0,6.0,62.0,175.0,30.0,0.0
193342,0.540717,-1.204118,-0.224333,-0.426474,0.237451,-0.311176,0.0,6.0,62.0,175.0,30.0,0.0
193343,0.5586810000000001,-1.22387,-0.216046,-0.472768,0.096352,-0.423787,0.0,6.0,62.0,175.0,30.0,0.0
193344,0.5635939999999999,-1.252626,-0.223297,0.348184,0.190739,-0.193822,0.0,6.0,62.0,175.0,30.0,0.0
193345,0.542668,-1.292209,-0.253693,0.28891,0.381908,-0.202166,0.0,6.0,62.0,175.0,30.0,0.0
193346,0.513562,-1.335568,-0.28904,0.197681,0.23917800000000006,-0.217368,0.0,6.0,62.0,175.0,30.0,0.0
193347,0.5307390000000001,-1.3730950000000002,-0.269885,0.203545,-0.195929,-0.059352,0.0,6.0,62.0,175.0,30.0,0.0
193348,0.564277,-1.400134,-0.23803,0.0301,-0.599379,0.0429,0.0,6.0,62.0,175.0,30.0,0.0
193349,0.568768,-1.421753,-0.239183,-0.08723600000000001,-0.806769,0.226976,0.0,6.0,62.0,175.0,30.0,0.0
193350,0.50851,-1.442344,-0.296762,-0.140596,-0.994676,0.319022,0.0,6.0,62.0,175.0,30.0,0.0
193351,0.4148560000000001,-1.460369,-0.372043,-0.138347,-1.0308959999999998,0.045288,0.0,6.0,62.0,175.0,30.0,0.0
193352,0.394105,-1.48284,-0.37328,-0.153156,-1.027781,0.190351,0.0,6.0,62.0,175.0,30.0,0.0
193353,0.537904,-1.503475,-0.201775,-0.057696,-0.30433000000000004,0.004534000000000001,0.0,6.0,62.0,175.0,30.0,0.0
193354,0.583914,-1.501101,-0.118817,-0.108099,1.56563,0.231105,0.0,6.0,62.0,175.0,30.0,0.0
193355,0.7207020000000001,-1.516487,0.014904,-0.129971,1.941767,0.338225,0.0,6.0,62.0,175.0,30.0,0.0
193356,0.960045,-1.5091450000000002,0.24197,0.05763,-0.333504,0.171236,0.0,6.0,62.0,175.0,30.0,0.0
193357,0.7677229999999999,-1.499792,0.040113,0.34670100000000004,-0.5602239999999999,-0.373202,0.0,6.0,62.0,175.0,30.0,0.0
193358,0.631301,-1.511957,-0.09006499999999999,0.630599,0.925513,-0.151392,0.0,6.0,62.0,175.0,30.0,0.0
193359,0.731366,-1.534511,0.012727,0.5595399999999999,0.22185,0.421349,0.0,6.0,62.0,175.0,30.0,0.0
193360,1.020792,-1.535364,0.316767,0.368667,-0.472883,-0.172474,0.0,6.0,62.0,175.0,30.0,0.0
193361,1.186443,-1.536486,0.4960850000000001,0.181532,0.13253099999999998,-0.226569,0.0,6.0,62.0,175.0,30.0,0.0
193362,1.3516780000000002,-1.539845,0.66801,0.16822,0.6994229999999999,0.009683,0.0,6.0,62.0,175.0,30.0,0.0
193363,1.388477,-1.5456530000000002,0.715697,0.17306,-0.039433,-0.116004,0.0,6.0,62.0,175.0,30.0,0.0
193364,1.614514,-1.552307,0.949503,0.272661,-0.22175300000000006,-0.109816,0.0,6.0,62.0,175.0,30.0,0.0
193365,1.755612,-1.5586799999999998,1.093907,0.33106,-0.20975,-0.060568,0.0,6.0,62.0,175.0,30.0,0.0
193366,1.034226,-1.5660690000000002,0.37814,0.3418,-0.30592800000000003,-0.07851699999999999,0.0,6.0,62.0,175.0,30.0,0.0
193367,-0.64523,-1.561423,-1.287628,0.329831,-0.403795,-0.047786,0.0,6.0,62.0,175.0,30.0,0.0
193368,-1.078113,-1.553473,-1.703325,0.129588,-0.440096,-0.010779,0.0,6.0,62.0,175.0,30.0,0.0
193369,-1.271972,-1.548294,-1.881385,0.073923,-0.422812,0.141087,0.0,6.0,62.0,175.0,30.0,0.0
193370,-1.103059,-1.5455020000000002,-1.6997369999999998,-0.126102,-0.367173,0.183425,0.0,6.0,62.0,175.0,30.0,0.0
193371,-0.5672159999999999,-1.536447,-1.1552790000000002,-0.323852,0.0525,0.215535,0.0,6.0,62.0,175.0,30.0,0.0
193372,-0.095622,-1.517816,-0.674515,-0.104352,0.5170130000000001,0.419986,0.0,6.0,62.0,175.0,30.0,0.0
193373,0.14896700000000002,-1.492353,-0.4155180000000001,0.034041,0.667824,0.432842,0.0,6.0,62.0,175.0,30.0,0.0
193374,0.295937,-1.470451,-0.249619,-0.077811,1.158717,0.042894,0.0,6.0,62.0,175.0,30.0,0.0
193375,0.39893,-1.449729,-0.123894,-0.22861,1.452831,-0.006074,0.0,6.0,62.0,175.0,30.0,0.0
193376,0.432522,-1.427099,-0.05989,-0.102793,1.224098,0.134924,0.0,6.0,62.0,175.0,30.0,0.0
193377,0.444104,-1.402672,-0.011297,0.146323,0.739426,0.104542,0.0,6.0,62.0,175.0,30.0,0.0
193378,0.470921,-1.380751,0.048936,0.091526,0.665832,-0.009762,0.0,6.0,62.0,175.0,30.0,0.0
193379,0.499184,-1.360076,0.109099,0.051529999999999986,0.639795,-0.034013,0.0,6.0,62.0,175.0,30.0,0.0
193380,0.52308,-1.342534,0.160838,0.032987,0.4123979999999999,-0.002384,0.0,6.0,62.0,175.0,30.0,0.0
193381,0.543557,-1.328547,0.21009,0.210469,0.102182,0.034322000000000005,0.0,6.0,62.0,175.0,30.0,0.0
193382,0.5584399999999999,-1.319778,0.26265,0.266963,-0.036913,0.129248,0.0,6.0,62.0,175.0,30.0,0.0
193383,0.56035,-1.3145440000000002,0.309759,0.272733,-0.342835,0.34410300000000005,0.0,6.0,62.0,175.0,30.0,0.0
193384,0.545384,-1.312826,0.347137,0.164702,-0.470526,0.414075,0.0,6.0,62.0,175.0,30.0,0.0
193385,0.50047,-1.317106,0.366332,0.114588,-0.543142,0.458523,0.0,6.0,62.0,175.0,30.0,0.0
193386,0.424496,-1.324893,0.359635,-0.112986,-0.705849,0.389138,0.0,6.0,62.0,175.0,30.0,0.0
193387,0.331343,-1.332347,0.330898,-0.147547,-0.69926,0.382619,0.0,6.0,62.0,175.0,30.0,0.0
193388,0.234263,-1.33973,0.289052,-0.150908,-0.669758,0.390255,0.0,6.0,62.0,175.0,30.0,0.0
193389,0.145446,-1.344335,0.250793,-0.184138,-0.551524,0.259435,0.0,6.0,62.0,175.0,30.0,0.0
193390,0.062046,-1.349774,0.221225,0.004305,-0.286831,-0.153648,0.0,6.0,62.0,175.0,30.0,0.0
193391,-0.018106,-1.355274,0.188548,0.081478,0.016909999999999998,-0.005021,0.0,6.0,62.0,175.0,30.0,0.0
193392,-0.07259299999999999,-1.343035,0.172275,0.05707200000000001,0.354057,-0.054158000000000005,0.0,6.0,62.0,175.0,30.0,0.0
193393,-0.065602,-1.3146719999999998,0.209206,0.058614,0.285215,-0.267752,0.0,6.0,62.0,175.0,30.0,0.0
193394,-0.008762,-1.28736,0.283114,0.1728,0.063612,-0.295704,0.0,6.0,62.0,175.0,30.0,0.0
193395,0.063,-1.269781,0.365204,0.4486189999999999,-0.287571,-0.309904,0.0,6.0,62.0,175.0,30.0,0.0
193396,0.119654,-1.265825,0.4316140000000001,0.547425,-0.569975,-0.239892,0.0,6.0,62.0,175.0,30.0,0.0
193397,0.14438399999999998,-1.2685,0.471834,0.358364,-0.013631,-0.099825,0.0,6.0,62.0,175.0,30.0,0.0
193398,0.15111,-1.257541,0.500738,0.340666,0.71909,0.12331,0.0,6.0,62.0,175.0,30.0,0.0
193399,0.147,-1.254551,0.539387,0.206599,1.583587,1.135649,0.0,6.0,62.0,175.0,30.0,0.0
193400,0.101164,-1.283555,0.5268149999999999,-0.31949,1.070909,0.270384,0.0,6.0,62.0,175.0,30.0,0.0
193401,0.053473,-1.2615299999999998,0.517083,-0.191011,0.15721500000000002,0.304703,0.0,6.0,62.0,175.0,30.0,0.0
193402,0.046787,-1.252565,0.538341,0.050399,-0.491355,0.635284,0.0,6.0,62.0,175.0,30.0,0.0
193403,0.033415,-1.2476040000000002,0.533794,0.04896,-0.397384,0.671849,0.0,6.0,62.0,175.0,30.0,0.0
193404,-0.012252,-1.251437,0.498468,0.107194,-0.242696,0.615402,0.0,6.0,62.0,175.0,30.0,0.0
193405,-0.091678,-1.272373,0.4435770000000001,0.050934,0.437647,0.305367,0.0,6.0,62.0,175.0,30.0,0.0
193406,-0.17977200000000002,-1.302684,0.386184,0.072788,0.625586,0.188422,0.0,6.0,62.0,175.0,30.0,0.0
193407,-0.242446,-1.334508,0.353018,0.17142000000000002,0.228668,0.133758,0.0,6.0,62.0,175.0,30.0,0.0
193408,-0.2791,-1.368513,0.340297,0.391667,-0.098156,0.073625,0.0,6.0,62.0,175.0,30.0,0.0
193409,-0.331281,-1.396968,0.313521,0.304728,-0.297445,0.056569000000000015,0.0,6.0,62.0,175.0,30.0,0.0
193410,-0.478623,-1.426126,0.201633,0.185353,-0.381903,0.049655,0.0,6.0,62.0,175.0,30.0,0.0
193411,-0.769728,-1.44638,-0.051029000000000005,-0.232396,-0.39617,0.236845,0.0,6.0,62.0,175.0,30.0,0.0
193412,-1.087782,-1.446056,-0.339127,-0.187426,-0.227383,0.167098,0.0,6.0,62.0,175.0,30.0,0.0
193413,-1.300486,-1.439512,-0.535566,0.023247,-0.021638,0.132383,0.0,6.0,62.0,175.0,30.0,0.0
193414,-1.47368,-1.437259,-0.700079,-0.010799,-0.116646,0.047242,0.0,6.0,62.0,175.0,30.0,0.0
193415,-1.629988,-1.43351,-0.850794,-0.085034,-0.101065,-0.040628,0.0,6.0,62.0,175.0,30.0,0.0
193416,-1.7734900000000002,-1.424427,-0.990305,-0.023002,-0.052372,-0.041811,0.0,6.0,62.0,175.0,30.0,0.0
193417,-1.877401,-1.412788,-1.092825,0.296879,-0.048898,-0.035057,0.0,6.0,62.0,175.0,30.0,0.0
193418,-1.942386,-1.404626,-1.16268,0.354038,0.0006519999999999999,-0.062775,0.0,6.0,62.0,175.0,30.0,0.0
193419,-1.994368,-1.39859,-1.219009,0.370218,0.145009,-0.142453,0.0,6.0,62.0,175.0,30.0,0.0
193420,-2.037248,-1.39251,-1.260892,0.41612,0.328549,-0.151884,0.0,6.0,62.0,175.0,30.0,0.0
193421,-2.069423,-1.3887459999999998,-1.284961,0.592458,0.239349,-0.041658,0.0,6.0,62.0,175.0,30.0,0.0
193422,-2.079915,-1.39023,-1.274912,0.79391,0.068504,-0.005989,0.0,6.0,62.0,175.0,30.0,0.0
193423,-2.084206,-1.396344,-1.244993,0.742668,0.040096,0.186434,0.0,6.0,62.0,175.0,30.0,0.0
193424,-2.06573,-1.411053,-1.188696,0.249595,0.216055,0.204158,0.0,6.0,62.0,175.0,30.0,0.0
193425,-1.991468,-1.435539,-1.084088,-0.103644,0.321725,0.222171,0.0,6.0,62.0,175.0,30.0,0.0
193426,-1.782768,-1.466093,-0.853982,-0.218843,0.22589,0.251328,0.0,6.0,62.0,175.0,30.0,0.0
193427,-1.252566,-1.490166,-0.307674,-0.186613,0.110213,0.33972800000000003,0.0,6.0,62.0,175.0,30.0,0.0
193428,-0.596381,-1.483867,0.366419,-0.099707,0.191993,0.162224,0.0,6.0,62.0,175.0,30.0,0.0
193429,-0.20875900000000006,-1.468029,0.771179,-0.099376,0.370556,0.126617,0.0,6.0,62.0,175.0,30.0,0.0
193430,0.050368,-1.450253,1.0498,-0.016506,0.45942,0.06325800000000001,0.0,6.0,62.0,175.0,30.0,0.0
193431,0.215717,-1.425235,1.242035,0.156164,0.31253200000000003,0.13576300000000002,0.0,6.0,62.0,175.0,30.0,0.0
193432,0.329631,-1.398251,1.380223,0.293974,0.086489,0.086761,0.0,6.0,62.0,175.0,30.0,0.0
193433,0.411413,-1.3741219999999998,1.4899950000000002,0.199352,0.00289,0.138269,0.0,6.0,62.0,175.0,30.0,0.0
193434,0.470627,-1.353503,1.587358,0.112464,-0.06497,0.14716500000000002,0.0,6.0,62.0,175.0,30.0,0.0
193435,0.505146,-1.334273,1.66724,0.058021,-0.13733499999999998,0.193688,0.0,6.0,62.0,175.0,30.0,0.0
193436,0.520746,-1.317116,1.7311470000000002,0.043625,-0.177651,0.169406,0.0,6.0,62.0,175.0,30.0,0.0
193437,0.521109,-1.303581,1.781956,0.079088,-0.156084,0.205682,0.0,6.0,62.0,175.0,30.0,0.0
193438,0.506376,-1.293395,1.816689,0.104116,-0.166528,0.267183,0.0,6.0,62.0,175.0,30.0,0.0
193439,0.482978,-1.2879200000000002,1.841055,0.067777,-0.243689,0.269009,0.0,6.0,62.0,175.0,30.0,0.0
193440,0.450282,-1.289525,1.855442,-0.0057090000000000005,-0.268687,0.216155,0.0,6.0,62.0,175.0,30.0,0.0
193441,0.407661,-1.298114,1.857225,-0.029899,-0.255304,0.166799,0.0,6.0,62.0,175.0,30.0,0.0
193442,0.358997,-1.312374,1.848044,-0.027453,-0.14060699999999998,0.034656,0.0,6.0,62.0,175.0,30.0,0.0
193443,0.29921,-1.327956,1.822834,0.005721,-0.108476,0.021278,0.0,6.0,62.0,175.0,30.0,0.0
193444,0.23392,-1.342515,1.7876869999999998,-0.001506,-0.020001,0.117858,0.0,6.0,62.0,175.0,30.0,0.0
193445,0.17239100000000002,-1.35873,1.755524,0.011976,0.252825,-0.080104,0.0,6.0,62.0,175.0,30.0,0.0
193446,0.123166,-1.374116,1.738277,-0.015874,0.309135,-0.155923,0.0,6.0,62.0,175.0,30.0,0.0
193447,0.101788,-1.371721,1.7462919999999995,0.061647,0.147771,0.053548,0.0,6.0,62.0,175.0,30.0,0.0
193448,0.135973,-1.351347,1.7952259999999998,0.098558,-0.078053,0.101452,0.0,6.0,62.0,175.0,30.0,0.0
193449,0.20766,-1.331958,1.863897,0.14399,-0.341624,0.093763,0.0,6.0,62.0,175.0,30.0,0.0
193450,0.292511,-1.332122,1.940421,0.224874,-0.23505,0.151952,0.0,6.0,62.0,175.0,30.0,0.0
193451,0.358056,-1.345532,2.0063470000000003,0.335037,0.138653,0.22457600000000005,0.0,6.0,62.0,175.0,30.0,0.0
193452,0.384405,-1.36593,2.057662,0.078176,0.406807,-0.047773,0.0,6.0,62.0,175.0,30.0,0.0
193453,0.328183,-1.386311,2.054198,0.197039,0.632814,0.168381,0.0,6.0,62.0,175.0,30.0,0.0
193454,0.226342,-1.395817,2.000623,0.280803,-0.001545,0.486705,0.0,6.0,62.0,175.0,30.0,0.0
193455,0.11766,-1.398099,1.942989,0.195389,-0.258959,0.453209,0.0,6.0,62.0,175.0,30.0,0.0
193456,0.07070900000000001,-1.398264,1.940997,-0.023084,-0.277573,0.225428,0.0,6.0,62.0,175.0,30.0,0.0
193457,0.06600299999999999,-1.40706,1.96696,-0.180352,-0.2443,0.220079,0.0,6.0,62.0,175.0,30.0,0.0
193458,0.074187,-1.425983,2.000578,-0.24919,-0.108063,0.136046,0.0,6.0,62.0,175.0,30.0,0.0
193459,0.101864,-1.4438879999999998,2.041215,0.175774,0.27472,0.008673,0.0,6.0,62.0,175.0,30.0,0.0
193460,0.19566,-1.454095,2.135202,0.29496100000000003,0.220471,0.071668,0.0,6.0,62.0,175.0,30.0,0.0
193461,0.313284,-1.458718,2.256421,0.263965,-0.219434,0.074472,0.0,6.0,62.0,175.0,30.0,0.0
193462,0.34026100000000004,-1.462816,2.297926,0.166627,-0.260121,0.036216000000000005,0.0,6.0,62.0,175.0,30.0,0.0
193463,0.317569,-1.47224,2.298022,0.162179,-0.215515,0.085474,0.0,6.0,62.0,175.0,30.0,0.0
193464,0.304981,-1.481609,2.309496,0.11128699999999997,-0.246697,0.078087,0.0,6.0,62.0,175.0,30.0,0.0
193465,0.30659699999999995,-1.484975,2.330087,0.054363,-0.25416300000000003,-0.038696,0.0,6.0,62.0,175.0,30.0,0.0
193466,0.304709,-1.487521,2.343641,0.035579,-0.12783599999999998,-0.021613,0.0,6.0,62.0,175.0,30.0,0.0
193467,0.294501,-1.494146,2.348008,0.055702,0.001838,-0.036621,0.0,6.0,62.0,175.0,30.0,0.0
193468,0.300008,-1.498437,2.364768,0.057829999999999986,-0.106697,0.006146,0.0,6.0,62.0,175.0,30.0,0.0
193469,0.326173,-1.497909,2.397267,0.105393,-0.280014,0.111712,0.0,6.0,62.0,175.0,30.0,0.0
193470,0.310276,-1.494948,2.386264,0.188965,-0.357171,0.07007000000000001,0.0,6.0,62.0,175.0,30.0,0.0
193471,0.24747800000000006,-1.488159,2.3291880000000003,0.275789,-0.205251,0.00865,0.0,6.0,62.0,175.0,30.0,0.0
193472,0.203705,-1.478599,2.294845,0.309045,-0.021769,0.116441,0.0,6.0,62.0,175.0,30.0,0.0
193473,0.197702,-1.465726,2.29957,0.128451,-0.193948,0.248313,0.0,6.0,62.0,175.0,30.0,0.0
193474,0.224876,-1.443252,2.338124,-0.008997,-0.4354810000000001,0.288762,0.0,6.0,62.0,175.0,30.0,0.0
193475,0.250992,-1.40935,2.37858,-0.09084,-0.594799,0.264419,0.0,6.0,62.0,175.0,30.0,0.0
193476,0.289862,-1.370316,2.427851,-0.122087,-0.513586,0.094284,0.0,6.0,62.0,175.0,30.0,0.0
193477,0.347187,-1.327264,2.490422,-0.14838900000000002,-0.185992,0.061945000000000014,0.0,6.0,62.0,175.0,30.0,0.0
193478,0.397263,-1.281249,2.552187,-0.043127,0.29933200000000004,0.108357,0.0,6.0,62.0,175.0,30.0,0.0
193479,0.430375,-1.241801,2.604302,0.116699,0.563322,0.042498,0.0,6.0,62.0,175.0,30.0,0.0
193480,0.446126,-1.214302,2.639285,0.429346,0.531624,-0.119922,0.0,6.0,62.0,175.0,30.0,0.0
193481,0.48686,-1.207442,2.676721,-0.286976,1.181715,-0.535207,0.0,6.0,62.0,175.0,30.0,0.0
193482,0.561714,-1.210552,2.740374,-0.269572,0.801509,-0.43932,0.0,6.0,62.0,175.0,30.0,0.0
193483,0.611795,-1.2183620000000002,2.792327,-0.183419,-0.027433,-0.220496,0.0,6.0,62.0,175.0,30.0,0.0
193484,0.641372,-1.2293379999999998,2.824823,0.09975,-0.53382,0.1254,0.0,6.0,62.0,175.0,30.0,0.0
193485,0.654329,-1.240077,2.836816,0.316283,-0.6417619999999999,0.233725,0.0,6.0,62.0,175.0,30.0,0.0
193486,0.6415350000000001,-1.260939,2.8227830000000003,0.301522,-0.6212770000000001,0.07008400000000001,0.0,6.0,62.0,175.0,30.0,0.0
193487,0.624953,-1.294596,2.813195,0.174471,0.072234,-0.288717,0.0,6.0,62.0,175.0,30.0,0.0
193488,0.592044,-1.333072,2.7936970000000003,0.128412,0.698259,-0.291196,0.0,6.0,62.0,175.0,30.0,0.0
193489,0.583485,-1.363708,2.795144,-0.046808,0.340702,-0.030637,0.0,6.0,62.0,175.0,30.0,0.0
193490,0.6274529999999999,-1.384477,2.836854,-0.129655,-0.160305,0.038794,0.0,6.0,62.0,175.0,30.0,0.0
193491,0.652692,-1.405716,2.856846,-0.1267,-0.264939,0.047631,0.0,6.0,62.0,175.0,30.0,0.0
193492,0.621495,-1.432443,2.830059,-0.093021,-0.229779,0.027172,0.0,6.0,62.0,175.0,30.0,0.0
193493,0.589938,-1.458279,2.806951,0.071272,-0.5258729999999999,0.112793,0.0,6.0,62.0,175.0,30.0,0.0
193494,0.619383,-1.479825,2.836282,0.013782,-0.873627,-0.009385,0.0,6.0,62.0,175.0,30.0,0.0
193495,0.8078649999999999,-1.497138,3.019909,0.027903,-0.8698469999999999,-0.034207999999999995,0.0,6.0,62.0,175.0,30.0,0.0
193496,1.136285,-1.505671,-2.923732,-0.001675,-0.352616,0.187454,0.0,6.0,62.0,175.0,30.0,0.0
193497,1.1106,-1.504711,-2.916583,0.050738,0.934449,0.071788,0.0,6.0,62.0,175.0,30.0,0.0
193498,0.838037,-1.495689,3.104862,-0.064863,2.1963310000000003,-0.013748,0.0,6.0,62.0,175.0,30.0,0.0
193499,0.93558,-1.482201,-3.080434,-0.060349,0.061036,0.431095,0.0,6.0,62.0,175.0,30.0,0.0
193500,0.91955,-1.4644549999999998,-3.096553,0.35402100000000003,-0.381421,-0.264019,0.0,6.0,62.0,175.0,30.0,0.0
193501,0.8903690000000001,-1.46911,-3.123082,0.28191,-0.278434,-0.137436,0.0,6.0,62.0,175.0,30.0,0.0
193502,0.959967,-1.478858,-3.035064,0.257442,0.333951,-0.126288,0.0,6.0,62.0,175.0,30.0,0.0
193503,1.005319,-1.489358,-2.976828,0.192462,0.141895,0.188358,0.0,6.0,62.0,175.0,30.0,0.0
193504,1.143702,-1.488694,-2.831164,0.232768,-0.21645,-0.162703,0.0,6.0,62.0,175.0,30.0,0.0
193505,1.213627,-1.4849139999999998,-2.766202,0.11906,-0.149619,-0.313122,0.0,6.0,62.0,175.0,30.0,0.0
193506,1.252831,-1.484743,-2.739,0.018328,0.109032,-0.029849,0.0,6.0,62.0,175.0,30.0,0.0
193507,1.248142,-1.489648,-2.747393,-0.025801,-0.051687,-0.006372999999999999,0.0,6.0,62.0,175.0,30.0,0.0
193508,1.17441,-1.491461,-2.82325,-0.037122,-0.355863,0.034304,0.0,6.0,62.0,175.0,30.0,0.0
193509,0.995068,-1.486673,-3.013849,-0.033459,-0.4961890000000001,0.076888,0.0,6.0,62.0,175.0,30.0,0.0
193510,0.764567,-1.472903,3.026831,0.027195,-0.5690189999999999,0.148398,0.0,6.0,62.0,175.0,30.0,0.0
193511,0.6224,-1.4502469999999998,2.878066,0.122795,-0.6225649999999999,0.2914,0.0,6.0,62.0,175.0,30.0,0.0
193512,0.59025,-1.417019,2.841107,0.077057,-0.645777,0.229718,0.0,6.0,62.0,175.0,30.0,0.0
193513,0.5847359999999999,-1.370101,2.827126,-0.16802,-0.185403,-0.199036,0.0,6.0,62.0,175.0,30.0,0.0
193514,0.602614,-1.315757,2.835453,-0.282443,0.236998,-0.101771,0.0,6.0,62.0,175.0,30.0,0.0
193515,0.618527,-1.2657889999999998,2.855055,0.055994,1.170591,0.181324,0.0,6.0,62.0,175.0,30.0,0.0
193516,0.628336,-1.236465,2.8705540000000003,0.081216,0.949215,-0.391244,0.0,6.0,62.0,175.0,30.0,0.0
193517,0.6374890000000001,-1.221356,2.886158,0.236902,1.005107,-0.32700100000000004,0.0,6.0,62.0,175.0,30.0,0.0
193518,0.6485350000000001,-1.219386,2.9064650000000003,-0.093612,0.375443,-0.330877,0.0,6.0,62.0,175.0,30.0,0.0
193519,0.6752630000000001,-1.224721,2.939627,-0.127917,-0.130195,-0.079351,0.0,6.0,62.0,175.0,30.0,0.0
193520,0.7224729999999999,-1.2325780000000002,2.9792970000000003,-0.125073,-0.438327,0.021723,0.0,6.0,62.0,175.0,30.0,0.0
193521,0.75739,-1.244775,3.003945,-0.277426,-0.376615,0.044855,0.0,6.0,62.0,175.0,30.0,0.0
193522,0.7766930000000001,-1.2659200000000002,3.014727,-0.092326,-0.368633,-0.030046,0.0,6.0,62.0,175.0,30.0,0.0
193523,0.773705,-1.297156,3.002948,-0.011257,-0.402933,-0.045035000000000006,0.0,6.0,62.0,175.0,30.0,0.0
193524,0.744694,-1.336967,2.967824,0.108925,-0.363076,-0.12574200000000002,0.0,6.0,62.0,175.0,30.0,0.0
193525,0.720957,-1.380348,2.943015,0.285719,-0.161912,-0.116365,0.0,6.0,62.0,175.0,30.0,0.0
193526,0.72053,-1.418318,2.944042,0.31810700000000003,-0.082621,-0.135543,0.0,6.0,62.0,175.0,30.0,0.0
193527,0.760814,-1.443661,2.979723,0.12595399999999998,-0.108216,-0.028575,0.0,6.0,62.0,175.0,30.0,0.0
193528,0.806729,-1.454654,3.015912,-0.057163,-0.217308,0.027377,0.0,6.0,62.0,175.0,30.0,0.0
193529,0.817271,-1.457453,3.020493,-0.196997,-0.336616,-0.066324,0.0,6.0,62.0,175.0,30.0,0.0
193530,0.905654,-1.46112,3.104446,-0.117478,-0.371891,0.035737,0.0,6.0,62.0,175.0,30.0,0.0
193531,1.112128,-1.471584,-2.977288,-0.190629,-0.43684,0.001952,0.0,6.0,62.0,175.0,30.0,0.0
193532,1.364419,-1.481899,-2.716761,-0.071585,0.690625,0.069125,0.0,6.0,62.0,175.0,30.0,0.0
193533,1.384224,-1.488572,-2.686264,0.097876,0.8930879999999999,-0.08619199999999999,0.0,6.0,62.0,175.0,30.0,0.0
193534,1.132683,-1.483419,-2.938159,0.369135,2.796448,0.027251,0.0,6.0,62.0,175.0,30.0,0.0
193535,1.193987,-1.481372,-2.889677,0.354317,-0.4969810000000001,0.651219,0.0,6.0,62.0,175.0,30.0,0.0
193536,1.117275,-1.453455,-2.975961,0.518764,-0.57224,-0.108348,0.0,6.0,62.0,175.0,30.0,0.0
193537,1.068343,-1.4381540000000002,-3.024362,0.30759200000000003,-0.537816,-0.086323,0.0,6.0,62.0,175.0,30.0,0.0
193538,1.136918,-1.429018,-2.939437,0.094498,-0.059714,-0.06604299999999999,0.0,6.0,62.0,175.0,30.0,0.0
193539,1.173015,-1.433365,-2.884705,0.06531,0.286879,-0.028049,0.0,6.0,62.0,175.0,30.0,0.0
193540,1.303684,-1.442376,-2.74416,-0.116514,0.4274850000000001,0.12800899999999998,0.0,6.0,62.0,175.0,30.0,0.0
193541,1.4638799999999998,-1.444507,-2.582717,0.027255,-0.25555500000000003,-0.011127,0.0,6.0,62.0,175.0,30.0,0.0
193542,1.527617,-1.444543,-2.527343,0.049228,-0.289129,-0.068891,0.0,6.0,62.0,175.0,30.0,0.0
193543,1.5127,-1.449545,-2.54857,0.047655,-0.283674,-0.04768,0.0,6.0,62.0,175.0,30.0,0.0
193544,1.47051,-1.457043,-2.600067,0.046698,-0.085365,-0.098012,0.0,6.0,62.0,175.0,30.0,0.0
193545,1.42096,-1.466766,-2.653697,0.033092,0.055394000000000006,-0.06465499999999999,0.0,6.0,62.0,175.0,30.0,0.0
193546,1.300003,-1.472644,-2.7768770000000003,0.090345,-0.000192,0.02775,0.0,6.0,62.0,175.0,30.0,0.0
193547,1.084731,-1.467601,-2.99461,0.119277,-0.382497,0.29494000000000004,0.0,6.0,62.0,175.0,30.0,0.0
193548,0.8458870000000001,-1.444241,3.050404,0.104945,-0.585249,0.305607,0.0,6.0,62.0,175.0,30.0,0.0
193549,0.695409,-1.401684,2.899455,-0.020533000000000003,-0.5921649999999999,0.30007,0.0,6.0,62.0,175.0,30.0,0.0
193550,0.636627,-1.349265,2.832922,-0.335453,-0.080695,-0.167745,0.0,6.0,62.0,175.0,30.0,0.0
193551,0.613502,-1.293148,2.8045150000000003,-0.13334300000000002,0.5299050000000001,-0.107834,0.0,6.0,62.0,175.0,30.0,0.0
193552,0.592878,-1.253206,2.792175,0.049028,0.635458,0.061303,0.0,6.0,62.0,175.0,30.0,0.0
193553,0.575521,-1.225013,2.788322,0.247643,0.249909,0.045334,0.0,6.0,62.0,175.0,30.0,0.0
193554,0.573484,-1.20908,2.787409,0.07833999999999999,0.323849,-0.312098,0.0,6.0,62.0,175.0,30.0,0.0
193555,0.604496,-1.211481,2.807867,-0.051243,0.449559,-0.2795,0.0,6.0,62.0,175.0,30.0,0.0
193556,0.646935,-1.219626,2.844275,-0.176868,0.16655899999999998,-0.299689,0.0,6.0,62.0,175.0,30.0,0.0
193557,0.69185,-1.233239,2.883412,-0.20533,-0.259683,-0.191533,0.0,6.0,62.0,175.0,30.0,0.0
193558,0.7185060000000001,-1.250278,2.897907,-0.047323,-0.4,-0.021512,0.0,6.0,62.0,175.0,30.0,0.0
193559,0.71287,-1.274015,2.879635,0.07761699999999999,-0.399917,-0.044658,0.0,6.0,62.0,175.0,30.0,0.0
193560,0.68371,-1.310503,2.847122,0.255158,-0.289511,-0.181178,0.0,6.0,62.0,175.0,30.0,0.0
193561,0.648455,-1.357891,2.821267,0.299466,0.254924,-0.246496,0.0,6.0,62.0,175.0,30.0,0.0
193562,0.644191,-1.403976,2.832488,0.228211,0.301861,-0.219745,0.0,6.0,62.0,175.0,30.0,0.0
193563,0.718594,-1.435489,2.909708,0.025276,0.050308,-0.10263,0.0,6.0,62.0,175.0,30.0,0.0
193564,0.774708,-1.448405,2.952179,-0.12797999999999998,-0.6328239999999999,0.127384,0.0,6.0,62.0,175.0,30.0,0.0
193565,0.74073,-1.453916,2.906985,-0.184692,-0.768781,-0.023246,0.0,6.0,62.0,175.0,30.0,0.0
193566,0.772896,-1.468085,2.935422,-0.096087,-0.79046,0.063476,0.0,6.0,62.0,175.0,30.0,0.0
193567,0.957244,-1.487845,3.129685,0.011594,-0.27151,0.08918999999999999,0.0,6.0,62.0,175.0,30.0,0.0
193568,1.178109,-1.495665,-2.9073130000000003,0.090055,1.007933,0.128589,0.0,6.0,62.0,175.0,30.0,0.0
193569,1.362317,-1.499673,-2.711589,0.206196,1.637828,0.080121,0.0,6.0,62.0,175.0,30.0,0.0
193570,1.341856,-1.489043,-2.725299,0.29679,0.27905100000000005,-0.138375,0.0,6.0,62.0,175.0,30.0,0.0
193571,1.205514,-1.478652,-2.859599,0.192231,0.658204,-0.303972,0.0,6.0,62.0,175.0,30.0,0.0
193572,1.170185,-1.470973,-2.892065,0.214896,-0.159893,0.072156,0.0,6.0,62.0,175.0,30.0,0.0
193573,1.085484,-1.467361,-2.969155,0.140932,-0.231212,-0.227778,0.0,6.0,62.0,175.0,30.0,0.0
193574,1.140326,-1.471279,-2.907149,0.131962,-0.064739,-0.066972,0.0,6.0,62.0,175.0,30.0,0.0
193575,1.328396,-1.479982,-2.712949,0.184263,0.102509,0.036979000000000005,0.0,6.0,62.0,175.0,30.0,0.0
193576,1.503775,-1.484586,-2.537672,0.146735,0.175955,-0.092348,0.0,6.0,62.0,175.0,30.0,0.0
193577,1.590318,-1.487004,-2.454272,-0.02756,0.076339,-0.077546,0.0,6.0,62.0,175.0,30.0,0.0
193578,1.526536,-1.4862959999999998,-2.5234240000000003,-0.083925,-0.134204,0.070506,0.0,6.0,62.0,175.0,30.0,0.0
193579,1.315052,-1.480123,-2.744578,-0.024163,-0.398602,0.199615,0.0,6.0,62.0,175.0,30.0,0.0
193580,1.006897,-1.46162,-3.068041,-0.122203,-0.6558350000000001,0.230245,0.0,6.0,62.0,175.0,30.0,0.0
193581,0.756652,-1.429407,2.952456,-0.271937,-0.896958,0.125961,0.0,6.0,62.0,175.0,30.0,0.0
193582,0.6063310000000001,-1.389055,2.792114,-0.147321,-0.8793280000000001,0.192221,0.0,6.0,62.0,175.0,30.0,0.0
193583,0.5338109999999999,-1.345057,2.715822,0.003211,-0.790013,0.158656,0.0,6.0,62.0,175.0,30.0,0.0
193584,0.4964020000000001,-1.295003,2.680451,-0.099646,-0.475836,-0.045716,0.0,6.0,62.0,175.0,30.0,0.0
193585,0.494789,-1.2353299999999998,2.67905,-0.090832,0.398578,-0.190805,0.0,6.0,62.0,175.0,30.0,0.0
193586,0.491707,-1.175537,2.689702,0.36136,1.4112559999999998,0.120328,0.0,6.0,62.0,175.0,30.0,0.0
193587,0.492819,-1.157944,2.700384,0.456005,1.145879,0.208489,0.0,6.0,62.0,175.0,30.0,0.0
193588,0.516537,-1.17377,2.725101,0.006099,0.522792,-0.261642,0.0,6.0,62.0,175.0,30.0,0.0
193589,0.562188,-1.202115,2.75703,-0.031165,0.280591,-0.593871,0.0,6.0,62.0,175.0,30.0,0.0
193590,0.588427,-1.235169,2.7713240000000003,0.19997,0.09289,-0.455877,0.0,6.0,62.0,175.0,30.0,0.0
193591,0.593917,-1.265333,2.762874,0.255168,-0.029666,-0.403994,0.0,6.0,62.0,175.0,30.0,0.0
193592,0.5849479999999999,-1.294886,2.742213,0.179964,0.089016,-0.07382000000000001,0.0,6.0,62.0,175.0,30.0,0.0
193593,0.575476,-1.32807,2.727761,0.153954,0.021455,-0.09797,0.0,6.0,62.0,175.0,30.0,0.0
193594,0.6067319999999999,-1.366085,2.7514540000000003,0.099408,-0.121225,-0.089409,0.0,6.0,62.0,175.0,30.0,0.0
193595,0.6705270000000001,-1.406829,2.810382,-0.07875700000000001,-0.455322,0.042961,0.0,6.0,62.0,175.0,30.0,0.0
193596,0.6973060000000001,-1.444202,2.843516,-0.239004,-0.698113,0.258542,0.0,6.0,62.0,175.0,30.0,0.0
193597,0.6715949999999999,-1.471805,2.82805,-0.201447,-0.906024,0.098208,0.0,6.0,62.0,175.0,30.0,0.0
193598,0.739024,-1.488777,2.899356,-0.080877,-0.944362,0.125523,0.0,6.0,62.0,175.0,30.0,0.0
193599,0.956245,-1.494821,3.123548,-0.024458,-0.5574640000000001,0.117233,0.0,6.0,62.0,175.0,30.0,0.0
193600,1.069937,-1.488687,-3.029591,0.261801,1.204449,0.01306,0.0,6.0,62.0,175.0,30.0,0.0
193601,1.089348,-1.488241,-3.010198,0.270881,1.808673,-0.585337,0.0,6.0,62.0,175.0,30.0,0.0
193602,1.10383,-1.499123,-2.996626,-0.243885,1.404972,0.449669,0.0,6.0,62.0,175.0,30.0,0.0
193603,0.961092,-1.476901,-3.139889,0.761718,-0.4114890000000001,-0.320064,0.0,6.0,62.0,175.0,30.0,0.0
193604,0.781075,-1.462308,2.962819,0.933126,-0.506984,-0.244171,0.0,6.0,62.0,175.0,30.0,0.0
193605,0.78364,-1.4629530000000002,2.972888,0.313541,-0.438389,-0.205211,0.0,6.0,62.0,175.0,30.0,0.0
193606,0.807978,-1.467862,3.003898,0.263937,0.741011,-0.244192,0.0,6.0,62.0,175.0,30.0,0.0
193607,0.912312,-1.481986,3.114082,0.115283,0.905476,-0.03701,0.0,6.0,62.0,175.0,30.0,0.0
193608,1.009971,-1.4785780000000002,-3.069651,0.160125,0.019844,0.202051,0.0,6.0,62.0,175.0,30.0,0.0
193609,0.94117,-1.460546,3.134891,-0.111247,-0.405916,0.087352,0.0,6.0,62.0,175.0,30.0,0.0
193610,0.798122,-1.432349,2.983434,-0.196028,-0.450728,0.075411,0.0,6.0,62.0,175.0,30.0,0.0
193611,0.658887,-1.402669,2.8396790000000003,-0.25663600000000003,-0.6748649999999999,0.135158,0.0,6.0,62.0,175.0,30.0,0.0
193612,0.544726,-1.372524,2.726018,-0.027895,-0.7288819999999999,0.196159,0.0,6.0,62.0,175.0,30.0,0.0
193613,0.47309,-1.339688,2.662848,0.057896,-0.770059,0.319282,0.0,6.0,62.0,175.0,30.0,0.0
193614,0.442583,-1.304838,2.640295,-0.006683,-0.627332,0.318989,0.0,6.0,62.0,175.0,30.0,0.0
193615,0.44917,-1.265044,2.650161,-0.127163,-0.154976,0.070329,0.0,6.0,62.0,175.0,30.0,0.0
193616,0.486807,-1.224473,2.68588,-0.201043,0.615449,0.01302,0.0,6.0,62.0,175.0,30.0,0.0
193617,0.504249,-1.193985,2.709683,-0.17164400000000002,1.148496,-0.137009,0.0,6.0,62.0,175.0,30.0,0.0
193618,0.548403,-1.204948,2.751202,0.092203,1.101473,-0.448504,0.0,6.0,62.0,175.0,30.0,0.0
193619,0.578026,-1.224114,2.786963,-0.190909,0.532945,-0.4139229999999999,0.0,6.0,62.0,175.0,30.0,0.0
193620,0.5919979999999999,-1.243341,2.795377,0.073925,0.075414,-0.403663,0.0,6.0,62.0,175.0,30.0,0.0
193621,0.604035,-1.267409,2.791385,0.290905,-0.110549,-0.1491,0.0,6.0,62.0,175.0,30.0,0.0
193622,0.6146550000000001,-1.296852,2.779578,0.190794,-0.080051,-0.122751,0.0,6.0,62.0,175.0,30.0,0.0
193623,0.613641,-1.3312540000000002,2.763823,0.261799,0.036106,-0.184342,0.0,6.0,62.0,175.0,30.0,0.0
193624,0.598891,-1.368468,2.741841,0.247103,0.095823,-0.183056,0.0,6.0,62.0,175.0,30.0,0.0
193625,0.609279,-1.405705,2.743268,0.03483,-0.107009,-0.113739,0.0,6.0,62.0,175.0,30.0,0.0
193626,0.669,-1.4381389999999998,2.791989,-0.04405,-0.216937,-0.057564,0.0,6.0,62.0,175.0,30.0,0.0
193627,0.678459,-1.462385,2.79609,-0.095136,-0.537937,0.258959,0.0,6.0,62.0,175.0,30.0,0.0
193628,0.63265,-1.481509,2.755323,0.089709,-0.966765,0.089236,0.0,6.0,62.0,175.0,30.0,0.0
193629,0.663137,-1.503168,2.792149,0.147086,-1.069003,0.011112,0.0,6.0,62.0,175.0,30.0,0.0
193630,1.172074,-1.522516,-2.981348,0.174744,-1.146845,0.09122,0.0,6.0,62.0,175.0,30.0,0.0
193631,1.597112,-1.510877,-2.539099,-0.130333,0.179239,-0.266269,0.0,6.0,62.0,175.0,30.0,0.0
193632,1.423881,-1.497618,-2.694218,-0.299567,0.767096,0.087787,0.0,6.0,62.0,175.0,30.0,0.0
193633,1.391534,-1.500715,-2.710262,0.000839,1.549681,-0.072693,0.0,6.0,62.0,175.0,30.0,0.0
193634,1.5445,-1.4988860000000002,-2.54135,-0.039421,1.316748,0.6267659999999999,0.0,6.0,62.0,175.0,30.0,0.0
193635,1.615037,-1.498743,-2.499781,0.281937,-0.358611,0.454916,0.0,6.0,62.0,175.0,30.0,0.0
193636,1.149747,-1.481237,-2.973872,0.371709,-0.333639,0.038121,0.0,6.0,62.0,175.0,30.0,0.0
193637,1.00588,-1.474573,-3.113551,0.30956300000000003,-0.711729,-0.08680299999999999,0.0,6.0,62.0,175.0,30.0,0.0
193638,1.0095040000000002,-1.4657950000000002,-3.104157,0.147731,0.228118,-0.17946199999999998,0.0,6.0,62.0,175.0,30.0,0.0
193639,0.936614,-1.446206,3.106787,0.178725,0.610092,0.03754,0.0,6.0,62.0,175.0,30.0,0.0
193640,0.910595,-1.4194,3.081033,0.057743,-0.021841,0.25200500000000003,0.0,6.0,62.0,175.0,30.0,0.0
193641,0.869557,-1.381564,3.028862,-0.175042,-0.4923270000000001,0.165346,0.0,6.0,62.0,175.0,30.0,0.0
193642,0.82758,-1.340032,2.96497,-0.355827,-0.696407,0.187371,0.0,6.0,62.0,175.0,30.0,0.0
193643,0.779378,-1.2984870000000002,2.89462,-0.338535,-0.758837,0.226842,0.0,6.0,62.0,175.0,30.0,0.0
193644,0.7225,-1.2570370000000002,2.82497,-0.21718,-0.712761,0.17325,0.0,6.0,62.0,175.0,30.0,0.0
193645,0.6919029999999999,-1.21664,2.781823,0.106944,-0.031781000000000004,-0.146529,0.0,6.0,62.0,175.0,30.0,0.0
193646,0.688186,-1.172481,2.770203,0.190237,0.317481,-0.19222,0.0,6.0,62.0,175.0,30.0,0.0
193647,0.681775,-1.126955,2.779393,0.636594,0.796629,-0.6732199999999999,0.0,6.0,62.0,175.0,30.0,0.0
193648,0.694842,-1.127247,2.802791,0.435514,1.7154330000000002,-0.6524810000000001,0.0,6.0,62.0,175.0,30.0,0.0
193649,0.6979920000000001,-1.147547,2.825183,0.252577,1.303222,-0.478285,0.0,6.0,62.0,175.0,30.0,0.0
193650,0.72026,-1.182967,2.844746,-0.555621,-0.021512,-0.426534,0.0,6.0,62.0,175.0,30.0,0.0
193651,0.726645,-1.21651,2.841913,0.28583000000000003,0.032794,-0.198504,0.0,6.0,62.0,175.0,30.0,0.0
193652,0.699363,-1.251097,2.805314,0.257543,0.119899,-0.185919,0.0,6.0,62.0,175.0,30.0,0.0
193653,0.655818,-1.2895450000000002,2.761998,0.436061,0.418793,-0.229304,0.0,6.0,62.0,175.0,30.0,0.0
193654,0.6179819999999999,-1.333169,2.739557,0.346083,0.311884,0.08619,0.0,6.0,62.0,175.0,30.0,0.0
193655,0.628821,-1.372125,2.766783,-0.147764,-0.34738,0.15600999999999998,0.0,6.0,62.0,175.0,30.0,0.0
193656,0.6616,-1.402326,2.8110000000000004,-0.333267,-0.712481,0.202268,0.0,6.0,62.0,175.0,30.0,0.0
193657,0.6557609999999999,-1.429224,2.819743,-0.164768,-0.909398,0.326381,0.0,6.0,62.0,175.0,30.0,0.0
193658,0.58075,-1.453013,2.76569,-0.017822,-0.98268,0.382753,0.0,6.0,62.0,175.0,30.0,0.0
193659,0.472766,-1.4704959999999998,2.668686,-0.14291099999999998,-1.113611,-0.015552000000000003,0.0,6.0,62.0,175.0,30.0,0.0
193660,0.511353,-1.489221,2.694747,-0.21774,-1.055711,-0.130092,0.0,6.0,62.0,175.0,30.0,0.0
193661,0.85793,-1.5068780000000002,3.0335970000000003,0.186848,-0.288638,0.105161,0.0,6.0,62.0,175.0,30.0,0.0
193662,0.913194,-1.48819,3.087735,-0.186065,0.712227,-0.135231,0.0,6.0,62.0,175.0,30.0,0.0
193663,0.915588,-1.474368,3.084197,-0.007849,1.466544,0.270097,0.0,6.0,62.0,175.0,30.0,0.0
193664,0.950744,-1.476371,3.119596,0.389098,0.334487,-0.528656,0.0,6.0,62.0,175.0,30.0,0.0
193665,0.734672,-1.463322,2.894891,0.756637,1.038164,0.144151,0.0,6.0,62.0,175.0,30.0,0.0
193666,0.62045,-1.447077,2.767417,0.486576,-0.119081,-0.141042,0.0,6.0,62.0,175.0,30.0,0.0
193667,0.552838,-1.439026,2.700595,0.426037,-0.6007359999999999,-0.240881,0.0,6.0,62.0,175.0,30.0,0.0
193668,0.528027,-1.440892,2.6847830000000004,0.377136,-0.34628000000000003,-0.27843,0.0,6.0,62.0,175.0,30.0,0.0
193669,0.517,-1.440778,2.677372,0.461555,0.641528,-0.06096,0.0,6.0,62.0,175.0,30.0,0.0
193670,0.488886,-1.444334,2.655722,0.436298,0.058766999999999986,0.090975,0.0,6.0,62.0,175.0,30.0,0.0
193671,0.506791,-1.45159,2.703337,0.192525,-0.180327,0.266385,0.0,6.0,62.0,175.0,30.0,0.0
193672,0.493515,-1.448761,2.712679,0.047988,-0.314523,0.243004,0.0,6.0,62.0,175.0,30.0,0.0
193673,0.422113,-1.433218,2.660177,-0.170472,-0.246105,0.290902,0.0,6.0,62.0,175.0,30.0,0.0
193674,0.343507,-1.41206,2.602591,-0.375287,-0.27733,0.159617,0.0,6.0,62.0,175.0,30.0,0.0
193675,0.281557,-1.382603,2.559381,-0.419107,-0.294325,0.17699700000000002,0.0,6.0,62.0,175.0,30.0,0.0
193676,0.28680500000000003,-1.348394,2.5705310000000003,-0.022434,0.14769200000000002,0.14718299999999998,0.0,6.0,62.0,175.0,30.0,0.0
193677,0.344832,-1.315632,2.623625,0.064047,0.233657,0.112679,0.0,6.0,62.0,175.0,30.0,0.0
193678,0.414144,-1.285236,2.690648,0.15400999999999998,0.350021,0.067264,0.0,6.0,62.0,175.0,30.0,0.0
193679,0.465042,-1.263648,2.747592,0.6080810000000001,0.302705,-0.09972,0.0,6.0,62.0,175.0,30.0,0.0
193680,0.49248,-1.255361,2.785091,0.453099,0.51052,-0.276384,0.0,6.0,62.0,175.0,30.0,0.0
193681,0.538431,-1.25834,2.841757,0.15626099999999998,0.774996,-0.351883,0.0,6.0,62.0,175.0,30.0,0.0
193682,0.592291,-1.267023,2.906234,-0.027781,0.540338,-0.405686,0.0,6.0,62.0,175.0,30.0,0.0
193683,0.6225,-1.277146,2.951115,0.115261,-0.042444,-0.149095,0.0,6.0,62.0,175.0,30.0,0.0
193684,0.6285689999999999,-1.292154,2.980934,0.267644,-0.348179,0.04996,0.0,6.0,62.0,175.0,30.0,0.0
193685,0.5996199999999999,-1.31322,2.9884060000000003,0.367813,-0.35704,0.172773,0.0,6.0,62.0,175.0,30.0,0.0
193686,0.5389689999999999,-1.337292,2.9704040000000003,0.165148,-0.334418,0.175738,0.0,6.0,62.0,175.0,30.0,0.0
193687,0.464578,-1.361885,2.940941,-0.08551900000000001,-0.193543,0.009413,0.0,6.0,62.0,175.0,30.0,0.0
193688,0.381749,-1.383582,2.899554,-0.109741,-0.13162,-0.073376,0.0,6.0,62.0,175.0,30.0,0.0
193689,0.288663,-1.401278,2.845278,-0.07819,-0.039621,-0.152887,0.0,6.0,62.0,175.0,30.0,0.0
193690,0.179951,-1.413289,2.77232,0.045826,-0.080944,-0.0977,0.0,6.0,62.0,175.0,30.0,0.0
193691,0.07480099999999999,-1.416095,2.698605,0.149085,-0.101919,-0.077984,0.0,6.0,62.0,175.0,30.0,0.0
193692,-0.005412,-1.41165,2.647813,0.256259,-0.109601,-0.139707,0.0,6.0,62.0,175.0,30.0,0.0
193693,-0.063192,-1.40599,2.618929,0.26452600000000004,-0.132553,-0.17334000000000002,0.0,6.0,62.0,175.0,30.0,0.0
193694,-0.097251,-1.40181,2.610847,0.265857,-0.211616,-0.235862,0.0,6.0,62.0,175.0,30.0,0.0
193695,-0.116226,-1.399143,2.615907,0.29323,-0.247175,-0.276102,0.0,6.0,62.0,175.0,30.0,0.0
193696,-0.144531,-1.399143,2.614144,0.352207,-0.27923400000000004,-0.227477,0.0,6.0,62.0,175.0,30.0,0.0
193697,-0.190082,-1.402525,2.599895,0.346843,-0.367361,-0.134465,0.0,6.0,62.0,175.0,30.0,0.0
193698,-0.243853,-1.405973,2.584393,0.35364,-0.449582,-0.039361,0.0,6.0,62.0,175.0,30.0,0.0
193699,-0.299894,-1.407386,2.574507,0.31000500000000003,-0.585601,0.014577,0.0,6.0,62.0,175.0,30.0,0.0
193700,-0.357292,-1.408916,2.568957,0.23291,-0.666614,0.105333,0.0,6.0,62.0,175.0,30.0,0.0
193701,-0.407921,-1.409672,2.572277,-0.046041000000000006,-0.545916,0.375452,0.0,6.0,62.0,175.0,30.0,0.0
193702,-0.393737,-1.40319,2.637349,-0.375167,-0.341578,0.269527,0.0,6.0,62.0,175.0,30.0,0.0
193703,-0.312412,-1.401637,2.757967,-0.7795270000000001,0.914328,0.638666,0.0,6.0,62.0,175.0,30.0,0.0
193704,-0.25410900000000003,-1.411617,2.83755,-0.390164,1.404747,1.214397,0.0,6.0,62.0,175.0,30.0,0.0
193705,-0.252383,-1.385807,2.824231,-0.053146000000000006,2.499606,1.190201,0.0,6.0,62.0,175.0,30.0,0.0
193706,-0.107909,-1.35411,2.948381,0.6059640000000001,-0.384315,0.624031,0.0,6.0,62.0,175.0,30.0,0.0
193707,-0.008289,-1.327245,3.047696,0.473511,-0.4244060000000001,-0.249983,0.0,6.0,62.0,175.0,30.0,0.0
193708,0.028511,-1.332148,3.0823720000000003,0.121893,0.7066859999999999,0.089514,0.0,6.0,62.0,175.0,30.0,0.0
193709,-0.011968,-1.343002,3.069762,0.629564,1.145737,-0.190545,0.0,6.0,62.0,175.0,30.0,0.0
193710,-0.045378,-1.363712,3.067262,0.74715,0.631076,0.184772,0.0,6.0,62.0,175.0,30.0,0.0
193711,-0.097674,-1.393536,3.06831,0.58621,0.128813,0.122795,0.0,6.0,62.0,175.0,30.0,0.0
193712,-0.178373,-1.426274,3.045257,0.422341,0.100696,0.109345,0.0,6.0,62.0,175.0,30.0,0.0
193713,-0.294437,-1.4560799999999998,2.988309,0.235774,0.170376,0.181837,0.0,6.0,62.0,175.0,30.0,0.0
193714,-0.499513,-1.484995,2.841943,0.068643,-0.019881,0.153609,0.0,6.0,62.0,175.0,30.0,0.0
193715,-0.904812,-1.507809,2.491025,-0.110083,-0.25319,0.150953,0.0,6.0,62.0,175.0,30.0,0.0
193716,-1.504707,-1.511162,1.942494,-0.283569,-0.441338,0.185224,0.0,6.0,62.0,175.0,30.0,0.0
193717,-1.93639,-1.492474,1.549616,-0.38254,-0.429994,0.12953499999999998,0.0,6.0,62.0,175.0,30.0,0.0
193718,-2.118774,-1.469908,1.392732,-0.305749,-0.470303,0.008786,0.0,6.0,62.0,175.0,30.0,0.0
193719,-2.181751,-1.4510040000000002,1.3408,-0.193429,-0.523885,-0.040196,0.0,6.0,62.0,175.0,30.0,0.0
193720,-2.197537,-1.434652,1.323436,-0.123829,-0.495858,-0.075477,0.0,6.0,62.0,175.0,30.0,0.0
193721,-2.221978,-1.419613,1.2897,-0.023685,-0.324043,0.016646,0.0,6.0,62.0,175.0,30.0,0.0
193722,-2.250544,-1.403034,1.253942,0.089723,-0.249511,-0.002078,0.0,6.0,62.0,175.0,30.0,0.0
193723,-2.270487,-1.386721,1.227114,0.225745,-0.242353,-0.047201,0.0,6.0,62.0,175.0,30.0,0.0
193724,-2.296811,-1.374225,1.193105,0.405416,-0.012114,-0.130342,0.0,6.0,62.0,175.0,30.0,0.0
193725,-2.32634,-1.361805,1.158994,0.510646,0.285157,-0.165279,0.0,6.0,62.0,175.0,30.0,0.0
193726,-2.338523,-1.349293,1.143601,0.550076,0.316195,-0.193832,0.0,6.0,62.0,175.0,30.0,0.0
193727,-2.328456,-1.337904,1.153401,0.58034,0.35146,-0.30191,0.0,6.0,62.0,175.0,30.0,0.0
193728,-2.329531,-1.327353,1.155591,0.7187140000000001,0.311789,-0.227815,0.0,6.0,62.0,175.0,30.0,0.0
193729,-2.337068,-1.321556,1.162182,0.903441,0.427674,-0.118831,0.0,6.0,62.0,175.0,30.0,0.0
193730,-2.357018,-1.321688,1.1627379999999998,0.500107,0.386367,-0.007475,0.0,6.0,62.0,175.0,30.0,0.0
193731,-2.382172,-1.331328,1.164012,0.358823,0.267473,0.198383,0.0,6.0,62.0,175.0,30.0,0.0
193732,-2.380547,-1.353109,1.197653,0.142399,0.290904,0.17891500000000002,0.0,6.0,62.0,175.0,30.0,0.0
193733,-2.373946,-1.384976,1.239201,0.06455599999999999,0.232761,0.272054,0.0,6.0,62.0,175.0,30.0,0.0
193734,-2.370545,-1.421746,1.276874,-0.070596,0.070887,0.367678,0.0,6.0,62.0,175.0,30.0,0.0
193735,-2.33129,-1.463076,1.344191,-0.274664,0.178465,0.178275,0.0,6.0,62.0,175.0,30.0,0.0
193736,-2.176056,-1.509173,1.514958,-0.230839,0.264593,0.309436,0.0,6.0,62.0,175.0,30.0,0.0
193737,-1.179427,-1.542357,2.507017,-0.026634,0.135628,-0.035587,0.0,6.0,62.0,175.0,30.0,0.0
193738,0.126412,-1.541318,-2.437103,0.144564,0.128852,0.147976,0.0,6.0,62.0,175.0,30.0,0.0
193739,0.487591,-1.515013,-2.021536,0.382636,-0.136781,0.191217,0.0,6.0,62.0,175.0,30.0,0.0
193740,0.557714,-1.481895,-1.897703,0.39733,-0.022967,0.16055999999999998,0.0,6.0,62.0,175.0,30.0,0.0
193741,0.557656,-1.452541,-1.838682,0.304915,0.003291,0.125908,0.0,6.0,62.0,175.0,30.0,0.0
193742,0.551376,-1.425869,-1.7790240000000002,0.20892800000000006,0.009553,0.151357,0.0,6.0,62.0,175.0,30.0,0.0
193743,0.551596,-1.4014719999999998,-1.704244,0.159681,-0.030468,0.173543,0.0,6.0,62.0,175.0,30.0,0.0
193744,0.570285,-1.381082,-1.605883,0.107502,-0.093585,0.247076,0.0,6.0,62.0,175.0,30.0,0.0
193745,0.5907789999999999,-1.362676,-1.507897,0.08926100000000001,-0.114606,0.28420300000000004,0.0,6.0,62.0,175.0,30.0,0.0
193746,0.5984729999999999,-1.348402,-1.423514,0.07610499999999999,-0.105469,0.284427,0.0,6.0,62.0,175.0,30.0,0.0
193747,0.603186,-1.340223,-1.343803,0.056856,-0.036112,0.20352,0.0,6.0,62.0,175.0,30.0,0.0
193748,0.602578,-1.338944,-1.270539,0.081808,0.02424,0.15953499999999998,0.0,6.0,62.0,175.0,30.0,0.0
193749,0.58841,-1.34501,-1.212167,0.119062,-0.025247,0.22943,0.0,6.0,62.0,175.0,30.0,0.0
193750,0.5650470000000001,-1.35572,-1.168789,0.07253899999999999,-0.108292,0.302924,0.0,6.0,62.0,175.0,30.0,0.0
193751,0.5279050000000001,-1.366493,-1.145011,-0.014823,-0.109925,0.262281,0.0,6.0,62.0,175.0,30.0,0.0
193752,0.474983,-1.374716,-1.14381,-0.1566,-0.079898,0.282429,0.0,6.0,62.0,175.0,30.0,0.0
193753,0.426152,-1.383124,-1.145646,-0.265108,0.063488,0.018725,0.0,6.0,62.0,175.0,30.0,0.0
193754,0.387284,-1.390147,-1.136621,-0.208737,0.135993,-0.120679,0.0,6.0,62.0,175.0,30.0,0.0
193755,0.365492,-1.387631,-1.118395,-0.104952,0.086644,-0.02443,0.0,6.0,62.0,175.0,30.0,0.0
193756,0.356206,-1.371265,-1.107045,0.030401,-0.030926,0.14419500000000002,0.0,6.0,62.0,175.0,30.0,0.0
193757,0.386222,-1.358359,-1.078468,0.151201,-0.209377,0.14160899999999998,0.0,6.0,62.0,175.0,30.0,0.0
193758,0.434494,-1.355091,-1.03432,0.256523,-0.207905,0.17711400000000002,0.0,6.0,62.0,175.0,30.0,0.0
193759,0.450675,-1.34753,-1.019325,0.217861,-0.053503,0.179053,0.0,6.0,62.0,175.0,30.0,0.0
193760,0.4724640000000001,-1.341904,-0.989308,0.26277399999999995,0.582692,0.164483,0.0,6.0,62.0,175.0,30.0,0.0
193761,0.511238,-1.351485,-0.922243,0.135552,0.394451,0.08283,0.0,6.0,62.0,175.0,30.0,0.0
193762,0.488441,-1.357373,-0.906796,0.107569,0.150481,0.257176,0.0,6.0,62.0,175.0,30.0,0.0
193763,0.43328,-1.365033,-0.91208,0.024696,-0.218316,0.426973,0.0,6.0,62.0,175.0,30.0,0.0
193764,0.381564,-1.373421,-0.914261,-0.025685000000000003,-0.14899600000000002,0.397867,0.0,6.0,62.0,175.0,30.0,0.0
193765,0.362141,-1.386582,-0.893539,-0.09016,-0.087741,0.326604,0.0,6.0,62.0,175.0,30.0,0.0
193766,0.372245,-1.406688,-0.855893,-0.303206,0.189598,0.116453,0.0,6.0,62.0,175.0,30.0,0.0
193767,0.41749,-1.428384,-0.792308,-0.278323,0.266456,0.055266,0.0,6.0,62.0,175.0,30.0,0.0
193768,0.49871,-1.445636,-0.701751,-0.172783,0.25011700000000003,0.046261,0.0,6.0,62.0,175.0,30.0,0.0
193769,0.614409,-1.457762,-0.5813649999999999,0.185217,-0.092602,0.092974,0.0,6.0,62.0,175.0,30.0,0.0
193770,0.7244689999999999,-1.4674,-0.467374,0.185898,-0.121429,0.010305,0.0,6.0,62.0,175.0,30.0,0.0
193771,0.8407309999999999,-1.479322,-0.345559,0.12641,-0.1745,0.060463,0.0,6.0,62.0,175.0,30.0,0.0
193772,0.932026,-1.494604,-0.239811,0.098719,-0.216749,0.11966,0.0,6.0,62.0,175.0,30.0,0.0
193773,1.02016,-1.506757,-0.134,0.007506,-0.189021,0.007022,0.0,6.0,62.0,175.0,30.0,0.0
193774,1.146711,-1.512615,-0.000484,-0.007014,-0.185381,-0.007156999999999998,0.0,6.0,62.0,175.0,30.0,0.0
193775,1.194081,-1.512814,0.046877,-0.050047,-0.162199,0.031297000000000005,0.0,6.0,62.0,175.0,30.0,0.0
193776,1.130432,-1.5097969999999998,-0.018749,-0.08391599999999999,-0.158983,-0.066455,0.0,6.0,62.0,175.0,30.0,0.0
193777,1.084069,-1.505679,-0.06978999999999999,-0.034439,-0.216066,-0.02694,0.0,6.0,62.0,175.0,30.0,0.0
193778,1.0518299999999998,-1.5013610000000002,-0.111784,-0.02179,-0.262864,0.014219999999999997,0.0,6.0,62.0,175.0,30.0,0.0
193779,0.973845,-1.497486,-0.20197,-0.029418,-0.303375,0.021437,0.0,6.0,62.0,175.0,30.0,0.0
193780,0.8630049999999999,-1.491582,-0.320132,0.203361,-0.4235,-0.043561,0.0,6.0,62.0,175.0,30.0,0.0
193781,0.7501439999999999,-1.484734,-0.433948,0.28131,-0.393973,-0.102252,0.0,6.0,62.0,175.0,30.0,0.0
193782,0.6829649999999999,-1.477075,-0.498117,0.28041900000000003,-0.109274,-0.022414,0.0,6.0,62.0,175.0,30.0,0.0
193783,0.6676770000000001,-1.468879,-0.50575,0.17663099999999998,0.13942100000000002,0.018563,0.0,6.0,62.0,175.0,30.0,0.0
193784,0.659431,-1.454361,-0.503846,0.11403599999999997,0.035488,0.090957,0.0,6.0,62.0,175.0,30.0,0.0
193785,0.640696,-1.428643,-0.512468,-0.007191,-0.25859,0.169761,0.0,6.0,62.0,175.0,30.0,0.0
193786,0.620203,-1.393095,-0.523744,-0.093757,-0.4777520000000001,0.349615,0.0,6.0,62.0,175.0,30.0,0.0
193787,0.611002,-1.350966,-0.523309,-0.163623,-0.488721,0.328778,0.0,6.0,62.0,175.0,30.0,0.0
193788,0.6053189999999999,-1.301287,-0.5153479999999999,-0.200941,-0.18462,-0.029807,0.0,6.0,62.0,175.0,30.0,0.0
193789,0.621159,-1.252631,-0.493011,-0.141266,0.246295,0.013112,0.0,6.0,62.0,175.0,30.0,0.0
193790,0.641204,-1.209003,-0.470832,0.039001,0.872338,-0.025637,0.0,6.0,62.0,175.0,30.0,0.0
193791,0.67207,-1.178692,-0.445314,0.098083,0.930233,0.04326,0.0,6.0,62.0,175.0,30.0,0.0
193792,0.7213229999999999,-1.162821,-0.4099640000000001,0.002082,0.711881,-0.095748,0.0,6.0,62.0,175.0,30.0,0.0
193793,0.773572,-1.1608379999999998,-0.36706,-0.009143,0.449745,-0.361221,0.0,6.0,62.0,175.0,30.0,0.0
193794,0.815247,-1.167666,-0.325458,-0.1468,0.076119,-0.241797,0.0,6.0,62.0,175.0,30.0,0.0
193795,0.843576,-1.178839,-0.302068,0.141492,-0.072021,-0.107077,0.0,6.0,62.0,175.0,30.0,0.0
193796,0.8529180000000001,-1.197706,-0.297283,0.13753,0.005043,-0.159857,0.0,6.0,62.0,175.0,30.0,0.0
193797,0.8550270000000001,-1.225176,-0.29691300000000004,0.165906,0.209617,-0.128422,0.0,6.0,62.0,175.0,30.0,0.0
193798,0.844412,-1.260178,-0.3031,0.252712,0.283573,-0.109046,0.0,6.0,62.0,175.0,30.0,0.0
193799,0.838749,-1.295483,-0.297573,0.077789,0.090928,-0.160011,0.0,6.0,62.0,175.0,30.0,0.0
193800,0.869719,-1.328281,-0.263839,-0.118494,-0.23357,0.108188,0.0,6.0,62.0,175.0,30.0,0.0
193801,0.896392,-1.354589,-0.235056,-0.175379,-0.597507,0.235923,0.0,6.0,62.0,175.0,30.0,0.0
193802,0.907814,-1.3780059999999998,-0.215837,-0.082561,-0.986677,0.234887,0.0,6.0,62.0,175.0,30.0,0.0
