index,attitude.roll,attitude.pitch,attitude.yaw,userAcceleration.x,userAcceleration.y,userAcceleration.z,act,id,weight,height,age,gender
225672,1.186001,-1.173961,0.411908,-0.004915,-0.259905,0.05387,0.0,7.0,52.0,161.0,24.0,0.0
225673,1.170957,-1.171889,0.398451,-0.189526,-0.381966,-0.138149,0.0,7.0,52.0,161.0,24.0,0.0
225674,1.132725,-1.17343,0.360747,-0.068399,-0.374644,-0.149068,0.0,7.0,52.0,161.0,24.0,0.0
225675,1.077409,-1.174652,0.307886,0.065724,-0.391778,-0.041763,0.0,7.0,52.0,161.0,24.0,0.0
225676,1.017397,-1.169126,0.249929,0.057109,-0.5835560000000001,0.048288,0.0,7.0,52.0,161.0,24.0,0.0
225677,0.962909,-1.158622,0.201126,-0.013559,-0.643425,0.19952,0.0,7.0,52.0,161.0,24.0,0.0
225678,0.919569,-1.147093,0.165632,-0.150848,-0.5685399999999999,0.413924,0.0,7.0,52.0,161.0,24.0,0.0
225679,0.8772040000000001,-1.135791,0.14055299999999998,-0.31742800000000004,-0.095878,0.27172,0.0,7.0,52.0,161.0,24.0,0.0
225680,0.825074,-1.117875,0.108647,-0.3537,0.904294,0.040351,0.0,7.0,52.0,161.0,24.0,0.0
225681,0.775722,-1.087697,0.061512,0.008719,1.189346,0.390017,0.0,7.0,52.0,161.0,24.0,0.0
225682,0.752893,-1.0634629999999998,0.021106,0.077126,0.386165,-0.0007509999999999999,0.0,7.0,52.0,161.0,24.0,0.0
225683,0.738757,-1.051663,0.024093,0.39547,0.304983,-0.174861,0.0,7.0,52.0,161.0,24.0,0.0
225684,0.724518,-1.0367620000000002,0.032688,0.492606,1.027377,-0.240893,0.0,7.0,52.0,161.0,24.0,0.0
225685,0.727316,-1.020417,0.034114,0.051537,0.925888,-0.264522,0.0,7.0,52.0,161.0,24.0,0.0
225686,0.750926,-1.014093,0.047742,-0.202226,0.088193,-0.199663,0.0,7.0,52.0,161.0,24.0,0.0
225687,0.775814,-1.015739,0.06992899999999999,-0.136224,-0.578966,-0.152746,0.0,7.0,52.0,161.0,24.0,0.0
225688,0.797604,-1.023088,0.09194,0.018137,-0.433462,-0.00172,0.0,7.0,52.0,161.0,24.0,0.0
225689,0.8215370000000001,-1.035473,0.110541,0.11683,-0.171871,-0.0017059999999999998,0.0,7.0,52.0,161.0,24.0,0.0
225690,0.854248,-1.052631,0.138751,0.01915,-0.104111,-0.085815,0.0,7.0,52.0,161.0,24.0,0.0
225691,0.8854549999999999,-1.074483,0.17237,-0.084993,-0.182582,-0.103704,0.0,7.0,52.0,161.0,24.0,0.0
225692,0.909264,-1.098451,0.205465,-0.116692,-0.347749,-0.054033000000000005,0.0,7.0,52.0,161.0,24.0,0.0
225693,0.92607,-1.120874,0.231973,-0.170946,-0.472152,0.034347,0.0,7.0,52.0,161.0,24.0,0.0
225694,0.937941,-1.138318,0.24922600000000006,-0.276402,-0.510942,0.098159,0.0,7.0,52.0,161.0,24.0,0.0
225695,0.955919,-1.15061,0.265992,-0.298898,-0.169269,0.085161,0.0,7.0,52.0,161.0,24.0,0.0
225696,0.982293,-1.159965,0.28485,-0.347245,0.028996,0.092505,0.0,7.0,52.0,161.0,24.0,0.0
225697,1.000744,-1.167657,0.295101,-0.464853,0.333065,0.11391400000000003,0.0,7.0,52.0,161.0,24.0,0.0
225698,1.013571,-1.170499,0.30714600000000003,-0.350194,-0.469025,0.230454,0.0,7.0,52.0,161.0,24.0,0.0
225699,1.032853,-1.173422,0.321556,-0.361161,-0.5899270000000001,0.286197,0.0,7.0,52.0,161.0,24.0,0.0
225700,1.0514,-1.177058,0.332867,-0.251531,-0.706883,0.057188,0.0,7.0,52.0,161.0,24.0,0.0
225701,1.060688,-1.177527,0.339696,-0.03759,-0.466096,0.254071,0.0,7.0,52.0,161.0,24.0,0.0
225702,1.05511,-1.167548,0.330141,0.50668,0.195748,0.227693,0.0,7.0,52.0,161.0,24.0,0.0
225703,1.053184,-1.160818,0.341501,0.987109,1.07637,-0.05628,0.0,7.0,52.0,161.0,24.0,0.0
225704,1.076525,-1.166986,0.388313,-0.046867,0.661652,0.106739,0.0,7.0,52.0,161.0,24.0,0.0
225705,1.071079,-1.169719,0.400443,0.013718,1.230146,0.181374,0.0,7.0,52.0,161.0,24.0,0.0
225706,1.050069,-1.167576,0.366002,0.35185900000000003,0.5127079999999999,-0.314058,0.0,7.0,52.0,161.0,24.0,0.0
225707,1.048963,-1.164294,0.350246,0.407794,-0.419791,-0.134184,0.0,7.0,52.0,161.0,24.0,0.0
225708,1.056342,-1.160382,0.364028,0.351527,-0.487924,-0.093998,0.0,7.0,52.0,161.0,24.0,0.0
225709,1.082052,-1.158251,0.40064,0.336478,0.074696,-0.115304,0.0,7.0,52.0,161.0,24.0,0.0
225710,1.110847,-1.160684,0.441201,0.311461,0.687157,0.006478,0.0,7.0,52.0,161.0,24.0,0.0
225711,1.130574,-1.168132,0.467158,0.304006,0.452355,0.038274,0.0,7.0,52.0,161.0,24.0,0.0
225712,1.158079,-1.174956,0.498455,0.1074,-0.053227,0.014054,0.0,7.0,52.0,161.0,24.0,0.0
225713,1.167948,-1.178382,0.514835,-0.27034899999999995,-0.289574,0.098782,0.0,7.0,52.0,161.0,24.0,0.0
225714,1.141188,-1.178462,0.493901,-0.317475,-0.293068,0.138522,0.0,7.0,52.0,161.0,24.0,0.0
225715,1.084077,-1.174623,0.4313010000000001,-0.139398,-0.673002,0.211854,0.0,7.0,52.0,161.0,24.0,0.0
225716,1.013984,-1.16648,0.353802,-0.197718,-0.7943560000000001,0.205096,0.0,7.0,52.0,161.0,24.0,0.0
225717,0.952326,-1.147698,0.2865,-0.295973,-0.916735,0.219717,0.0,7.0,52.0,161.0,24.0,0.0
225718,0.906539,-1.114665,0.231098,-0.368078,-0.844556,0.010516,0.0,7.0,52.0,161.0,24.0,0.0
225719,0.8663290000000001,-1.073023,0.177202,-0.248871,-0.193177,-0.060202,0.0,7.0,52.0,161.0,24.0,0.0
225720,0.822897,-1.029026,0.132333,-0.056508,0.4783770000000001,0.127725,0.0,7.0,52.0,161.0,24.0,0.0
225721,0.772108,-0.985498,0.102333,0.867539,1.199351,-0.022653,0.0,7.0,52.0,161.0,24.0,0.0
225722,0.7612300000000001,-0.970644,0.116823,0.313091,0.671439,0.08324,0.0,7.0,52.0,161.0,24.0,0.0
225723,0.770183,-0.967774,0.135434,-0.227633,0.098372,-0.376452,0.0,7.0,52.0,161.0,24.0,0.0
225724,0.776533,-0.967164,0.146173,-0.108033,0.011682,-0.133965,0.0,7.0,52.0,161.0,24.0,0.0
225725,0.776895,-0.969181,0.151367,-0.13645,0.582942,-0.057856,0.0,7.0,52.0,161.0,24.0,0.0
225726,0.778565,-0.964985,0.155798,0.155617,0.379086,0.042161,0.0,7.0,52.0,161.0,24.0,0.0
225727,0.7891819999999999,-0.96702,0.161672,-0.088473,0.102248,0.125886,0.0,7.0,52.0,161.0,24.0,0.0
225728,0.817249,-0.979771,0.176715,-0.150549,-0.052812,0.029752,0.0,7.0,52.0,161.0,24.0,0.0
225729,0.865225,-1.0015040000000002,0.203892,-0.17962899999999998,-0.042509,-0.106439,0.0,7.0,52.0,161.0,24.0,0.0
225730,0.916477,-1.023363,0.22693600000000005,-0.044393,-0.219296,-0.256726,0.0,7.0,52.0,161.0,24.0,0.0
225731,0.948515,-1.042049,0.230675,0.000154,-0.381003,-0.36405,0.0,7.0,52.0,161.0,24.0,0.0
225732,0.96254,-1.057766,0.23121,-0.090322,-0.430252,-0.052911,0.0,7.0,52.0,161.0,24.0,0.0
225733,0.976606,-1.072219,0.231249,-0.465219,-0.120726,0.098411,0.0,7.0,52.0,161.0,24.0,0.0
225734,0.993912,-1.093909,0.234727,-0.49368,-0.011047,0.14982,0.0,7.0,52.0,161.0,24.0,0.0
225735,1.02212,-1.119069,0.25016,-0.470361,0.014124,0.179993,0.0,7.0,52.0,161.0,24.0,0.0
225736,1.053546,-1.132153,0.272327,-0.324502,-0.422449,0.366836,0.0,7.0,52.0,161.0,24.0,0.0
225737,1.081746,-1.135663,0.296194,-0.197662,-0.641891,0.307441,0.0,7.0,52.0,161.0,24.0,0.0
225738,1.113122,-1.136621,0.327957,-0.016815,-0.530112,0.354567,0.0,7.0,52.0,161.0,24.0,0.0
225739,1.1410049999999998,-1.1292879999999998,0.354522,0.6306970000000001,0.519278,0.244065,0.0,7.0,52.0,161.0,24.0,0.0
225740,1.155132,-1.118978,0.386197,0.581781,1.90665,-0.097803,0.0,7.0,52.0,161.0,24.0,0.0
225741,1.128559,-1.117692,0.395087,0.585561,1.907212,-0.086759,0.0,7.0,52.0,161.0,24.0,0.0
225742,1.068,-1.137194,0.320846,-0.089272,1.091672,-0.411002,0.0,7.0,52.0,161.0,24.0,0.0
225743,1.054299,-1.145579,0.260706,0.33969,-1.235107,-0.280149,0.0,7.0,52.0,161.0,24.0,0.0
225744,1.053624,-1.139977,0.253655,0.522104,-1.186685,-0.0040420000000000005,0.0,7.0,52.0,161.0,24.0,0.0
225745,1.0696,-1.128506,0.282854,0.578751,-0.318218,0.15279700000000002,0.0,7.0,52.0,161.0,24.0,0.0
225746,1.108143,-1.124877,0.346399,0.112454,1.4029459999999998,0.274501,0.0,7.0,52.0,161.0,24.0,0.0
225747,1.156073,-1.1368120000000002,0.394635,-0.160825,1.168218,0.13664600000000002,0.0,7.0,52.0,161.0,24.0,0.0
225748,1.223487,-1.144305,0.450276,-0.377101,-0.112312,-0.080167,0.0,7.0,52.0,161.0,24.0,0.0
225749,1.247562,-1.150442,0.4592850000000001,-0.375713,-0.621578,0.15923199999999998,0.0,7.0,52.0,161.0,24.0,0.0
225750,1.255749,-1.159757,0.457999,-0.354316,-0.512592,0.12573900000000002,0.0,7.0,52.0,161.0,24.0,0.0
225751,1.266076,-1.169879,0.4566810000000001,-0.195807,-0.375553,0.025636000000000003,0.0,7.0,52.0,161.0,24.0,0.0
225752,1.271605,-1.176383,0.441615,0.19365,-0.188954,-0.07915900000000001,0.0,7.0,52.0,161.0,24.0,0.0
225753,1.274394,-1.17822,0.426673,0.226591,-0.264762,-0.133719,0.0,7.0,52.0,161.0,24.0,0.0
225754,1.259395,-1.174572,0.399139,0.315769,-0.316095,-0.109787,0.0,7.0,52.0,161.0,24.0,0.0
225755,1.232649,-1.170724,0.368589,0.219845,-0.339414,-0.141629,0.0,7.0,52.0,161.0,24.0,0.0
225756,1.188341,-1.170301,0.333884,0.205562,-0.325302,-0.031022000000000008,0.0,7.0,52.0,161.0,24.0,0.0
225757,1.129812,-1.169764,0.291794,0.04867,-0.377232,0.16565,0.0,7.0,52.0,161.0,24.0,0.0
225758,1.07085,-1.168032,0.251041,-0.186224,-0.353239,0.260169,0.0,7.0,52.0,161.0,24.0,0.0
225759,1.015082,-1.163858,0.21401,-0.301142,-0.266847,0.251776,0.0,7.0,52.0,161.0,24.0,0.0
225760,0.956034,-1.154623,0.16935699999999998,-0.405867,0.711761,-0.024065,0.0,7.0,52.0,161.0,24.0,0.0
225761,0.8982549999999999,-1.139338,0.119382,-0.190808,0.908492,0.151017,0.0,7.0,52.0,161.0,24.0,0.0
225762,0.847701,-1.116032,0.05713500000000001,0.14596099999999998,0.8777590000000001,0.269144,0.0,7.0,52.0,161.0,24.0,0.0
225763,0.818766,-1.094405,0.013367,0.496305,0.468538,-0.091075,0.0,7.0,52.0,161.0,24.0,0.0
225764,0.80386,-1.080683,0.007087,0.35735900000000004,0.457976,-0.010929,0.0,7.0,52.0,161.0,24.0,0.0
225765,0.800895,-1.066528,0.011265,0.240845,0.897955,-0.293975,0.0,7.0,52.0,161.0,24.0,0.0
225766,0.808815,-1.053294,0.018923,-0.076892,0.223273,-0.190374,0.0,7.0,52.0,161.0,24.0,0.0
225767,0.8180529999999999,-1.045577,0.033487,-0.055985,-0.046809,-0.09006,0.0,7.0,52.0,161.0,24.0,0.0
225768,0.8209219999999999,-1.048714,0.049559,0.027984,-0.318977,0.112191,0.0,7.0,52.0,161.0,24.0,0.0
225769,0.821298,-1.061887,0.061186,-0.077646,-0.399003,0.17317000000000002,0.0,7.0,52.0,161.0,24.0,0.0
225770,0.8309540000000001,-1.082175,0.075805,-0.219652,-0.379029,0.128127,0.0,7.0,52.0,161.0,24.0,0.0
225771,0.849827,-1.10387,0.09773,-0.30922,-0.403347,0.116791,0.0,7.0,52.0,161.0,24.0,0.0
225772,0.871717,-1.125262,0.122249,-0.266701,-0.486167,0.236364,0.0,7.0,52.0,161.0,24.0,0.0
225773,0.8950030000000001,-1.146447,0.147929,-0.253729,-0.491126,0.157813,0.0,7.0,52.0,161.0,24.0,0.0
225774,0.924963,-1.165057,0.177045,-0.255312,-0.505664,0.069359,0.0,7.0,52.0,161.0,24.0,0.0
225775,0.95425,-1.179956,0.197365,-0.349072,-0.339567,-0.006767,0.0,7.0,52.0,161.0,24.0,0.0
225776,0.968068,-1.1912040000000002,0.196922,-0.349572,-0.089323,-0.040643,0.0,7.0,52.0,161.0,24.0,0.0
225777,0.970315,-1.196039,0.186315,-0.322713,-0.036355,-0.062043,0.0,7.0,52.0,161.0,24.0,0.0
225778,0.987286,-1.19221,0.192065,-0.125049,-0.433842,0.017574,0.0,7.0,52.0,161.0,24.0,0.0
225779,1.021497,-1.184441,0.212267,-0.19035,-0.49007,0.102847,0.0,7.0,52.0,161.0,24.0,0.0
225780,1.058477,-1.174921,0.236523,-0.189572,-0.441016,0.07230299999999999,0.0,7.0,52.0,161.0,24.0,0.0
225781,1.07146,-1.169747,0.252107,0.088179,-0.060575,0.247499,0.0,7.0,52.0,161.0,24.0,0.0
225782,1.045221,-1.169091,0.246969,0.7740600000000001,1.196975,0.362259,0.0,7.0,52.0,161.0,24.0,0.0
225783,1.031986,-1.172686,0.250922,0.7795270000000001,1.195575,0.365019,0.0,7.0,52.0,161.0,24.0,0.0
225784,1.070715,-1.178383,0.294189,0.225817,0.322166,-0.193733,0.0,7.0,52.0,161.0,24.0,0.0
225785,1.0878450000000002,-1.173673,0.312201,0.369615,0.70917,-0.074762,0.0,7.0,52.0,161.0,24.0,0.0
225786,1.087757,-1.169632,0.319989,0.225084,0.752977,-0.134434,0.0,7.0,52.0,161.0,24.0,0.0
225787,1.091755,-1.174392,0.32910100000000003,0.21708400000000005,0.249466,-0.085075,0.0,7.0,52.0,161.0,24.0,0.0
225788,1.1104459999999998,-1.1795209999999998,0.34191900000000003,0.204832,0.029449,0.002547,0.0,7.0,52.0,161.0,24.0,0.0
225789,1.149924,-1.184081,0.372296,0.36007,0.047693,-0.048407,0.0,7.0,52.0,161.0,24.0,0.0
225790,1.204029,-1.188817,0.426038,0.286014,0.06373999999999999,-0.159871,0.0,7.0,52.0,161.0,24.0,0.0
225791,1.251144,-1.193268,0.479262,0.173021,0.015505,-0.187014,0.0,7.0,52.0,161.0,24.0,0.0
225792,1.275401,-1.197435,0.50848,0.108397,-0.003738,-0.14956,0.0,7.0,52.0,161.0,24.0,0.0
225793,1.28091,-1.202059,0.517191,0.074502,-0.131544,-0.049963,0.0,7.0,52.0,161.0,24.0,0.0
225794,1.282306,-1.2084,0.521587,0.086994,-0.373481,-0.040381,0.0,7.0,52.0,161.0,24.0,0.0
225795,1.278415,-1.215682,0.523452,0.086426,-0.55014,0.058554,0.0,7.0,52.0,161.0,24.0,0.0
225796,1.2626879999999998,-1.22217,0.5209560000000001,-0.052011,-0.584588,0.051157,0.0,7.0,52.0,161.0,24.0,0.0
225797,1.2296049999999998,-1.227445,0.50845,-0.193724,-0.513867,0.071132,0.0,7.0,52.0,161.0,24.0,0.0
225798,1.173066,-1.229971,0.470451,-0.129208,-0.5071760000000001,0.208881,0.0,7.0,52.0,161.0,24.0,0.0
225799,1.100869,-1.228991,0.413399,-0.170764,-0.6166659999999999,0.283788,0.0,7.0,52.0,161.0,24.0,0.0
225800,1.031988,-1.224352,0.361434,-0.32295,-0.6640659999999999,0.131829,0.0,7.0,52.0,161.0,24.0,0.0
225801,0.969704,-1.217519,0.317104,-0.279391,-0.540447,0.157472,0.0,7.0,52.0,161.0,24.0,0.0
225802,0.915894,-1.204842,0.279067,0.21081,1.203653,-0.09929,0.0,7.0,52.0,161.0,24.0,0.0
225803,0.858066,-1.175168,0.225977,0.5285380000000001,1.26798,-0.036642,0.0,7.0,52.0,161.0,24.0,0.0
225804,0.825714,-1.14267,0.183242,0.442762,0.659514,-0.224925,0.0,7.0,52.0,161.0,24.0,0.0
225805,0.825224,-1.128417,0.204375,0.454874,0.676602,-0.425724,0.0,7.0,52.0,161.0,24.0,0.0
225806,0.825607,-1.113349,0.232688,0.4447890000000001,0.6831550000000001,-0.416643,0.0,7.0,52.0,161.0,24.0,0.0
225807,0.824183,-1.099501,0.254514,0.239854,0.565287,-0.277706,0.0,7.0,52.0,161.0,24.0,0.0
225808,0.820594,-1.098712,0.282456,0.026032,0.206713,-0.185884,0.0,7.0,52.0,161.0,24.0,0.0
225809,0.8199549999999999,-1.10726,0.318683,-0.00614,0.027062,-0.139683,0.0,7.0,52.0,161.0,24.0,0.0
225810,0.8211149999999999,-1.121676,0.356406,0.017993000000000002,-0.315182,0.005218,0.0,7.0,52.0,161.0,24.0,0.0
225811,0.829039,-1.140719,0.391897,-0.086824,-0.237272,0.025547,0.0,7.0,52.0,161.0,24.0,0.0
225812,0.843986,-1.161173,0.428345,-0.120162,-0.272602,0.09341,0.0,7.0,52.0,161.0,24.0,0.0
225813,0.863216,-1.183383,0.466958,-0.149343,-0.44272,0.109123,0.0,7.0,52.0,161.0,24.0,0.0
225814,0.886655,-1.207658,0.507949,-0.143374,-0.513217,0.08338200000000001,0.0,7.0,52.0,161.0,24.0,0.0
225815,0.914319,-1.232122,0.551804,-0.133017,-0.528096,-0.002168,0.0,7.0,52.0,161.0,24.0,0.0
225816,0.94469,-1.250968,0.596715,-0.100338,-0.543573,-0.071409,0.0,7.0,52.0,161.0,24.0,0.0
225817,0.970385,-1.2636690000000002,0.633968,-0.119142,-0.433842,0.023282,0.0,7.0,52.0,161.0,24.0,0.0
225818,0.983805,-1.272356,0.65566,-0.193028,-0.185075,0.00019,0.0,7.0,52.0,161.0,24.0,0.0
225819,0.977472,-1.277671,0.6566489999999999,-0.32818800000000004,0.159415,-0.064338,0.0,7.0,52.0,161.0,24.0,0.0
225820,0.963331,-1.274256,0.648728,-0.292049,0.002036,-0.13960699999999998,0.0,7.0,52.0,161.0,24.0,0.0
225821,0.947673,-1.266004,0.633335,-0.165179,-0.500067,-0.170273,0.0,7.0,52.0,161.0,24.0,0.0
225822,0.931447,-1.25387,0.618689,-0.149667,-0.67589,0.283026,0.0,7.0,52.0,161.0,24.0,0.0
225823,0.889962,-1.236366,0.595596,0.225546,0.73477,0.17431300000000002,0.0,7.0,52.0,161.0,24.0,0.0
225824,0.800003,-1.210725,0.54205,0.616251,1.465083,0.6143569999999999,0.0,7.0,52.0,161.0,24.0,0.0
225825,0.721961,-1.186326,0.475748,1.384044,1.886693,0.776807,0.0,7.0,52.0,161.0,24.0,0.0
225826,0.722454,-1.1875719999999998,0.476197,0.047039,0.360195,0.15062,0.0,7.0,52.0,161.0,24.0,0.0
225827,0.7521720000000001,-1.191718,0.506347,0.043137,0.912226,-0.166622,0.0,7.0,52.0,161.0,24.0,0.0
225828,0.743589,-1.175839,0.503846,0.035511,0.918219,-0.15363800000000002,0.0,7.0,52.0,161.0,24.0,0.0
225829,0.733356,-1.17288,0.5010789999999999,0.666188,0.4243520000000001,0.027539,0.0,7.0,52.0,161.0,24.0,0.0
225830,0.764364,-1.177257,0.5221680000000001,0.567181,-0.115056,-0.115255,0.0,7.0,52.0,161.0,24.0,0.0
225831,0.813262,-1.189417,0.559699,0.451448,-0.155478,-0.01494,0.0,7.0,52.0,161.0,24.0,0.0
225832,0.856029,-1.210773,0.60492,0.235535,-0.166769,0.124372,0.0,7.0,52.0,161.0,24.0,0.0
225833,0.912062,-1.232744,0.67287,0.085801,-0.004636,0.152501,0.0,7.0,52.0,161.0,24.0,0.0
225834,0.987463,-1.250393,0.759446,-0.20553,-0.08514,0.124785,0.0,7.0,52.0,161.0,24.0,0.0
225835,1.065304,-1.264114,0.844814,-0.311141,-0.27376,0.06870599999999999,0.0,7.0,52.0,161.0,24.0,0.0
225836,1.126686,-1.277737,0.910853,-0.231332,-0.496717,0.102407,0.0,7.0,52.0,161.0,24.0,0.0
225837,1.161109,-1.294272,0.943174,-0.091786,-0.7179760000000001,0.111265,0.0,7.0,52.0,161.0,24.0,0.0
225838,1.18628,-1.314363,0.965512,0.060062,-0.653565,0.029023,0.0,7.0,52.0,161.0,24.0,0.0
225839,1.2191040000000002,-1.337037,1.00071,0.25448000000000004,-0.254327,0.010855,0.0,7.0,52.0,161.0,24.0,0.0
225840,1.260094,-1.355855,1.048381,0.21758,-0.038741000000000005,-0.082756,0.0,7.0,52.0,161.0,24.0,0.0
225841,1.282791,-1.366825,1.075189,0.057575,0.023736,-0.194662,0.0,7.0,52.0,161.0,24.0,0.0
225842,1.269321,-1.377214,1.056031,0.402003,0.04471,-0.253518,0.0,7.0,52.0,161.0,24.0,0.0
225843,1.226435,-1.3872520000000002,1.005548,0.679651,-0.035953,-0.229663,0.0,7.0,52.0,161.0,24.0,0.0
225844,1.174652,-1.397724,0.956452,0.931516,-0.14365999999999998,-0.235668,0.0,7.0,52.0,161.0,24.0,0.0
225845,1.146387,-1.407705,0.94776,0.4941390000000001,-0.020666,0.121918,0.0,7.0,52.0,161.0,24.0,0.0
225846,1.142945,-1.411434,0.982039,0.32653000000000004,0.07862000000000001,0.191579,0.0,7.0,52.0,161.0,24.0,0.0
225847,1.116321,-1.406366,1.002854,0.179031,0.055511000000000005,0.306221,0.0,7.0,52.0,161.0,24.0,0.0
225848,1.06136,-1.395903,1.003944,0.541517,0.309948,0.385704,0.0,7.0,52.0,161.0,24.0,0.0
225849,0.961289,-1.377553,0.971448,0.595831,0.48184,0.37477,0.0,7.0,52.0,161.0,24.0,0.0
225850,0.8762040000000001,-1.352309,0.946698,0.154498,0.455491,0.26281,0.0,7.0,52.0,161.0,24.0,0.0
225851,0.8425729999999999,-1.325286,0.961374,-0.023843,0.350925,0.232293,0.0,7.0,52.0,161.0,24.0,0.0
225852,0.830572,-1.303413,0.994543,-0.175285,0.265179,0.095121,0.0,7.0,52.0,161.0,24.0,0.0
225853,0.805397,-1.287675,1.014155,0.290797,0.195711,0.08985399999999999,0.0,7.0,52.0,161.0,24.0,0.0
225854,0.754055,-1.274801,1.014979,0.414967,0.123413,0.110273,0.0,7.0,52.0,161.0,24.0,0.0
225855,0.7025939999999999,-1.263606,1.028447,0.486992,0.083587,0.130925,0.0,7.0,52.0,161.0,24.0,0.0
225856,0.660343,-1.253411,1.055212,0.275567,-0.004879,0.163115,0.0,7.0,52.0,161.0,24.0,0.0
225857,0.6346970000000001,-1.243493,1.093256,0.08946699999999999,-0.006742000000000001,0.205867,0.0,7.0,52.0,161.0,24.0,0.0
225858,0.623533,-1.23372,1.144467,0.054366,-0.126251,0.250056,0.0,7.0,52.0,161.0,24.0,0.0
225859,0.616683,-1.229674,1.21286,0.13305799999999998,-0.242917,0.332443,0.0,7.0,52.0,161.0,24.0,0.0
225860,0.610661,-1.235936,1.292217,0.071916,-0.381102,0.367306,0.0,7.0,52.0,161.0,24.0,0.0
225861,0.5948060000000001,-1.247809,1.353247,-0.101546,-0.353916,0.300039,0.0,7.0,52.0,161.0,24.0,0.0
225862,0.563788,-1.2551709999999998,1.382753,-0.14444400000000002,-0.153972,0.231572,0.0,7.0,52.0,161.0,24.0,0.0
225863,0.537563,-1.259164,1.409004,-0.096622,-0.199576,0.231912,0.0,7.0,52.0,161.0,24.0,0.0
225864,0.528478,-1.265122,1.441898,-0.07131,-0.225739,0.137299,0.0,7.0,52.0,161.0,24.0,0.0
225865,0.539237,-1.273725,1.485522,-0.005379999999999999,-0.186773,0.010774,0.0,7.0,52.0,161.0,24.0,0.0
225866,0.558623,-1.281191,1.534186,0.119209,-0.097791,-0.104099,0.0,7.0,52.0,161.0,24.0,0.0
225867,0.57525,-1.288088,1.5805049999999998,0.203765,-0.056052,-0.052341,0.0,7.0,52.0,161.0,24.0,0.0
225868,0.585393,-1.293315,1.618548,0.192075,-0.074679,-0.092321,0.0,7.0,52.0,161.0,24.0,0.0
225869,0.6027710000000001,-1.298981,1.6582580000000002,0.140961,-0.041715,-0.137503,0.0,7.0,52.0,161.0,24.0,0.0
225870,0.627648,-1.302174,1.703348,0.11551,-0.009364,-0.226978,0.0,7.0,52.0,161.0,24.0,0.0
225871,0.6488229999999999,-1.300729,1.74826,0.267717,-0.088783,-0.178481,0.0,7.0,52.0,161.0,24.0,0.0
225872,0.660121,-1.294871,1.7868240000000002,0.159144,-0.13868699999999998,-0.27176,0.0,7.0,52.0,161.0,24.0,0.0
225873,0.67713,-1.285616,1.832273,0.198032,0.084212,-0.045975,0.0,7.0,52.0,161.0,24.0,0.0
225874,0.678179,-1.264382,1.863044,0.406875,0.5188689999999999,0.083718,0.0,7.0,52.0,161.0,24.0,0.0
225875,0.687442,-1.245384,1.897737,0.112516,0.24103400000000005,0.32679400000000003,0.0,7.0,52.0,161.0,24.0,0.0
225876,0.727506,-1.240202,1.964666,-0.041242,0.401501,0.311224,0.0,7.0,52.0,161.0,24.0,0.0
225877,0.7608189999999999,-1.241839,2.029166,0.19702,0.190522,-0.008989,0.0,7.0,52.0,161.0,24.0,0.0
225878,0.7494,-1.252206,2.055695,0.416591,-0.451219,0.316025,0.0,7.0,52.0,161.0,24.0,0.0
225879,0.7172689999999999,-1.253978,2.058534,0.465427,-0.371267,0.385685,0.0,7.0,52.0,161.0,24.0,0.0
225880,0.734008,-1.248749,2.103537,0.357798,0.027744,0.55298,0.0,7.0,52.0,161.0,24.0,0.0
225881,0.8004560000000001,-1.252316,2.186917,0.269776,0.50326,0.28595,0.0,7.0,52.0,161.0,24.0,0.0
225882,0.8891879999999999,-1.267387,2.288327,-0.023878,0.388038,-0.060115,0.0,7.0,52.0,161.0,24.0,0.0
225883,0.961641,-1.280761,2.3871990000000003,0.13805499999999998,0.033542,0.179805,0.0,7.0,52.0,161.0,24.0,0.0
225884,1.010009,-1.287603,2.452966,0.152273,-0.072183,0.299824,0.0,7.0,52.0,161.0,24.0,0.0
225885,1.057818,-1.292402,2.504441,0.040971,0.018055,0.13096300000000002,0.0,7.0,52.0,161.0,24.0,0.0
225886,1.105335,-1.302092,2.5517830000000004,-0.015359,0.020854,-0.051711,0.0,7.0,52.0,161.0,24.0,0.0
225887,1.141961,-1.31511,2.591759,0.173012,-0.204428,-0.10673699999999997,0.0,7.0,52.0,161.0,24.0,0.0
225888,1.175858,-1.323944,2.634707,0.224095,-0.323095,-0.053904,0.0,7.0,52.0,161.0,24.0,0.0
225889,1.221952,-1.326861,2.692755,0.158896,-0.538144,0.08831,0.0,7.0,52.0,161.0,24.0,0.0
225890,1.284475,-1.327883,2.770735,0.134856,-0.304977,0.022113,0.0,7.0,52.0,161.0,24.0,0.0
225891,1.349835,-1.330596,2.854381,0.115128,-0.145073,-0.031382,0.0,7.0,52.0,161.0,24.0,0.0
225892,1.396247,-1.333058,2.914898,0.045689,0.035802,-0.114916,0.0,7.0,52.0,161.0,24.0,0.0
225893,1.408665,-1.333392,2.935837,0.119951,-0.095166,-0.16655699999999998,0.0,7.0,52.0,161.0,24.0,0.0
225894,1.394084,-1.334417,2.92743,0.198933,-0.123315,-0.129127,0.0,7.0,52.0,161.0,24.0,0.0
225895,1.3748049999999998,-1.337264,2.916967,0.385026,-0.018937,-0.016176,0.0,7.0,52.0,161.0,24.0,0.0
225896,1.350185,-1.340471,2.909094,0.35829,-0.093771,0.071508,0.0,7.0,52.0,161.0,24.0,0.0
225897,1.309419,-1.342983,2.8925,0.251668,-0.143352,0.101853,0.0,7.0,52.0,161.0,24.0,0.0
225898,1.252935,-1.345459,2.86457,0.200839,0.221799,0.419,0.0,7.0,52.0,161.0,24.0,0.0
225899,1.167758,-1.344386,2.820454,0.151272,0.434884,0.5378729999999999,0.0,7.0,52.0,161.0,24.0,0.0
225900,1.03964,-1.331235,2.726084,-0.242135,0.323678,0.22605,0.0,7.0,52.0,161.0,24.0,0.0
225901,0.948142,-1.30913,2.6476580000000003,-0.032061,0.191159,0.148741,0.0,7.0,52.0,161.0,24.0,0.0
225902,0.886249,-1.286486,2.590323,0.134284,0.337172,-0.012978,0.0,7.0,52.0,161.0,24.0,0.0
225903,0.847675,-1.263687,2.55805,0.424355,0.394842,-0.100389,0.0,7.0,52.0,161.0,24.0,0.0
225904,0.814693,-1.24302,2.5435790000000003,0.384302,-0.022505,-0.114311,0.0,7.0,52.0,161.0,24.0,0.0
225905,0.791891,-1.226813,2.556891,0.205519,-0.039701,-0.052976,0.0,7.0,52.0,161.0,24.0,0.0
225906,0.7784270000000001,-1.214313,2.586567,0.141099,0.010822,-0.049829000000000005,0.0,7.0,52.0,161.0,24.0,0.0
225907,0.770366,-1.203973,2.6210560000000003,0.02439,0.230484,-0.013256,0.0,7.0,52.0,161.0,24.0,0.0
225908,0.772521,-1.196049,2.666168,-0.012082,0.107898,0.03985,0.0,7.0,52.0,161.0,24.0,0.0
225909,0.78933,-1.188743,2.729968,-0.004105,-0.05902,0.095828,0.0,7.0,52.0,161.0,24.0,0.0
225910,0.8136369999999999,-1.18337,2.804104,0.056132000000000015,-0.490795,0.18919,0.0,7.0,52.0,161.0,24.0,0.0
225911,0.8410770000000001,-1.183692,2.871951,0.002112,-0.509075,0.185114,0.0,7.0,52.0,161.0,24.0,0.0
225912,0.861884,-1.19098,2.923303,-0.253913,-0.30564,0.091644,0.0,7.0,52.0,161.0,24.0,0.0
225913,0.881864,-1.199811,2.970528,-0.157136,-0.324869,0.078262,0.0,7.0,52.0,161.0,24.0,0.0
225914,0.900286,-1.20765,3.0116400000000003,-0.078346,-0.323639,0.061701,0.0,7.0,52.0,161.0,24.0,0.0
225915,0.915177,-1.2135,3.044626,-0.04331,-0.351519,-0.005406,0.0,7.0,52.0,161.0,24.0,0.0
225916,0.934739,-1.218935,3.08022,-0.009041,-0.440762,-0.037792,0.0,7.0,52.0,161.0,24.0,0.0
225917,0.960701,-1.2254459999999998,3.119489,-0.039168,-0.4693229999999999,-0.04626,0.0,7.0,52.0,161.0,24.0,0.0
225918,0.987942,-1.232916,-3.124301,-0.017383000000000003,-0.480035,-0.058527,0.0,7.0,52.0,161.0,24.0,0.0
225919,1.023726,-1.241068,-3.077253,-0.06465499999999999,-0.5464720000000001,-0.045421,0.0,7.0,52.0,161.0,24.0,0.0
225920,1.065113,-1.247537,-3.024343,-0.225998,-0.5241939999999999,-0.004508,0.0,7.0,52.0,161.0,24.0,0.0
225921,1.102981,-1.249547,-2.9809080000000003,-0.337665,-0.433629,0.102104,0.0,7.0,52.0,161.0,24.0,0.0
225922,1.1366969999999998,-1.249961,-2.946492,-0.297651,-0.20898200000000006,0.157422,0.0,7.0,52.0,161.0,24.0,0.0
225923,1.16633,-1.25154,-2.914159,-0.247098,-0.043738,0.126477,0.0,7.0,52.0,161.0,24.0,0.0
225924,1.19287,-1.245799,-2.8824080000000003,-0.055627,-0.08932899999999999,0.29753,0.0,7.0,52.0,161.0,24.0,0.0
225925,1.221392,-1.232451,-2.847638,0.072112,-0.15923199999999998,0.182714,0.0,7.0,52.0,161.0,24.0,0.0
225926,1.244453,-1.218544,-2.811974,0.33408000000000004,0.113923,0.20012,0.0,7.0,52.0,161.0,24.0,0.0
225927,1.250106,-1.206506,-2.781805,0.836478,0.717707,-0.045704,0.0,7.0,52.0,161.0,24.0,0.0
225928,1.261824,-1.207463,-2.740705,0.213113,0.811666,-0.013003,0.0,7.0,52.0,161.0,24.0,0.0
225929,1.283151,-1.212852,-2.701474,-0.220711,0.768764,-0.079326,0.0,7.0,52.0,161.0,24.0,0.0
225930,1.234742,-1.211354,-2.748059,0.366542,1.648852,0.363439,0.0,7.0,52.0,161.0,24.0,0.0
225931,1.199051,-1.207308,-2.802392,0.580729,0.122848,-0.434172,0.0,7.0,52.0,161.0,24.0,0.0
225932,1.195438,-1.1996209999999998,-2.801041,0.451323,-0.061037,-0.172167,0.0,7.0,52.0,161.0,24.0,0.0
225933,1.191997,-1.189592,-2.796612,0.391496,-0.079447,-0.253617,0.0,7.0,52.0,161.0,24.0,0.0
225934,1.216062,-1.187439,-2.763617,0.27365,-0.159409,-0.342778,0.0,7.0,52.0,161.0,24.0,0.0
225935,1.246175,-1.1931459999999998,-2.724372,0.08198899999999999,-0.032775,-0.056579,0.0,7.0,52.0,161.0,24.0,0.0
225936,1.287674,-1.205288,-2.674798,0.013598,-0.224515,0.117617,0.0,7.0,52.0,161.0,24.0,0.0
225937,1.347867,-1.218864,-2.603606,-0.062197,-0.24274,0.052660000000000005,0.0,7.0,52.0,161.0,24.0,0.0
225938,1.412245,-1.2285629999999998,-2.52821,-0.186835,-0.034003,-0.004667,0.0,7.0,52.0,161.0,24.0,0.0
225939,1.442413,-1.236383,-2.49331,-0.274426,-0.090813,-0.021032,0.0,7.0,52.0,161.0,24.0,0.0
225940,1.424806,-1.2476969999999998,-2.514419,-0.113932,-0.335661,0.12601700000000002,0.0,7.0,52.0,161.0,24.0,0.0
225941,1.393476,-1.261667,-2.549943,0.082977,-0.518257,0.114403,0.0,7.0,52.0,161.0,24.0,0.0
225942,1.350205,-1.271618,-2.596734,0.057748,-0.542752,0.028685,0.0,7.0,52.0,161.0,24.0,0.0
225943,1.275761,-1.273688,-2.672037,-0.008237000000000001,-0.518367,-0.142958,0.0,7.0,52.0,161.0,24.0,0.0
225944,1.191048,-1.271273,-2.747983,-0.119364,-0.668658,0.177967,0.0,7.0,52.0,161.0,24.0,0.0
225945,1.116433,-1.264397,-2.80567,-0.22502,-0.726345,0.214124,0.0,7.0,52.0,161.0,24.0,0.0
225946,1.045736,-1.251095,-2.857205,-0.289591,-0.389362,0.14971199999999998,0.0,7.0,52.0,161.0,24.0,0.0
225947,0.964507,-1.221102,-2.927849,0.270478,1.458533,0.016714,0.0,7.0,52.0,161.0,24.0,0.0
225948,0.90905,-1.189739,-3.002271,0.273909,1.506772,-0.022428,0.0,7.0,52.0,161.0,24.0,0.0
225949,0.900121,-1.174897,-3.02317,-0.065764,0.5481600000000001,-0.236591,0.0,7.0,52.0,161.0,24.0,0.0
225950,0.909596,-1.157125,-3.0003330000000004,0.413699,0.25273,-0.06476,0.0,7.0,52.0,161.0,24.0,0.0
225951,0.915342,-1.1301139999999998,-2.983548,0.587911,0.256336,-0.140897,0.0,7.0,52.0,161.0,24.0,0.0
225952,0.925061,-1.116384,-2.980596,-0.034686,0.251551,-0.31240500000000004,0.0,7.0,52.0,161.0,24.0,0.0
225953,0.943266,-1.114516,-2.968648,-0.166725,0.18531,-0.336141,0.0,7.0,52.0,161.0,24.0,0.0
225954,0.968409,-1.118688,-2.9500610000000003,-0.24893,0.000679,-0.23513,0.0,7.0,52.0,161.0,24.0,0.0
225955,0.986816,-1.124387,-2.944787,0.091236,-0.282557,-0.03102,0.0,7.0,52.0,161.0,24.0,0.0
225956,1.011437,-1.133844,-2.9361330000000003,0.049596,-0.287912,-0.043199,0.0,7.0,52.0,161.0,24.0,0.0
225957,1.052963,-1.146886,-2.911109,-0.002003,-0.289921,-0.07295499999999999,0.0,7.0,52.0,161.0,24.0,0.0
225958,1.109051,-1.162608,-2.869965,-0.140528,-0.350154,-0.155533,0.0,7.0,52.0,161.0,24.0,0.0
225959,1.167216,-1.178532,-2.820773,-0.201415,-0.412388,-0.06732,0.0,7.0,52.0,161.0,24.0,0.0
225960,1.201676,-1.191362,-2.79191,-0.291315,-0.462718,-0.012064,0.0,7.0,52.0,161.0,24.0,0.0
225961,1.220009,-1.2013969999999998,-2.780538,-0.486626,-0.6245149999999999,0.125055,0.0,7.0,52.0,161.0,24.0,0.0
225962,1.257252,-1.209081,-2.750898,-0.278555,-0.72823,-0.017387,0.0,7.0,52.0,161.0,24.0,0.0
225963,1.317603,-1.208142,-2.699894,-0.185461,-0.911612,-0.107293,0.0,7.0,52.0,161.0,24.0,0.0
225964,1.365489,-1.195265,-2.661833,-0.348814,-0.734008,-0.025728,0.0,7.0,52.0,161.0,24.0,0.0
225965,1.373686,-1.175709,-2.647643,-0.25824,-0.451207,0.233573,0.0,7.0,52.0,161.0,24.0,0.0
225966,1.311612,-1.160891,-2.68411,0.618169,1.033296,0.059041,0.0,7.0,52.0,161.0,24.0,0.0
225967,1.241702,-1.160184,-2.734878,1.344044,2.776468,0.266816,0.0,7.0,52.0,161.0,24.0,0.0
225968,1.290274,-1.171016,-2.698647,-0.187668,0.43774,-0.465904,0.0,7.0,52.0,161.0,24.0,0.0
225969,1.290023,-1.165626,-2.707286,-0.410241,-0.054564,-0.238834,0.0,7.0,52.0,161.0,24.0,0.0
225970,1.244423,-1.1543290000000002,-2.769757,1.206596,0.767544,-0.70872,0.0,7.0,52.0,161.0,24.0,0.0
225971,1.221694,-1.165675,-2.772408,0.59747,0.276609,-0.025488,0.0,7.0,52.0,161.0,24.0,0.0
225972,1.234495,-1.170364,-2.743305,0.350076,0.07781,0.034179,0.0,7.0,52.0,161.0,24.0,0.0
225973,1.264358,-1.166661,-2.715792,0.059016999999999986,0.01554,-0.168373,0.0,7.0,52.0,161.0,24.0,0.0
225974,1.27574,-1.162779,-2.704546,0.174427,0.082427,-0.25774600000000003,0.0,7.0,52.0,161.0,24.0,0.0
225975,1.269334,-1.161499,-2.709711,0.100582,-0.045285,-0.187631,0.0,7.0,52.0,161.0,24.0,0.0
225976,1.250352,-1.160067,-2.730835,-0.006858,-0.391989,-0.079135,0.0,7.0,52.0,161.0,24.0,0.0
225977,1.21114,-1.156878,-2.771525,-0.116128,-0.685297,0.204978,0.0,7.0,52.0,161.0,24.0,0.0
225978,1.1664709999999998,-1.1581,-2.808966,-0.22788000000000005,-0.734921,0.351135,0.0,7.0,52.0,161.0,24.0,0.0
225979,1.130267,-1.165033,-2.835223,-0.203418,-0.6765680000000001,0.207688,0.0,7.0,52.0,161.0,24.0,0.0
225980,1.0904049999999998,-1.168372,-2.869403,-0.227106,-0.6492859999999999,0.151028,0.0,7.0,52.0,161.0,24.0,0.0
225981,1.041423,-1.163715,-2.909528,-0.232342,-0.706885,0.08039299999999999,0.0,7.0,52.0,161.0,24.0,0.0
225982,0.981386,-1.1512129999999998,-2.953262,-0.293106,-0.485387,0.109281,0.0,7.0,52.0,161.0,24.0,0.0
225983,0.927305,-1.128423,-2.991803,-0.11046,1.176813,0.088165,0.0,7.0,52.0,161.0,24.0,0.0
225984,0.887542,-1.090449,-3.027868,0.498405,1.689505,0.115383,0.0,7.0,52.0,161.0,24.0,0.0
225985,0.881833,-1.071601,-3.040999,0.049539,0.660988,-0.050438,0.0,7.0,52.0,161.0,24.0,0.0
225986,0.888408,-1.061512,-3.004532,0.22372,0.443328,-0.149125,0.0,7.0,52.0,161.0,24.0,0.0
225987,0.8966700000000001,-1.043831,-2.969289,0.398691,0.651135,-0.27168600000000004,0.0,7.0,52.0,161.0,24.0,0.0
225988,0.90756,-1.029957,-2.957342,0.065053,0.906899,-0.324187,0.0,7.0,52.0,161.0,24.0,0.0
225989,0.919268,-1.026347,-2.95271,-0.110293,-0.262243,-0.242443,0.0,7.0,52.0,161.0,24.0,0.0
225990,0.93666,-1.030578,-2.938767,-0.14458800000000002,-0.5514600000000001,-0.2444,0.0,7.0,52.0,161.0,24.0,0.0
225991,0.969657,-1.038753,-2.91632,-0.081817,-0.361071,-0.119388,0.0,7.0,52.0,161.0,24.0,0.0
225992,1.00883,-1.049366,-2.891622,0.087136,-0.124279,-0.110698,0.0,7.0,52.0,161.0,24.0,0.0
225993,1.043814,-1.066126,-2.86935,-0.040097,-0.06350499999999999,-0.151777,0.0,7.0,52.0,161.0,24.0,0.0
225994,1.077199,-1.088593,-2.846868,-0.066902,-0.202519,-0.124242,0.0,7.0,52.0,161.0,24.0,0.0
225995,1.10851,-1.1157780000000002,-2.822333,-0.081624,-0.28665,-0.128329,0.0,7.0,52.0,161.0,24.0,0.0
225996,1.13353,-1.143361,-2.801416,-0.313229,-0.523466,-0.075764,0.0,7.0,52.0,161.0,24.0,0.0
225997,1.147068,-1.169836,-2.791904,-0.372212,-0.476137,-0.000634,0.0,7.0,52.0,161.0,24.0,0.0
225998,1.155392,-1.190194,-2.787604,-0.33643,-0.212575,0.135454,0.0,7.0,52.0,161.0,24.0,0.0
225999,1.166387,-1.197523,-2.78357,-0.291738,0.0035380000000000008,0.091032,0.0,7.0,52.0,161.0,24.0,0.0
226000,1.188101,-1.190618,-2.769947,-0.192958,-0.160898,-0.013019,0.0,7.0,52.0,161.0,24.0,0.0
226001,1.220674,-1.178906,-2.747393,-0.187857,-0.230891,0.047474,0.0,7.0,52.0,161.0,24.0,0.0
226002,1.248984,-1.167065,-2.7309360000000003,-0.319881,-0.185623,-0.160254,0.0,7.0,52.0,161.0,24.0,0.0
226003,1.258806,-1.161752,-2.7241720000000003,0.055681,-0.256292,0.207863,0.0,7.0,52.0,161.0,24.0,0.0
226004,1.234122,-1.160477,-2.742029,0.30912399999999995,-0.062578,0.26929699999999995,0.0,7.0,52.0,161.0,24.0,0.0
226005,1.190561,-1.152878,-2.772072,0.633679,0.387089,0.181047,0.0,7.0,52.0,161.0,24.0,0.0
226006,1.211108,-1.147381,-2.7429080000000003,0.400137,0.435111,-0.036463,0.0,7.0,52.0,161.0,24.0,0.0
226007,1.268681,-1.144068,-2.668227,0.107925,0.652786,-0.104243,0.0,7.0,52.0,161.0,24.0,0.0
226008,1.262881,-1.134548,-2.649517,0.16559,0.822325,0.054858,0.0,7.0,52.0,161.0,24.0,0.0
226009,1.24491,-1.134399,-2.649132,0.173978,0.629242,-0.107898,0.0,7.0,52.0,161.0,24.0,0.0
226010,1.249349,-1.142025,-2.640246,0.094913,0.06415599999999999,-0.00728,0.0,7.0,52.0,161.0,24.0,0.0
226011,1.266877,-1.145392,-2.628006,0.151901,-0.124724,-0.030482,0.0,7.0,52.0,161.0,24.0,0.0
226012,1.293039,-1.1440000000000001,-2.610227,0.075977,-0.048755,-0.10801199999999997,0.0,7.0,52.0,161.0,24.0,0.0
226013,1.316906,-1.1430209999999998,-2.591549,0.023967,0.001272,-0.115642,0.0,7.0,52.0,161.0,24.0,0.0
226014,1.3353620000000002,-1.147731,-2.575943,0.009791,-0.017273,-0.08299400000000001,0.0,7.0,52.0,161.0,24.0,0.0
226015,1.349407,-1.153609,-2.568088,0.198673,0.040846,-0.123267,0.0,7.0,52.0,161.0,24.0,0.0
226016,1.363555,-1.157184,-2.560605,0.109987,-0.165385,-0.16076,0.0,7.0,52.0,161.0,24.0,0.0
226017,1.37373,-1.158836,-2.556096,-0.000724,-0.227739,-0.20971,0.0,7.0,52.0,161.0,24.0,0.0
226018,1.362604,-1.1635209999999998,-2.569744,-0.037569,-0.30043600000000004,-0.176587,0.0,7.0,52.0,161.0,24.0,0.0
226019,1.336171,-1.1717540000000002,-2.597356,0.026081,-0.356919,-0.156277,0.0,7.0,52.0,161.0,24.0,0.0
226020,1.311041,-1.181939,-2.625678,0.116647,-0.33623200000000003,-0.09341,0.0,7.0,52.0,161.0,24.0,0.0
226021,1.28885,-1.190681,-2.6474830000000003,0.045429,-0.302371,-0.063359,0.0,7.0,52.0,161.0,24.0,0.0
226022,1.260037,-1.197227,-2.669621,-0.000662,-0.265946,0.020778,0.0,7.0,52.0,161.0,24.0,0.0
226023,1.216304,-1.203645,-2.7040580000000003,-0.115634,-0.418675,0.173189,0.0,7.0,52.0,161.0,24.0,0.0
226024,1.1708040000000002,-1.210923,-2.738067,-0.14066099999999998,-0.6087020000000001,0.34925,0.0,7.0,52.0,161.0,24.0,0.0
226025,1.130286,-1.215223,-2.764008,-0.354189,-0.429299,0.20800000000000002,0.0,7.0,52.0,161.0,24.0,0.0
226026,1.083841,-1.210163,-2.800792,-0.39352,-0.098348,0.026556,0.0,7.0,52.0,161.0,24.0,0.0
226027,1.027471,-1.187248,-2.864485,-0.296208,0.759059,-0.204821,0.0,7.0,52.0,161.0,24.0,0.0
226028,0.972244,-1.149585,-2.948863,0.375735,0.789981,-0.06918400000000001,0.0,7.0,52.0,161.0,24.0,0.0
226029,0.947152,-1.1223379999999998,-3.002208,0.328311,0.517798,-0.073114,0.0,7.0,52.0,161.0,24.0,0.0
226030,0.940437,-1.108732,-3.001148,0.33858,0.328529,-0.100464,0.0,7.0,52.0,161.0,24.0,0.0
226031,0.94722,-1.098118,-2.977875,0.26905500000000004,0.14105,-0.219114,0.0,7.0,52.0,161.0,24.0,0.0
226032,0.961185,-1.089573,-2.957986,0.06979199999999999,0.27432199999999995,-0.297393,0.0,7.0,52.0,161.0,24.0,0.0
226033,0.972808,-1.084477,-2.950081,-0.060937,0.254597,-0.278041,0.0,7.0,52.0,161.0,24.0,0.0
226034,0.985421,-1.084485,-2.940418,-0.123652,-0.216079,-0.087015,0.0,7.0,52.0,161.0,24.0,0.0
226035,0.997764,-1.090314,-2.9259060000000003,-0.086798,-0.336571,-0.060049,0.0,7.0,52.0,161.0,24.0,0.0
226036,1.0203950000000002,-1.103038,-2.90545,-0.13989400000000002,-0.248599,-0.062356,0.0,7.0,52.0,161.0,24.0,0.0
226037,1.055921,-1.117438,-2.874385,-0.060857000000000015,-0.25516700000000003,-0.104983,0.0,7.0,52.0,161.0,24.0,0.0
226038,1.091613,-1.1331719999999998,-2.842903,-0.097213,-0.25164699999999995,-0.098567,0.0,7.0,52.0,161.0,24.0,0.0
226039,1.129572,-1.150303,-2.808868,-0.26364,-0.244598,-0.042422,0.0,7.0,52.0,161.0,24.0,0.0
226040,1.167991,-1.167925,-2.78097,-0.30795300000000003,-0.201967,0.091025,0.0,7.0,52.0,161.0,24.0,0.0
226041,1.193975,-1.185431,-2.772018,-0.338265,-0.113063,0.16681,0.0,7.0,52.0,161.0,24.0,0.0
226042,1.21506,-1.2029530000000002,-2.768291,-0.391319,-0.17393499999999998,0.13081600000000002,0.0,7.0,52.0,161.0,24.0,0.0
226043,1.2524879999999998,-1.21475,-2.740727,-0.097799,-0.7306779999999999,-0.072837,0.0,7.0,52.0,161.0,24.0,0.0
226044,1.30071,-1.220114,-2.703484,-0.082271,-0.908575,-0.116097,0.0,7.0,52.0,161.0,24.0,0.0
226045,1.332985,-1.213293,-2.67858,-0.229488,-0.756155,0.049561,0.0,7.0,52.0,161.0,24.0,0.0
226046,1.340569,-1.196791,-2.667702,-0.072532,-0.4281100000000001,0.089742,0.0,7.0,52.0,161.0,24.0,0.0
226047,1.304345,-1.178353,-2.682707,0.084968,-0.005337,0.281953,0.0,7.0,52.0,161.0,24.0,0.0
226048,1.259494,-1.1733360000000002,-2.692919,0.861431,1.829418,0.243948,0.0,7.0,52.0,161.0,24.0,0.0
226049,1.30076,-1.185656,-2.6523830000000004,-0.081525,0.29205,-0.262535,0.0,7.0,52.0,161.0,24.0,0.0
226050,1.308057,-1.178209,-2.6512330000000004,-0.101399,0.035611000000000004,0.048531,0.0,7.0,52.0,161.0,24.0,0.0
226051,1.276936,-1.164019,-2.684168,0.763748,1.009624,-0.493014,0.0,7.0,52.0,161.0,24.0,0.0
226052,1.264419,-1.173759,-2.67656,0.33191,0.356125,-0.177037,0.0,7.0,52.0,161.0,24.0,0.0
226053,1.262067,-1.180189,-2.667195,0.143981,0.055714,-0.133373,0.0,7.0,52.0,161.0,24.0,0.0
226054,1.28067,-1.181702,-2.656417,0.125136,-0.092947,-0.192955,0.0,7.0,52.0,161.0,24.0,0.0
226055,1.312577,-1.183944,-2.630157,0.281977,0.115052,-0.373028,0.0,7.0,52.0,161.0,24.0,0.0
226056,1.331867,-1.188426,-2.607677,0.286925,0.05644,-0.37728,0.0,7.0,52.0,161.0,24.0,0.0
226057,1.33809,-1.192464,-2.600485,0.100257,-0.24672600000000006,-0.097825,0.0,7.0,52.0,161.0,24.0,0.0
226058,1.341638,-1.1940620000000002,-2.601692,0.027902,-0.42891,0.018329,0.0,7.0,52.0,161.0,24.0,0.0
226059,1.338155,-1.195056,-2.608698,-0.089435,-0.408004,0.195542,0.0,7.0,52.0,161.0,24.0,0.0
226060,1.326449,-1.200546,-2.617827,-0.191568,-0.373002,0.120765,0.0,7.0,52.0,161.0,24.0,0.0
226061,1.29512,-1.206502,-2.647455,-0.080537,-0.365543,0.093295,0.0,7.0,52.0,161.0,24.0,0.0
226062,1.232356,-1.208148,-2.711503,-0.086276,-0.417382,0.130208,0.0,7.0,52.0,161.0,24.0,0.0
226063,1.168701,-1.206488,-2.775082,-0.202734,-0.734755,0.146201,0.0,7.0,52.0,161.0,24.0,0.0
226064,1.116052,-1.200464,-2.821314,-0.338057,-0.34425500000000003,0.15607200000000002,0.0,7.0,52.0,161.0,24.0,0.0
226065,1.0591469999999998,-1.185314,-2.870452,-0.285105,0.094028,0.043094,0.0,7.0,52.0,161.0,24.0,0.0
226066,0.994389,-1.160358,-2.931565,0.131529,1.188935,-0.031249,0.0,7.0,52.0,161.0,24.0,0.0
226067,0.947989,-1.140654,-2.9917130000000003,0.319776,0.991927,0.038975,0.0,7.0,52.0,161.0,24.0,0.0
226068,0.944582,-1.129053,-3.000731,-0.121783,0.45143,-0.128299,0.0,7.0,52.0,161.0,24.0,0.0
226069,0.94946,-1.115116,-2.987994,0.059751,0.236132,-0.113954,0.0,7.0,52.0,161.0,24.0,0.0
226070,0.960507,-1.1050879999999998,-2.964021,0.253668,0.027410000000000004,-0.174511,0.0,7.0,52.0,161.0,24.0,0.0
226071,0.97586,-1.102316,-2.951232,0.041732,0.060824,-0.398652,0.0,7.0,52.0,161.0,24.0,0.0
226072,0.99082,-1.098241,-2.953149,0.079277,0.315021,-0.381684,0.0,7.0,52.0,161.0,24.0,0.0
226073,1.004417,-1.096357,-2.954135,0.063871,0.176033,-0.10066,0.0,7.0,52.0,161.0,24.0,0.0
226074,1.02388,-1.102328,-2.944273,0.022228,0.129483,-0.067396,0.0,7.0,52.0,161.0,24.0,0.0
226075,1.057414,-1.11583,-2.918952,0.009127,0.10354,-0.030273,0.0,7.0,52.0,161.0,24.0,0.0
226076,1.097019,-1.134953,-2.891754,-0.134181,-0.256093,0.054742999999999986,0.0,7.0,52.0,161.0,24.0,0.0
226077,1.139732,-1.156928,-2.862015,-0.205795,-0.422957,-0.023962,0.0,7.0,52.0,161.0,24.0,0.0
226078,1.180097,-1.175296,-2.832385,-0.345376,-0.787062,-0.002991,0.0,7.0,52.0,161.0,24.0,0.0
226079,1.22067,-1.186854,-2.801854,-0.5946520000000001,-1.112757,-0.132617,0.0,7.0,52.0,161.0,24.0,0.0
226080,1.271702,-1.190897,-2.762581,-0.5733729999999999,-1.135337,-0.150357,0.0,7.0,52.0,161.0,24.0,0.0
226081,1.312249,-1.187561,-2.730541,-0.204405,-1.079453,-0.100664,0.0,7.0,52.0,161.0,24.0,0.0
226082,1.321495,-1.177203,-2.720171,-0.210093,-1.045165,0.050257,0.0,7.0,52.0,161.0,24.0,0.0
226083,1.324788,-1.16503,-2.710128,-0.346844,-0.505684,0.226309,0.0,7.0,52.0,161.0,24.0,0.0
226084,1.311404,-1.15868,-2.696469,0.402628,1.081558,0.332146,0.0,7.0,52.0,161.0,24.0,0.0
226085,1.271268,-1.145769,-2.712177,1.28611,2.008177,-0.023952,0.0,7.0,52.0,161.0,24.0,0.0
226086,1.307755,-1.141252,-2.655912,1.143795,1.083505,-0.22575100000000006,0.0,7.0,52.0,161.0,24.0,0.0
226087,1.342799,-1.14111,-2.601286,-0.823317,-0.188012,0.090109,0.0,7.0,52.0,161.0,24.0,0.0
226088,1.313903,-1.132566,-2.632074,0.160554,1.548765,-0.671795,0.0,7.0,52.0,161.0,24.0,0.0
226089,1.2631059999999998,-1.138416,-2.693826,1.072598,1.582141,-1.0429620000000002,0.0,7.0,52.0,161.0,24.0,0.0
226090,1.237177,-1.150594,-2.720129,0.6533479999999999,-0.404996,-0.12524100000000002,0.0,7.0,52.0,161.0,24.0,0.0
226091,1.226953,-1.1447200000000002,-2.733289,0.606524,-0.508297,0.093937,0.0,7.0,52.0,161.0,24.0,0.0
226092,1.225227,-1.133767,-2.730024,0.37992,-0.160987,0.08984600000000001,0.0,7.0,52.0,161.0,24.0,0.0
226093,1.21948,-1.131472,-2.71881,-0.05429,0.13445,-0.16783399999999998,0.0,7.0,52.0,161.0,24.0,0.0
226094,1.196324,-1.133685,-2.726477,-0.383554,-0.094363,0.16684200000000002,0.0,7.0,52.0,161.0,24.0,0.0
226095,1.159803,-1.138436,-2.755834,-0.450425,-0.343801,0.186604,0.0,7.0,52.0,161.0,24.0,0.0
226096,1.113856,-1.140027,-2.800253,-0.428218,-0.591094,0.191866,0.0,7.0,52.0,161.0,24.0,0.0
226097,1.053382,-1.140415,-2.855929,-0.184296,-0.007943,0.124401,0.0,7.0,52.0,161.0,24.0,0.0
226098,0.985249,-1.135206,-2.922684,-0.092263,0.319392,0.090781,0.0,7.0,52.0,161.0,24.0,0.0
226099,0.927544,-1.123545,-2.993058,0.327777,0.924136,0.105584,0.0,7.0,52.0,161.0,24.0,0.0
226100,0.907799,-1.11277,-3.018769,0.242198,0.609604,-0.12372,0.0,7.0,52.0,161.0,24.0,0.0
226101,0.917127,-1.0999450000000002,-2.998958,0.245693,0.609901,-0.223052,0.0,7.0,52.0,161.0,24.0,0.0
226102,0.931587,-1.082719,-2.974625,0.263624,0.763401,-0.34087399999999995,0.0,7.0,52.0,161.0,24.0,0.0
226103,0.941964,-1.070213,-2.958475,0.127617,0.414262,-0.314332,0.0,7.0,52.0,161.0,24.0,0.0
226104,0.943353,-1.062237,-2.9497150000000003,0.115576,0.08036499999999999,-0.182812,0.0,7.0,52.0,161.0,24.0,0.0
226105,0.9504,-1.059937,-2.931322,0.087143,-0.492045,0.157306,0.0,7.0,52.0,161.0,24.0,0.0
226106,0.968948,-1.069006,-2.901574,-0.306207,-0.231917,0.173221,0.0,7.0,52.0,161.0,24.0,0.0
226107,0.992782,-1.084648,-2.864736,-0.301048,-0.239333,0.15617,0.0,7.0,52.0,161.0,24.0,0.0
226108,1.020134,-1.105407,-2.829964,-0.407177,-0.24144,0.01737,0.0,7.0,52.0,161.0,24.0,0.0
226109,1.049681,-1.127003,-2.801914,-0.375939,-0.417488,0.014132,0.0,7.0,52.0,161.0,24.0,0.0
226110,1.080394,-1.145976,-2.779367,-0.324265,-0.705669,-0.000949,0.0,7.0,52.0,161.0,24.0,0.0
226111,1.109625,-1.16266,-2.7617830000000003,-0.335985,-0.849152,0.032059,0.0,7.0,52.0,161.0,24.0,0.0
226112,1.144542,-1.1767299999999998,-2.742794,-0.397123,-0.6949770000000001,0.037625,0.0,7.0,52.0,161.0,24.0,0.0
226113,1.176224,-1.189835,-2.730859,-0.394772,-0.188073,0.047336,0.0,7.0,52.0,161.0,24.0,0.0
226114,1.190648,-1.194305,-2.742039,-0.303585,0.091097,-0.016849,0.0,7.0,52.0,161.0,24.0,0.0
226115,1.210604,-1.185218,-2.745232,0.013016,-0.427069,0.08948400000000001,0.0,7.0,52.0,161.0,24.0,0.0
226116,1.242823,-1.1739540000000002,-2.729392,-0.014496,-0.8957809999999999,0.12283,0.0,7.0,52.0,161.0,24.0,0.0
226117,1.278177,-1.164006,-2.698863,-0.236967,-0.907775,-0.054226,0.0,7.0,52.0,161.0,24.0,0.0
226118,1.296978,-1.156085,-2.664409,-0.404058,-0.391704,0.006453,0.0,7.0,52.0,161.0,24.0,0.0
226119,1.284687,-1.146629,-2.663204,0.3476,0.5944159999999999,0.217232,0.0,7.0,52.0,161.0,24.0,0.0
226120,1.245621,-1.133351,-2.666244,1.921051,1.830323,-0.244387,0.0,7.0,52.0,161.0,24.0,0.0
226121,1.283241,-1.137435,-2.598166,-0.291246,0.396899,-0.095621,0.0,7.0,52.0,161.0,24.0,0.0
226122,1.320718,-1.142152,-2.553053,-0.5273869999999999,0.258011,-0.006246,0.0,7.0,52.0,161.0,24.0,0.0
226123,1.289101,-1.138723,-2.589885,-0.06825,1.482144,0.212132,0.0,7.0,52.0,161.0,24.0,0.0
226124,1.263479,-1.144179,-2.620518,0.4558430000000001,0.294723,-0.331363,0.0,7.0,52.0,161.0,24.0,0.0
226125,1.256893,-1.1448120000000002,-2.624868,0.336955,-0.143299,-0.154417,0.0,7.0,52.0,161.0,24.0,0.0
226126,1.27073,-1.1417620000000002,-2.621245,0.133448,-0.24303200000000005,-0.023793,0.0,7.0,52.0,161.0,24.0,0.0
226127,1.302982,-1.142634,-2.593405,0.074836,-0.059175,-0.06488,0.0,7.0,52.0,161.0,24.0,0.0
226128,1.307026,-1.148409,-2.588885,-0.224739,0.038235000000000005,-0.118714,0.0,7.0,52.0,161.0,24.0,0.0
226129,1.286758,-1.1531,-2.612538,-0.068218,-0.300989,-0.08735,0.0,7.0,52.0,161.0,24.0,0.0
226130,1.267735,-1.156196,-2.639484,0.00146,-0.446955,-0.118666,0.0,7.0,52.0,161.0,24.0,0.0
226131,1.243379,-1.154756,-2.6760330000000003,-0.015713,-0.644662,-0.093443,0.0,7.0,52.0,161.0,24.0,0.0
226132,1.215757,-1.154173,-2.709106,-0.004605,-0.737276,0.224771,0.0,7.0,52.0,161.0,24.0,0.0
226133,1.194984,-1.15589,-2.726217,-0.133426,-0.614846,0.217183,0.0,7.0,52.0,161.0,24.0,0.0
226134,1.175824,-1.157315,-2.7377130000000003,-0.149581,-0.487764,0.265616,0.0,7.0,52.0,161.0,24.0,0.0
226135,1.147018,-1.156726,-2.761419,-0.219518,-0.389276,0.127697,0.0,7.0,52.0,161.0,24.0,0.0
226136,1.113219,-1.155043,-2.791837,-0.288099,-0.249773,0.175938,0.0,7.0,52.0,161.0,24.0,0.0
226137,1.07057,-1.147673,-2.833279,-0.338712,-0.113868,0.096246,0.0,7.0,52.0,161.0,24.0,0.0
226138,1.021005,-1.127583,-2.894842,-0.198311,0.804996,0.001984,0.0,7.0,52.0,161.0,24.0,0.0
226139,0.978071,-1.098058,-2.967301,0.16989400000000002,0.74322,-0.06496299999999999,0.0,7.0,52.0,161.0,24.0,0.0
226140,0.960683,-1.083156,-2.997453,0.139707,0.45123,-0.133382,0.0,7.0,52.0,161.0,24.0,0.0
226141,0.947723,-1.073777,-2.99511,0.454605,0.5567989999999999,-0.4885640000000001,0.0,7.0,52.0,161.0,24.0,0.0
226142,0.928432,-1.056463,-3.003011,0.424233,1.216232,-0.451381,0.0,7.0,52.0,161.0,24.0,0.0
226143,0.923868,-1.047644,-3.009668,0.238135,1.193032,-0.428338,0.0,7.0,52.0,161.0,24.0,0.0
226144,0.925165,-1.050581,-3.008425,-0.120375,0.110392,-0.444242,0.0,7.0,52.0,161.0,24.0,0.0
226145,0.928149,-1.05784,-2.9982580000000003,-0.117143,-0.133077,-0.278053,0.0,7.0,52.0,161.0,24.0,0.0
226146,0.933075,-1.073695,-2.991525,-0.114381,-0.077073,-0.24772600000000006,0.0,7.0,52.0,161.0,24.0,0.0
226147,0.941104,-1.097479,-2.983086,-0.086017,-0.162598,-0.090686,0.0,7.0,52.0,161.0,24.0,0.0
226148,0.950997,-1.125267,-2.971808,-0.007345,-0.299477,-0.016984,0.0,7.0,52.0,161.0,24.0,0.0
226149,0.957767,-1.155388,-2.956629,-0.008828,-0.400151,0.007686,0.0,7.0,52.0,161.0,24.0,0.0
226150,0.972437,-1.188621,-2.9264,-0.146865,-0.4209890000000001,0.035571,0.0,7.0,52.0,161.0,24.0,0.0
226151,1.006162,-1.220007,-2.883157,-0.219487,-0.324707,-0.056827,0.0,7.0,52.0,161.0,24.0,0.0
226152,1.046314,-1.243503,-2.840661,-0.25692,-0.290071,-0.16706600000000002,0.0,7.0,52.0,161.0,24.0,0.0
226153,1.086763,-1.2571370000000002,-2.803389,-0.252417,-0.31647600000000004,-0.190193,0.0,7.0,52.0,161.0,24.0,0.0
226154,1.124771,-1.264437,-2.770925,-0.273725,-0.306282,-0.211699,0.0,7.0,52.0,161.0,24.0,0.0
226155,1.161766,-1.268308,-2.741453,-0.277861,-0.206872,-0.247566,0.0,7.0,52.0,161.0,24.0,0.0
226156,1.185814,-1.27019,-2.727691,-0.289522,0.002912,-0.29577,0.0,7.0,52.0,161.0,24.0,0.0
226157,1.190134,-1.272417,-2.733754,-0.317902,0.236904,-0.283312,0.0,7.0,52.0,161.0,24.0,0.0
226158,1.184561,-1.275798,-2.750098,-0.216362,0.119278,-0.287498,0.0,7.0,52.0,161.0,24.0,0.0
226159,1.17696,-1.277487,-2.773097,-0.08228400000000001,-0.267641,-0.365955,0.0,7.0,52.0,161.0,24.0,0.0
226160,1.167985,-1.275388,-2.797473,-0.003246,-0.66904,-0.329817,0.0,7.0,52.0,161.0,24.0,0.0
226161,1.152074,-1.2712450000000002,-2.82084,0.047459,-0.787119,-0.179673,0.0,7.0,52.0,161.0,24.0,0.0
226162,1.122414,-1.267948,-2.839843,-0.040952,-0.669976,0.455336,0.0,7.0,52.0,161.0,24.0,0.0
226163,1.059951,-1.26042,-2.871371,-0.050629,0.008505,0.505305,0.0,7.0,52.0,161.0,24.0,0.0
226164,0.964457,-1.250876,-2.942167,0.579996,1.809193,0.931331,0.0,7.0,52.0,161.0,24.0,0.0
226165,0.938229,-1.2464879999999998,-2.99139,0.955633,1.122182,0.466142,0.0,7.0,52.0,161.0,24.0,0.0
226166,0.967961,-1.235615,-2.9823880000000003,0.335853,-0.09111,-0.057751,0.0,7.0,52.0,161.0,24.0,0.0
226167,0.977986,-1.210591,-2.9862330000000004,0.505034,-0.028903,0.012515,0.0,7.0,52.0,161.0,24.0,0.0
226168,0.980974,-1.191614,-2.98044,0.506678,0.829989,-0.124436,0.0,7.0,52.0,161.0,24.0,0.0
226169,0.996261,-1.192325,-2.965353,0.657243,0.685546,-0.235936,0.0,7.0,52.0,161.0,24.0,0.0
226170,1.030112,-1.200183,-2.940296,0.593176,0.429147,-0.262733,0.0,7.0,52.0,161.0,24.0,0.0
226171,1.081241,-1.207545,-2.896088,0.441317,0.14946700000000002,-0.220325,0.0,7.0,52.0,161.0,24.0,0.0
226172,1.142192,-1.219052,-2.833821,0.099107,-0.024024,-0.128661,0.0,7.0,52.0,161.0,24.0,0.0
226173,1.209692,-1.234481,-2.758498,0.045221,-0.108482,-0.094692,0.0,7.0,52.0,161.0,24.0,0.0
226174,1.279932,-1.246717,-2.680718,-0.048139,-0.25908600000000004,0.086823,0.0,7.0,52.0,161.0,24.0,0.0
226175,1.352342,-1.257487,-2.603189,-0.183486,-0.396906,0.168226,0.0,7.0,52.0,161.0,24.0,0.0
226176,1.427248,-1.27211,-2.5251,-0.14946800000000002,-0.346608,0.097113,0.0,7.0,52.0,161.0,24.0,0.0
226177,1.473217,-1.287027,-2.483942,-0.057083,-0.311707,-0.005855,0.0,7.0,52.0,161.0,24.0,0.0
226178,1.490459,-1.299649,-2.473953,0.006135,-0.668908,-0.047846,0.0,7.0,52.0,161.0,24.0,0.0
226179,1.511929,-1.310821,-2.458821,0.033725,-0.676708,-0.034684,0.0,7.0,52.0,161.0,24.0,0.0
226180,1.53526,-1.321499,-2.442307,0.103144,-0.137879,-0.248316,0.0,7.0,52.0,161.0,24.0,0.0
226181,1.546989,-1.32996,-2.437092,0.206343,0.090995,-0.28475900000000004,0.0,7.0,52.0,161.0,24.0,0.0
226182,1.5347,-1.335828,-2.454197,0.531559,0.118207,-0.224541,0.0,7.0,52.0,161.0,24.0,0.0
226183,1.512903,-1.340335,-2.476612,0.324187,-0.158208,-0.243195,0.0,7.0,52.0,161.0,24.0,0.0
226184,1.492073,-1.351564,-2.489965,0.278129,-0.162024,-0.09777,0.0,7.0,52.0,161.0,24.0,0.0
226185,1.471324,-1.365164,-2.49706,0.289352,-0.052479,0.028282,0.0,7.0,52.0,161.0,24.0,0.0
226186,1.424435,-1.372547,-2.5219080000000003,0.112182,0.02331,0.207562,0.0,7.0,52.0,161.0,24.0,0.0
226187,1.343182,-1.370069,-2.582436,0.099085,-0.0013449999999999998,0.207223,0.0,7.0,52.0,161.0,24.0,0.0
226188,1.222728,-1.356471,-2.6722360000000003,0.493011,0.536933,0.406767,0.0,7.0,52.0,161.0,24.0,0.0
226189,1.08221,-1.331122,-2.778963,0.430175,0.609059,0.26623,0.0,7.0,52.0,161.0,24.0,0.0
226190,1.011993,-1.299231,-2.826167,0.200061,0.363399,0.037513,0.0,7.0,52.0,161.0,24.0,0.0
226191,0.984654,-1.270697,-2.831301,0.143273,0.261429,-0.18515,0.0,7.0,52.0,161.0,24.0,0.0
226192,0.950763,-1.247135,-2.833586,0.224665,0.352383,-0.027836,0.0,7.0,52.0,161.0,24.0,0.0
226193,0.903364,-1.227869,-2.839897,0.404117,0.227628,0.038611,0.0,7.0,52.0,161.0,24.0,0.0
226194,0.866511,-1.214739,-2.821861,0.349994,0.051186,0.086263,0.0,7.0,52.0,161.0,24.0,0.0
226195,0.840133,-1.207045,-2.782449,0.118177,-0.070631,0.090352,0.0,7.0,52.0,161.0,24.0,0.0
226196,0.82725,-1.200866,-2.72756,-0.020699,-0.172678,0.096506,0.0,7.0,52.0,161.0,24.0,0.0
226197,0.8242879999999999,-1.1940620000000002,-2.658278,-0.135876,-0.293106,0.135684,0.0,7.0,52.0,161.0,24.0,0.0
226198,0.8196450000000001,-1.18871,-2.583539,-0.07412300000000001,-0.317049,0.209664,0.0,7.0,52.0,161.0,24.0,0.0
226199,0.812873,-1.186418,-2.515854,0.069953,-0.229766,0.240721,0.0,7.0,52.0,161.0,24.0,0.0
226200,0.801908,-1.18579,-2.4627950000000003,0.075063,-0.124794,0.20157,0.0,7.0,52.0,161.0,24.0,0.0
226201,0.78943,-1.187994,-2.416089,0.015903999999999998,-0.191415,0.216311,0.0,7.0,52.0,161.0,24.0,0.0
226202,0.779751,-1.194169,-2.369771,-0.051525,-0.241525,0.16666,0.0,7.0,52.0,161.0,24.0,0.0
226203,0.7762140000000001,-1.201875,-2.323909,-0.058677,-0.227959,0.11101400000000003,0.0,7.0,52.0,161.0,24.0,0.0
226204,0.781287,-1.210452,-2.276829,-0.004425,-0.181976,0.035497,0.0,7.0,52.0,161.0,24.0,0.0
226205,0.794746,-1.221811,-2.227547,0.060379,-0.226067,-0.092884,0.0,7.0,52.0,161.0,24.0,0.0
226206,0.811699,-1.234873,-2.17769,0.10477,-0.244979,-0.158364,0.0,7.0,52.0,161.0,24.0,0.0
226207,0.8248110000000001,-1.247348,-2.131198,0.22277600000000006,-0.201685,-0.173666,0.0,7.0,52.0,161.0,24.0,0.0
226208,0.8294889999999999,-1.256393,-2.09063,0.29323,-0.033652999999999995,-0.215,0.0,7.0,52.0,161.0,24.0,0.0
226209,0.8280790000000001,-1.258957,-2.056439,0.302829,0.025921,-0.197073,0.0,7.0,52.0,161.0,24.0,0.0
226210,0.8297559999999999,-1.252378,-2.0218990000000003,0.263579,0.15808699999999998,-0.186911,0.0,7.0,52.0,161.0,24.0,0.0
226211,0.831641,-1.239318,-1.984763,0.198416,0.245523,-0.168923,0.0,7.0,52.0,161.0,24.0,0.0
226212,0.8187439999999999,-1.21823,-1.962146,0.35038800000000003,0.5190600000000001,0.003068,0.0,7.0,52.0,161.0,24.0,0.0
226213,0.8232450000000001,-1.196562,-1.928173,0.373523,0.222883,0.123549,0.0,7.0,52.0,161.0,24.0,0.0
226214,0.866094,-1.184402,-1.85742,-0.044786,-0.099125,0.284345,0.0,7.0,52.0,161.0,24.0,0.0
226215,0.893135,-1.182341,-1.788668,-0.030474,-0.156315,0.142895,0.0,7.0,52.0,161.0,24.0,0.0
226216,0.886792,-1.191706,-1.747989,0.35791100000000003,-0.259522,0.25716300000000003,0.0,7.0,52.0,161.0,24.0,0.0
226217,0.869809,-1.199712,-1.718113,0.508745,-0.023899,0.4426810000000001,0.0,7.0,52.0,161.0,24.0,0.0
226218,0.8970459999999999,-1.206659,-1.653845,0.424554,0.114397,0.410967,0.0,7.0,52.0,161.0,24.0,0.0
226219,0.964114,-1.214382,-1.55766,0.156127,0.324428,0.245514,0.0,7.0,52.0,161.0,24.0,0.0
226220,1.036056,-1.220634,-1.448307,0.281346,0.224394,0.263811,0.0,7.0,52.0,161.0,24.0,0.0
226221,1.095875,-1.231157,-1.345353,0.271688,0.17310699999999998,0.294136,0.0,7.0,52.0,161.0,24.0,0.0
226222,1.1566,-1.246358,-1.25314,0.036174,0.166489,0.190441,0.0,7.0,52.0,161.0,24.0,0.0
226223,1.2117950000000002,-1.262186,-1.176115,-0.034604,0.108645,0.07737100000000001,0.0,7.0,52.0,161.0,24.0,0.0
226224,1.255372,-1.274948,-1.1157700000000002,-0.115594,-0.102261,-0.037408,0.0,7.0,52.0,161.0,24.0,0.0
226225,1.295215,-1.283153,-1.055532,-0.016715999999999998,-0.353645,0.010089,0.0,7.0,52.0,161.0,24.0,0.0
226226,1.351989,-1.285574,-0.973785,-0.052156,-0.523671,0.095367,0.0,7.0,52.0,161.0,24.0,0.0
226227,1.423237,-1.285561,-0.877856,-0.07666,-0.570466,0.091091,0.0,7.0,52.0,161.0,24.0,0.0
226228,1.499739,-1.288354,-0.776705,0.071983,-0.296117,0.005944,0.0,7.0,52.0,161.0,24.0,0.0
226229,1.570741,-1.2925879999999998,-0.682077,0.143422,-0.16708499999999998,0.045883,0.0,7.0,52.0,161.0,24.0,0.0
226230,1.6427759999999998,-1.2961790000000002,-0.590679,0.106915,-0.114171,0.054629,0.0,7.0,52.0,161.0,24.0,0.0
226231,1.713674,-1.30167,-0.5061720000000001,-0.196913,0.092088,-0.010478,0.0,7.0,52.0,161.0,24.0,0.0
226232,1.7765,-1.311751,-0.441315,-0.177745,0.255854,-0.129839,0.0,7.0,52.0,161.0,24.0,0.0
226233,1.811965,-1.324866,-0.4198770000000001,0.02978,0.314192,-0.198482,0.0,7.0,52.0,161.0,24.0,0.0
226234,1.829734,-1.335574,-0.421737,0.665295,0.08756599999999999,-0.271969,0.0,7.0,52.0,161.0,24.0,0.0
226235,1.835626,-1.340328,-0.425399,0.787076,-0.026874,-0.273457,0.0,7.0,52.0,161.0,24.0,0.0
226236,1.834432,-1.338234,-0.426242,0.7364970000000001,-0.067302,-0.262937,0.0,7.0,52.0,161.0,24.0,0.0
226237,1.819624,-1.329508,-0.4280390000000001,0.485954,-0.074638,-0.046913,0.0,7.0,52.0,161.0,24.0,0.0
226238,1.7797470000000002,-1.317158,-0.441,0.180587,-0.113178,-0.038839,0.0,7.0,52.0,161.0,24.0,0.0
226239,1.7223389999999998,-1.303856,-0.46146,0.157683,-0.079603,0.111845,0.0,7.0,52.0,161.0,24.0,0.0
226240,1.629307,-1.29092,-0.501834,0.462986,0.157303,0.306833,0.0,7.0,52.0,161.0,24.0,0.0
226241,1.506042,-1.275,-0.560945,0.306527,0.431201,0.328414,0.0,7.0,52.0,161.0,24.0,0.0
226242,1.411702,-1.255891,-0.6014010000000001,-0.026305,0.54742,0.31493000000000004,0.0,7.0,52.0,161.0,24.0,0.0
226243,1.338604,-1.23832,-0.631546,-0.27910100000000004,0.625747,0.17586400000000002,0.0,7.0,52.0,161.0,24.0,0.0
226244,1.265652,-1.224363,-0.677312,-0.33081,0.473793,0.117013,0.0,7.0,52.0,161.0,24.0,0.0
226245,1.193704,-1.212298,-0.726876,-0.034158,0.212119,0.13202,0.0,7.0,52.0,161.0,24.0,0.0
226246,1.134753,-1.199805,-0.75124,0.15544000000000002,0.023125,0.107207,0.0,7.0,52.0,161.0,24.0,0.0
226247,1.092188,-1.187536,-0.753218,0.16212100000000002,-0.060126,0.056297,0.0,7.0,52.0,161.0,24.0,0.0
226248,1.05736,-1.177915,-0.742799,0.033042,-0.13860799999999998,0.025295,0.0,7.0,52.0,161.0,24.0,0.0
226249,1.0235459999999998,-1.170843,-0.727738,-0.095835,-0.131254,0.078385,0.0,7.0,52.0,161.0,24.0,0.0
226250,0.989338,-1.165635,-0.7145100000000001,-0.201725,-0.327608,0.238083,0.0,7.0,52.0,161.0,24.0,0.0
226251,0.961109,-1.163732,-0.696701,-0.190539,-0.421781,0.224735,0.0,7.0,52.0,161.0,24.0,0.0
226252,0.943293,-1.166243,-0.675205,-0.240947,-0.5598420000000001,0.185517,0.0,7.0,52.0,161.0,24.0,0.0
226253,0.932513,-1.171126,-0.655493,-0.242153,-0.455247,0.113156,0.0,7.0,52.0,161.0,24.0,0.0
226254,0.925812,-1.175419,-0.6379,-0.177508,-0.263748,-0.0743,0.0,7.0,52.0,161.0,24.0,0.0
226255,0.917712,-1.178073,-0.6257149999999999,-0.08552699999999999,-0.139584,-0.201706,0.0,7.0,52.0,161.0,24.0,0.0
226256,0.902468,-1.177486,-0.623458,-0.023962,-0.029267,-0.131838,0.0,7.0,52.0,161.0,24.0,0.0
226257,0.88984,-1.1780389999999998,-0.619009,0.01051,0.006288,-0.140344,0.0,7.0,52.0,161.0,24.0,0.0
226258,0.876287,-1.18134,-0.612809,0.069858,0.176828,-0.088607,0.0,7.0,52.0,161.0,24.0,0.0
226259,0.865108,-1.184799,-0.603222,0.007144,0.31495500000000004,-0.13960799999999998,0.0,7.0,52.0,161.0,24.0,0.0
226260,0.876648,-1.181969,-0.579129,-0.01514,0.166962,-0.12186,0.0,7.0,52.0,161.0,24.0,0.0
226261,0.8986139999999999,-1.171119,-0.550589,-0.09748,0.050768,0.013266,0.0,7.0,52.0,161.0,24.0,0.0
226262,0.917048,-1.154894,-0.527664,-0.11881400000000003,0.158093,0.163644,0.0,7.0,52.0,161.0,24.0,0.0
226263,0.927263,-1.142966,-0.5103800000000001,-0.083642,0.224226,0.191773,0.0,7.0,52.0,161.0,24.0,0.0
226264,0.900907,-1.139604,-0.513659,0.082441,0.674006,0.444396,0.0,7.0,52.0,161.0,24.0,0.0
226265,0.8723360000000001,-1.146327,-0.5197729999999999,0.6391680000000001,0.411512,0.194786,0.0,7.0,52.0,161.0,24.0,0.0
226266,0.8730450000000001,-1.153902,-0.505708,0.616614,-0.119795,0.141612,0.0,7.0,52.0,161.0,24.0,0.0
226267,0.89451,-1.152037,-0.470565,0.150804,-0.4658560000000001,0.169957,0.0,7.0,52.0,161.0,24.0,0.0
226268,0.930671,-1.147548,-0.421243,-0.029658,-0.31952,0.14771199999999998,0.0,7.0,52.0,161.0,24.0,0.0
226269,0.958153,-1.150109,-0.383908,0.22610500000000006,0.200763,-0.034071,0.0,7.0,52.0,161.0,24.0,0.0
226270,0.976108,-1.1670280000000002,-0.354711,0.442121,0.40573,0.111073,0.0,7.0,52.0,161.0,24.0,0.0
226271,1.011818,-1.178148,-0.31062199999999995,0.326279,-0.035257,0.140464,0.0,7.0,52.0,161.0,24.0,0.0
226272,1.066369,-1.178369,-0.248843,0.033651,-0.310702,0.165697,0.0,7.0,52.0,161.0,24.0,0.0
226273,1.125083,-1.181083,-0.176702,-0.1001,-0.315857,0.094435,0.0,7.0,52.0,161.0,24.0,0.0
226274,1.181136,-1.193953,-0.100774,-0.106269,-0.250799,0.038793,0.0,7.0,52.0,161.0,24.0,0.0
226275,1.217694,-1.207727,-0.046191,0.033729,-0.026761,-0.006625,0.0,7.0,52.0,161.0,24.0,0.0
226276,1.241309,-1.213436,-0.010534,0.113096,-0.226451,0.170573,0.0,7.0,52.0,161.0,24.0,0.0
226277,1.275473,-1.214043,0.037279,0.079634,-0.24253200000000005,0.165293,0.0,7.0,52.0,161.0,24.0,0.0
226278,1.318289,-1.215218,0.095206,0.054119000000000014,-0.163657,0.120382,0.0,7.0,52.0,161.0,24.0,0.0
226279,1.3482610000000002,-1.218692,0.140676,-0.039669,0.191813,-0.054036,0.0,7.0,52.0,161.0,24.0,0.0
226280,1.345796,-1.219353,0.151828,0.068012,0.131695,-0.118424,0.0,7.0,52.0,161.0,24.0,0.0
226281,1.323064,-1.215992,0.138025,0.13131600000000002,0.029006,-0.106901,0.0,7.0,52.0,161.0,24.0,0.0
226282,1.29554,-1.211438,0.121468,0.263592,-0.078701,0.042197000000000005,0.0,7.0,52.0,161.0,24.0,0.0
226283,1.260298,-1.206918,0.103319,0.218953,-0.17849600000000002,0.210291,0.0,7.0,52.0,161.0,24.0,0.0
226284,1.202191,-1.203467,0.07319400000000001,0.1623,-0.196061,0.274542,0.0,7.0,52.0,161.0,24.0,0.0
226285,1.112171,-1.202375,0.021762,-0.177464,-0.179037,0.321825,0.0,7.0,52.0,161.0,24.0,0.0
226286,1.005747,-1.1978879999999998,-0.038537,-0.238546,0.372485,0.331629,0.0,7.0,52.0,161.0,24.0,0.0
226287,0.911766,-1.183586,-0.094421,-0.14266900000000002,0.6195510000000001,0.267876,0.0,7.0,52.0,161.0,24.0,0.0
226288,0.8696510000000001,-1.161826,-0.138502,0.198636,0.373469,-0.004717,0.0,7.0,52.0,161.0,24.0,0.0
226289,0.8486030000000001,-1.137385,-0.16244,0.25821,0.148797,-0.138907,0.0,7.0,52.0,161.0,24.0,0.0
226290,0.825699,-1.11696,-0.165024,0.22225100000000006,0.101823,-0.054389,0.0,7.0,52.0,161.0,24.0,0.0
226291,0.80814,-1.097207,-0.153585,0.23591,0.197267,0.004413,0.0,7.0,52.0,161.0,24.0,0.0
226292,0.798456,-1.077709,-0.135088,0.063691,0.271056,0.079851,0.0,7.0,52.0,161.0,24.0,0.0
226293,0.798365,-1.06308,-0.109361,-0.032509,0.143996,0.097675,0.0,7.0,52.0,161.0,24.0,0.0
226294,0.80509,-1.055314,-0.077888,-0.038886,-0.038375,0.12646300000000002,0.0,7.0,52.0,161.0,24.0,0.0
226295,0.817303,-1.052697,-0.040459,0.021929,-0.212863,0.152905,0.0,7.0,52.0,161.0,24.0,0.0
226296,0.834209,-1.054418,0.001822,0.017697,-0.370529,0.21287,0.0,7.0,52.0,161.0,24.0,0.0
226297,0.8560719999999999,-1.061211,0.047382,-0.143245,-0.492789,0.204028,0.0,7.0,52.0,161.0,24.0,0.0
226298,0.8768950000000001,-1.072568,0.08558500000000001,-0.365885,-0.4550300000000001,0.208131,0.0,7.0,52.0,161.0,24.0,0.0
226299,0.8943760000000001,-1.083308,0.11538,-0.356528,-0.310636,0.158431,0.0,7.0,52.0,161.0,24.0,0.0
226300,0.909569,-1.094761,0.137968,-0.339472,-0.384683,0.091363,0.0,7.0,52.0,161.0,24.0,0.0
226301,0.929473,-1.107732,0.158813,-0.23661,-0.517323,0.061641,0.0,7.0,52.0,161.0,24.0,0.0
226302,0.955038,-1.119725,0.179392,-0.163218,-0.499224,0.057174,0.0,7.0,52.0,161.0,24.0,0.0
226303,0.983731,-1.129219,0.197031,-0.192552,-0.467372,-0.02992,0.0,7.0,52.0,161.0,24.0,0.0
226304,1.007997,-1.135856,0.205937,-0.279929,-0.3942,0.082179,0.0,7.0,52.0,161.0,24.0,0.0
226305,1.023404,-1.137879,0.203026,-0.302962,-0.172425,0.167931,0.0,7.0,52.0,161.0,24.0,0.0
226306,1.054001,-1.137051,0.210187,-0.193214,0.140789,0.166458,0.0,7.0,52.0,161.0,24.0,0.0
226307,1.106487,-1.133038,0.237909,-0.261529,-0.276646,0.098203,0.0,7.0,52.0,161.0,24.0,0.0
226308,1.146307,-1.129708,0.263273,-0.29028400000000004,-0.286032,0.09449,0.0,7.0,52.0,161.0,24.0,0.0
226309,1.152406,-1.124004,0.269516,-0.080694,-0.1909,0.054962,0.0,7.0,52.0,161.0,24.0,0.0
226310,1.120004,-1.116234,0.252856,0.8087810000000001,0.485046,0.235898,0.0,7.0,52.0,161.0,24.0,0.0
226311,1.081332,-1.111493,0.246095,0.802874,1.028489,0.364775,0.0,7.0,52.0,161.0,24.0,0.0
226312,1.109366,-1.115417,0.290897,0.092499,1.240166,0.15420599999999998,0.0,7.0,52.0,161.0,24.0,0.0
226313,1.095793,-1.112898,0.28813,0.141644,1.736332,0.228956,0.0,7.0,52.0,161.0,24.0,0.0
226314,1.10302,-1.114731,0.278368,0.021559,-0.462734,-0.548755,0.0,7.0,52.0,161.0,24.0,0.0
226315,1.080072,-1.11078,0.261358,0.188361,-0.7527189999999999,-0.021806,0.0,7.0,52.0,161.0,24.0,0.0
226316,1.056206,-1.10415,0.250066,0.381662,-0.30638200000000004,0.124491,0.0,7.0,52.0,161.0,24.0,0.0
226317,1.069446,-1.109942,0.290273,0.274391,0.82178,-0.025063,0.0,7.0,52.0,161.0,24.0,0.0
226318,1.078134,-1.123861,0.301309,0.024447,0.769672,-0.097411,0.0,7.0,52.0,161.0,24.0,0.0
226319,1.096853,-1.131956,0.315136,0.12645399999999998,0.185621,-0.113024,0.0,7.0,52.0,161.0,24.0,0.0
226320,1.11119,-1.129834,0.328538,0.158369,-0.737746,-0.206907,0.0,7.0,52.0,161.0,24.0,0.0
226321,1.113808,-1.120744,0.328796,0.029374,-0.59296,0.02409,0.0,7.0,52.0,161.0,24.0,0.0
226322,1.111064,-1.117427,0.328284,0.011999,-0.490407,0.045634,0.0,7.0,52.0,161.0,24.0,0.0
226323,1.087612,-1.1275389999999998,0.313631,0.274475,0.182166,0.293959,0.0,7.0,52.0,161.0,24.0,0.0
226324,1.057933,-1.14091,0.299041,0.08753,-0.0878,0.135346,0.0,7.0,52.0,161.0,24.0,0.0
226325,1.0303129999999998,-1.146623,0.285132,-0.010853,-0.23334,0.150799,0.0,7.0,52.0,161.0,24.0,0.0
226326,0.999543,-1.143985,0.263842,-0.382246,-0.648404,0.134016,0.0,7.0,52.0,161.0,24.0,0.0
226327,0.962026,-1.138559,0.241408,-0.401931,-0.797542,0.28183600000000003,0.0,7.0,52.0,161.0,24.0,0.0
226328,0.909741,-1.129129,0.209592,-0.365231,-0.494677,0.37704,0.0,7.0,52.0,161.0,24.0,0.0
226329,0.858641,-1.111768,0.171543,-0.243194,0.35634,0.120713,0.0,7.0,52.0,161.0,24.0,0.0
226330,0.809635,-1.082094,0.125823,0.108825,1.270683,0.295388,0.0,7.0,52.0,161.0,24.0,0.0
226331,0.7931189999999999,-1.056702,0.094377,-0.088903,0.798924,0.062401,0.0,7.0,52.0,161.0,24.0,0.0
226332,0.812769,-1.043022,0.120402,-0.24449,0.367408,0.004586,0.0,7.0,52.0,161.0,24.0,0.0
226333,0.82837,-1.024746,0.16151300000000002,0.240672,0.15353499999999998,-0.006809,0.0,7.0,52.0,161.0,24.0,0.0
226334,0.835916,-1.007337,0.169094,0.143299,0.29451,-0.137663,0.0,7.0,52.0,161.0,24.0,0.0
226335,0.846582,-1.003657,0.16530999999999998,-0.032717,0.185642,-0.06030700000000001,0.0,7.0,52.0,161.0,24.0,0.0
226336,0.866875,-1.0061950000000002,0.174852,-0.149032,-0.08084,-0.034562,0.0,7.0,52.0,161.0,24.0,0.0
226337,0.8930870000000001,-1.013597,0.191776,-0.187052,0.118607,-0.054397,0.0,7.0,52.0,161.0,24.0,0.0
226338,0.912567,-1.0228,0.197099,-0.08884600000000001,0.21988600000000005,-0.085435,0.0,7.0,52.0,161.0,24.0,0.0
226339,0.935654,-1.035029,0.200779,0.057499,0.192796,-0.164299,0.0,7.0,52.0,161.0,24.0,0.0
226340,0.962004,-1.0519,0.203501,0.132743,0.136852,-0.356634,0.0,7.0,52.0,161.0,24.0,0.0
226341,0.991705,-1.069189,0.209864,0.082335,-0.049281,-0.276877,0.0,7.0,52.0,161.0,24.0,0.0
226342,1.02136,-1.084964,0.21629,-0.036902,-0.111902,-0.158652,0.0,7.0,52.0,161.0,24.0,0.0
226343,1.052175,-1.100184,0.220502,-0.227465,-0.088755,-0.059616,0.0,7.0,52.0,161.0,24.0,0.0
226344,1.071761,-1.115428,0.214815,-0.380764,-0.108212,0.066909,0.0,7.0,52.0,161.0,24.0,0.0
226345,1.093438,-1.126431,0.22599,-0.239425,-0.6592319999999999,0.207364,0.0,7.0,52.0,161.0,24.0,0.0
226346,1.129029,-1.135761,0.263304,-0.365027,-1.239741,0.22843400000000005,0.0,7.0,52.0,161.0,24.0,0.0
226347,1.175462,-1.139859,0.317294,-0.430199,-1.128698,0.194628,0.0,7.0,52.0,161.0,24.0,0.0
226348,1.214806,-1.13069,0.363598,-0.442541,-0.802854,0.013294,0.0,7.0,52.0,161.0,24.0,0.0
226349,1.211415,-1.1132879999999998,0.374226,-0.341768,-0.453034,0.198475,0.0,7.0,52.0,161.0,24.0,0.0
226350,1.1745450000000002,-1.098752,0.361929,0.377515,0.46701,0.27055300000000004,0.0,7.0,52.0,161.0,24.0,0.0
226351,1.162344,-1.087858,0.374879,1.293721,1.820664,0.110875,0.0,7.0,52.0,161.0,24.0,0.0
226352,1.200344,-1.090018,0.422721,0.025043,0.587638,0.066759,0.0,7.0,52.0,161.0,24.0,0.0
226353,1.2021879999999998,-1.086609,0.423559,-0.36471,0.594485,0.16606700000000002,0.0,7.0,52.0,161.0,24.0,0.0
226354,1.179593,-1.088938,0.379567,0.431915,0.501484,-0.6545270000000001,0.0,7.0,52.0,161.0,24.0,0.0
226355,1.138145,-1.101807,0.347472,0.487788,-0.073895,-0.407748,0.0,7.0,52.0,161.0,24.0,0.0
226356,1.104435,-1.099448,0.317483,0.813818,-0.081005,-0.14381300000000002,0.0,7.0,52.0,161.0,24.0,0.0
226357,1.094021,-1.0875780000000002,0.312413,0.563739,-0.064902,0.11731400000000003,0.0,7.0,52.0,161.0,24.0,0.0
226358,1.0851110000000002,-1.079754,0.312691,0.083817,0.048822,0.182347,0.0,7.0,52.0,161.0,24.0,0.0
226359,1.059847,-1.079031,0.299023,-0.354817,-0.116272,0.177208,0.0,7.0,52.0,161.0,24.0,0.0
226360,1.017255,-1.077655,0.259469,-0.500842,-0.253409,0.039548,0.0,7.0,52.0,161.0,24.0,0.0
226361,0.973939,-1.071475,0.214657,-0.42111,-0.491463,0.10733800000000003,0.0,7.0,52.0,161.0,24.0,0.0
226362,0.924698,-1.058731,0.171926,-0.194744,-0.5134890000000001,0.239159,0.0,7.0,52.0,161.0,24.0,0.0
226363,0.874734,-1.041436,0.12892,-0.083142,-0.305711,0.319235,0.0,7.0,52.0,161.0,24.0,0.0
226364,0.8435450000000001,-1.020397,0.095387,0.173992,0.7968689999999999,0.021107,0.0,7.0,52.0,161.0,24.0,0.0
226365,0.83904,-0.998739,0.077548,0.205866,1.042451,0.040471,0.0,7.0,52.0,161.0,24.0,0.0
226366,0.8502549999999999,-0.985824,0.087869,0.082197,0.377622,-0.010934,0.0,7.0,52.0,161.0,24.0,0.0
226367,0.8634649999999999,-0.975936,0.113703,0.136498,0.246694,-0.002272,0.0,7.0,52.0,161.0,24.0,0.0
226368,0.869741,-0.972054,0.133996,0.154869,0.285543,-0.057783,0.0,7.0,52.0,161.0,24.0,0.0
226369,0.881425,-0.975195,0.146922,0.024619,0.354013,-0.13156900000000002,0.0,7.0,52.0,161.0,24.0,0.0
226370,0.901245,-0.983242,0.15821400000000002,-0.0031620000000000003,0.190529,-0.131196,0.0,7.0,52.0,161.0,24.0,0.0
226371,0.921792,-0.994796,0.167517,-0.062627,-0.016596,-0.173118,0.0,7.0,52.0,161.0,24.0,0.0
226372,0.936165,-1.010823,0.178528,0.001107,-0.049158,0.00448,0.0,7.0,52.0,161.0,24.0,0.0
226373,0.946275,-1.031529,0.190017,2e-06,-0.06804600000000001,0.04313,0.0,7.0,52.0,161.0,24.0,0.0
226374,0.960401,-1.054005,0.201927,-0.195456,-0.072305,0.044397000000000006,0.0,7.0,52.0,161.0,24.0,0.0
226375,0.980424,-1.075673,0.213107,-0.304897,-0.021191,0.043292,0.0,7.0,52.0,161.0,24.0,0.0
226376,1.0061719999999998,-1.095642,0.222945,-0.345022,-0.065553,-0.054749,0.0,7.0,52.0,161.0,24.0,0.0
226377,1.032488,-1.114737,0.232115,-0.328545,-0.055235,-0.091528,0.0,7.0,52.0,161.0,24.0,0.0
226378,1.0478690000000002,-1.131717,0.232646,-0.043381,-0.372062,0.173702,0.0,7.0,52.0,161.0,24.0,0.0
226379,1.063246,-1.139008,0.23593000000000006,-0.056723,-0.632965,0.255896,0.0,7.0,52.0,161.0,24.0,0.0
226380,1.0857,-1.136786,0.248413,-0.146203,-0.8624719999999999,0.232705,0.0,7.0,52.0,161.0,24.0,0.0
226381,1.122729,-1.130957,0.278686,-0.355568,-1.215352,0.025409,0.0,7.0,52.0,161.0,24.0,0.0
226382,1.169678,-1.123315,0.325805,-0.500999,-1.024724,0.005253,0.0,7.0,52.0,161.0,24.0,0.0
226383,1.194941,-1.115049,0.371013,-0.569096,-0.914793,-0.09837,0.0,7.0,52.0,161.0,24.0,0.0
226384,1.184171,-1.108583,0.386093,-0.074975,0.103467,0.283383,0.0,7.0,52.0,161.0,24.0,0.0
226385,1.157881,-1.095544,0.385591,1.059647,1.371672,0.05152,0.0,7.0,52.0,161.0,24.0,0.0
226386,1.168104,-1.087698,0.425592,1.338481,1.561309,0.182737,0.0,7.0,52.0,161.0,24.0,0.0
226387,1.20231,-1.0894620000000002,0.4749020000000001,-0.425878,0.246938,0.202029,0.0,7.0,52.0,161.0,24.0,0.0
226388,1.18175,-1.087352,0.457349,-0.183076,0.898063,0.300143,0.0,7.0,52.0,161.0,24.0,0.0
226389,1.125534,-1.0901459999999998,0.395319,1.0564129999999998,1.2436,-1.031468,0.0,7.0,52.0,161.0,24.0,0.0
226390,1.084221,-1.094544,0.354948,0.641365,-0.229845,-0.242747,0.0,7.0,52.0,161.0,24.0,0.0
226391,1.064774,-1.087531,0.334034,0.352829,-0.466934,-0.07297200000000001,0.0,7.0,52.0,161.0,24.0,0.0
226392,1.068609,-1.077982,0.336212,0.327226,-0.115319,0.073312,0.0,7.0,52.0,161.0,24.0,0.0
226393,1.05319,-1.078751,0.331527,0.118744,0.160929,-0.019504,0.0,7.0,52.0,161.0,24.0,0.0
226394,1.013914,-1.082893,0.301416,-0.04058,0.046645,0.05944600000000001,0.0,7.0,52.0,161.0,24.0,0.0
226395,0.974552,-1.089261,0.265975,-0.120068,-0.16635999999999998,0.200838,0.0,7.0,52.0,161.0,24.0,0.0
226396,0.941819,-1.093292,0.231297,-0.202332,-0.482001,0.218857,0.0,7.0,52.0,161.0,24.0,0.0
226397,0.914464,-1.090714,0.200619,-0.291094,-0.489557,0.38324,0.0,7.0,52.0,161.0,24.0,0.0
226398,0.888452,-1.08623,0.172798,-0.338863,-0.038213,0.301645,0.0,7.0,52.0,161.0,24.0,0.0
226399,0.8592110000000001,-1.078598,0.137025,-0.151082,0.544409,0.210213,0.0,7.0,52.0,161.0,24.0,0.0
226400,0.8322370000000001,-1.067502,0.08981,0.172915,0.688592,0.163954,0.0,7.0,52.0,161.0,24.0,0.0
226401,0.8224819999999999,-1.059844,0.069485,0.06866900000000001,0.444524,0.069037,0.0,7.0,52.0,161.0,24.0,0.0
226402,0.8267030000000001,-1.050368,0.074879,0.093689,0.441339,0.019761,0.0,7.0,52.0,161.0,24.0,0.0
226403,0.8318260000000001,-1.037736,0.08351499999999999,0.066166,0.5552630000000001,-0.005173,0.0,7.0,52.0,161.0,24.0,0.0
226404,0.836161,-1.031677,0.088163,-0.013414,0.388146,-0.118624,0.0,7.0,52.0,161.0,24.0,0.0
226405,0.8441930000000001,-1.034792,0.094302,-0.125341,0.091981,-0.133711,0.0,7.0,52.0,161.0,24.0,0.0
226406,0.8580139999999999,-1.040498,0.1045,0.014915,-0.284562,-0.038962,0.0,7.0,52.0,161.0,24.0,0.0
226407,0.8768020000000001,-1.0455290000000002,0.118287,0.095133,-0.308778,0.010414,0.0,7.0,52.0,161.0,24.0,0.0
226408,0.899858,-1.052968,0.135338,0.072782,-0.063674,0.020977000000000003,0.0,7.0,52.0,161.0,24.0,0.0
226409,0.93239,-1.063252,0.162691,-0.04834,0.22219,-0.045599,0.0,7.0,52.0,161.0,24.0,0.0
226410,0.965608,-1.07962,0.19132,-0.065639,0.231014,-0.085878,0.0,7.0,52.0,161.0,24.0,0.0
226411,0.994304,-1.100074,0.212344,-0.113379,-0.054434,-0.088616,0.0,7.0,52.0,161.0,24.0,0.0
226412,1.015961,-1.122068,0.22241100000000005,-0.169454,-0.156691,-0.013847,0.0,7.0,52.0,161.0,24.0,0.0
226413,1.036633,-1.1405459999999998,0.226197,-0.516501,-0.26413200000000003,0.066175,0.0,7.0,52.0,161.0,24.0,0.0
226414,1.05899,-1.150873,0.23211,-0.623352,-0.405018,0.112693,0.0,7.0,52.0,161.0,24.0,0.0
226415,1.085842,-1.155099,0.246052,-0.436262,-0.675333,0.185033,0.0,7.0,52.0,161.0,24.0,0.0
226416,1.1089639999999998,-1.160756,0.260562,-0.07858,-1.097784,-0.079386,0.0,7.0,52.0,161.0,24.0,0.0
226417,1.138303,-1.162102,0.283799,-0.037059,-1.386863,-0.138376,0.0,7.0,52.0,161.0,24.0,0.0
226418,1.1723860000000002,-1.15523,0.313816,-0.413823,-1.115358,0.018607,0.0,7.0,52.0,161.0,24.0,0.0
226419,1.1930889999999998,-1.144014,0.349146,-0.602876,-0.854348,0.295561,0.0,7.0,52.0,161.0,24.0,0.0
226420,1.180137,-1.134732,0.356741,0.13185999999999998,0.629254,0.342514,0.0,7.0,52.0,161.0,24.0,0.0
226421,1.120017,-1.125861,0.333407,1.675181,3.556651,0.210341,0.0,7.0,52.0,161.0,24.0,0.0
226422,1.1511280000000002,-1.12785,0.367664,0.383931,0.568751,-0.140163,0.0,7.0,52.0,161.0,24.0,0.0
226423,1.180332,-1.113213,0.388622,-0.314234,-0.532621,0.463656,0.0,7.0,52.0,161.0,24.0,0.0
226424,1.184015,-1.100313,0.374749,-0.16016,0.100899,-0.611577,0.0,7.0,52.0,161.0,24.0,0.0
226425,1.142209,-1.109804,0.35244000000000003,0.075112,0.196384,-0.808673,0.0,7.0,52.0,161.0,24.0,0.0
226426,1.090052,-1.123319,0.31458600000000003,0.4249560000000001,0.215081,0.20562,0.0,7.0,52.0,161.0,24.0,0.0
226427,1.083833,-1.128083,0.296424,0.331527,0.168856,0.249493,0.0,7.0,52.0,161.0,24.0,0.0
226428,1.073836,-1.13098,0.277858,0.336188,0.16009600000000002,0.296788,0.0,7.0,52.0,161.0,24.0,0.0
226429,1.02947,-1.134078,0.23490300000000006,-0.11006,-0.064546,0.011097,0.0,7.0,52.0,161.0,24.0,0.0
226430,0.959688,-1.130163,0.16484300000000002,-0.330926,-0.384462,-0.039182,0.0,7.0,52.0,161.0,24.0,0.0
226431,0.901534,-1.114763,0.096446,-0.38901,-0.609781,0.066221,0.0,7.0,52.0,161.0,24.0,0.0
226432,0.85288,-1.0896860000000002,0.044675,-0.370148,-0.6082989999999999,0.097108,0.0,7.0,52.0,161.0,24.0,0.0
226433,0.803453,-1.05558,-0.009105,0.425677,1.367882,-0.107401,0.0,7.0,52.0,161.0,24.0,0.0
226434,0.752309,-1.028865,-0.070744,0.6646029999999999,1.4968780000000002,0.182542,0.0,7.0,52.0,161.0,24.0,0.0
226435,0.7458130000000001,-1.024108,-0.082085,0.086673,0.6287050000000001,-0.114738,0.0,7.0,52.0,161.0,24.0,0.0
226436,0.7745479999999999,-1.01831,-0.038375,0.032427,0.365514,-0.140677,0.0,7.0,52.0,161.0,24.0,0.0
226437,0.7985,-1.004641,-0.001873,0.189506,0.35175500000000004,-0.135738,0.0,7.0,52.0,161.0,24.0,0.0
226438,0.811017,-1.000607,0.008511,-0.100451,0.4518720000000001,-0.170675,0.0,7.0,52.0,161.0,24.0,0.0
226439,0.818148,-1.0035379999999998,0.012524,-0.090807,-0.28470700000000004,0.048577,0.0,7.0,52.0,161.0,24.0,0.0
226440,0.827158,-1.014805,0.019583,-0.08253300000000001,-0.405866,0.058714,0.0,7.0,52.0,161.0,24.0,0.0
226441,0.841276,-1.033961,0.035542000000000004,-0.134328,-0.494326,0.047092,0.0,7.0,52.0,161.0,24.0,0.0
226442,0.855273,-1.058101,0.056973,-0.15651099999999998,-0.469372,0.160478,0.0,7.0,52.0,161.0,24.0,0.0
226443,0.8728940000000001,-1.081927,0.077471,-0.20101,-0.421866,0.171449,0.0,7.0,52.0,161.0,24.0,0.0
226444,0.894603,-1.09928,0.09552,-0.30068,-0.402508,0.193989,0.0,7.0,52.0,161.0,24.0,0.0
226445,0.92944,-1.110671,0.117179,-0.377054,-0.368592,0.047656,0.0,7.0,52.0,161.0,24.0,0.0
226446,0.966885,-1.121264,0.13588599999999998,-0.385019,-0.377747,-0.01198,0.0,7.0,52.0,161.0,24.0,0.0
226447,0.980728,-1.13354,0.131527,-0.277792,-0.204165,-0.039223,0.0,7.0,52.0,161.0,24.0,0.0
226448,0.985514,-1.14354,0.123029,-0.08187799999999999,-0.055949,0.126681,0.0,7.0,52.0,161.0,24.0,0.0
226449,1.004776,-1.141602,0.132122,-0.097079,-0.189239,0.048788,0.0,7.0,52.0,161.0,24.0,0.0
226450,1.039959,-1.130263,0.15478699999999998,-0.178582,-0.4467,-0.048753,0.0,7.0,52.0,161.0,24.0,0.0
226451,1.070995,-1.114477,0.176084,-0.27431,-0.16380899999999998,-0.089049,0.0,7.0,52.0,161.0,24.0,0.0
226452,1.0723,-1.100241,0.182095,-0.312413,0.062007000000000013,-0.121154,0.0,7.0,52.0,161.0,24.0,0.0
226453,1.044883,-1.094651,0.170722,0.084547,0.542567,0.1414,0.0,7.0,52.0,161.0,24.0,0.0
226454,1.023768,-1.090517,0.16505799999999998,0.977639,0.6313529999999999,0.409531,0.0,7.0,52.0,161.0,24.0,0.0
226455,1.049071,-1.091759,0.197353,0.68161,0.24635,0.194378,0.0,7.0,52.0,161.0,24.0,0.0
226456,1.086888,-1.092092,0.242338,0.13055,0.94627,-0.11566400000000003,0.0,7.0,52.0,161.0,24.0,0.0
226457,1.0846129999999998,-1.081081,0.254695,0.42125,1.258326,-0.160689,0.0,7.0,52.0,161.0,24.0,0.0
226458,1.072823,-1.079368,0.256175,0.586391,0.7741020000000001,0.010966,0.0,7.0,52.0,161.0,24.0,0.0
226459,1.091203,-1.083473,0.282874,0.196343,-0.038664,0.124684,0.0,7.0,52.0,161.0,24.0,0.0
226460,1.124046,-1.085404,0.318685,0.119983,-0.27205,0.124669,0.0,7.0,52.0,161.0,24.0,0.0
226461,1.16506,-1.086725,0.361297,0.051318,0.056756,-0.015543,0.0,7.0,52.0,161.0,24.0,0.0
226462,1.197279,-1.089887,0.397218,0.131758,0.329795,-0.207879,0.0,7.0,52.0,161.0,24.0,0.0
226463,1.212718,-1.100751,0.41538,0.107107,0.182229,-0.123969,0.0,7.0,52.0,161.0,24.0,0.0
226464,1.226516,-1.111639,0.424269,0.011185,-0.104678,-0.079152,0.0,7.0,52.0,161.0,24.0,0.0
226465,1.242131,-1.120421,0.431417,-0.037847000000000006,-0.34725900000000004,-0.046727,0.0,7.0,52.0,161.0,24.0,0.0
226466,1.241952,-1.128621,0.427145,-0.081998,-0.484924,0.057128,0.0,7.0,52.0,161.0,24.0,0.0
226467,1.228694,-1.139067,0.420054,-0.127748,-0.508616,0.08911000000000001,0.0,7.0,52.0,161.0,24.0,0.0
226468,1.2114790000000002,-1.147099,0.410611,-0.070778,-0.361892,0.005719,0.0,7.0,52.0,161.0,24.0,0.0
226469,1.184313,-1.149902,0.385575,0.033987,-0.326619,0.055637,0.0,7.0,52.0,161.0,24.0,0.0
226470,1.139508,-1.149489,0.343268,0.02026,-0.428897,0.07773200000000001,0.0,7.0,52.0,161.0,24.0,0.0
226471,1.093501,-1.149743,0.303715,-0.102444,-0.586182,0.099442,0.0,7.0,52.0,161.0,24.0,0.0
226472,1.049641,-1.148695,0.269621,-0.097851,-0.61473,0.210092,0.0,7.0,52.0,161.0,24.0,0.0
226473,0.995092,-1.139957,0.229929,-0.268368,-0.320343,0.224274,0.0,7.0,52.0,161.0,24.0,0.0
226474,0.934989,-1.123269,0.181916,-0.303739,0.339966,-0.000307,0.0,7.0,52.0,161.0,24.0,0.0
226475,0.883438,-1.096803,0.12831099999999998,-0.241054,1.179446,0.096192,0.0,7.0,52.0,161.0,24.0,0.0
226476,0.858899,-1.071383,0.08017300000000001,0.234314,0.700383,0.035088999999999995,0.0,7.0,52.0,161.0,24.0,0.0
226477,0.846794,-1.056211,0.072676,0.331585,0.33032399999999995,-0.059531,0.0,7.0,52.0,161.0,24.0,0.0
226478,0.8387389999999999,-1.041335,0.08974800000000001,0.455109,0.7887,-0.238962,0.0,7.0,52.0,161.0,24.0,0.0
226479,0.8414739999999999,-1.025782,0.099217,0.12825899999999998,1.109205,-0.283165,0.0,7.0,52.0,161.0,24.0,0.0
226480,0.857666,-1.016537,0.103029,-0.23967600000000006,0.83341,-0.169627,0.0,7.0,52.0,161.0,24.0,0.0
226481,0.8731770000000001,-1.017719,0.104186,-0.046581,-0.147146,-0.035054,0.0,7.0,52.0,161.0,24.0,0.0
226482,0.888805,-1.026625,0.114886,0.062157,-0.314587,0.003857,0.0,7.0,52.0,161.0,24.0,0.0
226483,0.911394,-1.045192,0.13508499999999998,0.128566,-0.475388,0.049927,0.0,7.0,52.0,161.0,24.0,0.0
226484,0.939314,-1.071148,0.154205,-0.11441,-0.329442,-0.035194,0.0,7.0,52.0,161.0,24.0,0.0
226485,0.966748,-1.097581,0.175397,-0.181892,-0.346391,-0.079932,0.0,7.0,52.0,161.0,24.0,0.0
226486,0.993201,-1.123644,0.19971,-0.228811,-0.427134,0.024259,0.0,7.0,52.0,161.0,24.0,0.0
226487,1.019773,-1.144099,0.223832,-0.344988,-0.519285,0.094416,0.0,7.0,52.0,161.0,24.0,0.0
226488,1.036648,-1.158579,0.238604,-0.446417,-0.638983,0.093848,0.0,7.0,52.0,161.0,24.0,0.0
226489,1.0503790000000002,-1.172464,0.250844,-0.396487,-0.569902,0.16568,0.0,7.0,52.0,161.0,24.0,0.0
226490,1.080054,-1.1816719999999998,0.275256,-0.17494,-0.276407,0.073478,0.0,7.0,52.0,161.0,24.0,0.0
226491,1.122675,-1.1762,0.304093,-0.224698,-0.813045,-0.14613199999999998,0.0,7.0,52.0,161.0,24.0,0.0
226492,1.158563,-1.164511,0.33088,-0.297352,-0.946091,0.028978,0.0,7.0,52.0,161.0,24.0,0.0
226493,1.185727,-1.147132,0.364131,-0.186543,-0.393858,0.346532,0.0,7.0,52.0,161.0,24.0,0.0
226494,1.165566,-1.130688,0.372879,0.12987200000000002,0.331409,0.250648,0.0,7.0,52.0,161.0,24.0,0.0
226495,1.127136,-1.136506,0.369239,1.5595709999999998,2.208386,-0.039278,0.0,7.0,52.0,161.0,24.0,0.0
226496,1.170549,-1.145675,0.419242,-0.357697,0.041618,-0.132949,0.0,7.0,52.0,161.0,24.0,0.0
226497,1.18456,-1.126522,0.4364560000000001,-0.133221,0.473847,0.090303,0.0,7.0,52.0,161.0,24.0,0.0
226498,1.167655,-1.114639,0.422304,1.365422,2.414901,-0.368183,0.0,7.0,52.0,161.0,24.0,0.0
226499,1.140124,-1.136217,0.43216,0.305233,-0.05431,-0.149542,0.0,7.0,52.0,161.0,24.0,0.0
226500,1.114904,-1.137767,0.428261,0.162338,-0.339706,-0.05358,0.0,7.0,52.0,161.0,24.0,0.0
226501,1.133544,-1.136703,0.448479,0.386723,0.416494,-0.337004,0.0,7.0,52.0,161.0,24.0,0.0
226502,1.160642,-1.1448120000000002,0.490708,0.388798,0.413113,-0.35033200000000003,0.0,7.0,52.0,161.0,24.0,0.0
226503,1.165583,-1.152081,0.511391,0.210778,-0.014244,-0.24520100000000006,0.0,7.0,52.0,161.0,24.0,0.0
226504,1.153765,-1.1585379999999998,0.5112140000000001,0.07363099999999999,-0.5841569999999999,0.25742,0.0,7.0,52.0,161.0,24.0,0.0
226505,1.143234,-1.166024,0.516754,-0.055245,-0.668078,0.384275,0.0,7.0,52.0,161.0,24.0,0.0
226506,1.1306120000000002,-1.179315,0.5259189999999999,-0.363085,-0.560621,0.388462,0.0,7.0,52.0,161.0,24.0,0.0
226507,1.103952,-1.196001,0.517432,-0.449819,-0.622767,0.15547,0.0,7.0,52.0,161.0,24.0,0.0
226508,1.059751,-1.204185,0.477486,-0.350407,-0.686172,0.174201,0.0,7.0,52.0,161.0,24.0,0.0
226509,0.998465,-1.205817,0.415961,-0.283054,-0.802661,0.210215,0.0,7.0,52.0,161.0,24.0,0.0
226510,0.954755,-1.205295,0.377374,-0.136291,-0.926438,0.297045,0.0,7.0,52.0,161.0,24.0,0.0
226511,0.922013,-1.198306,0.35390900000000003,-0.252094,-0.434155,0.089903,0.0,7.0,52.0,161.0,24.0,0.0
226512,0.890181,-1.17648,0.335111,-0.106568,0.657032,-0.116497,0.0,7.0,52.0,161.0,24.0,0.0
226513,0.8554129999999999,-1.135095,0.302773,0.873137,1.794125,-0.092013,0.0,7.0,52.0,161.0,24.0,0.0
226514,0.842068,-1.1142,0.28402,0.362064,0.854532,-0.154961,0.0,7.0,52.0,161.0,24.0,0.0
226515,0.8475969999999999,-1.107361,0.31301,0.288529,0.7515350000000001,-0.343906,0.0,7.0,52.0,161.0,24.0,0.0
226516,0.8517540000000001,-1.098103,0.339631,0.417117,0.6743060000000001,-0.294083,0.0,7.0,52.0,161.0,24.0,0.0
226517,0.8494440000000001,-1.092265,0.352987,0.14848699999999998,0.473976,-0.234689,0.0,7.0,52.0,161.0,24.0,0.0
226518,0.841526,-1.094339,0.362748,0.00169,0.08033799999999999,-0.150653,0.0,7.0,52.0,161.0,24.0,0.0
226519,0.8408110000000001,-1.104263,0.384035,-0.016618,-0.244146,-0.106135,0.0,7.0,52.0,161.0,24.0,0.0
226520,0.851777,-1.122707,0.414904,-0.05971,-0.382875,-0.009447,0.0,7.0,52.0,161.0,24.0,0.0
226521,0.874948,-1.144503,0.448616,-0.1211,-0.280546,0.039235,0.0,7.0,52.0,161.0,24.0,0.0
226522,0.90753,-1.16845,0.486576,-0.056169,-0.381891,-0.0073700000000000015,0.0,7.0,52.0,161.0,24.0,0.0
226523,0.940633,-1.192972,0.526468,-0.055525,-0.388759,-0.042646,0.0,7.0,52.0,161.0,24.0,0.0
226524,0.972744,-1.215194,0.566058,-0.098412,-0.34733400000000003,-0.090969,0.0,7.0,52.0,161.0,24.0,0.0
226525,0.998441,-1.232998,0.596376,-0.222117,-0.354986,-0.092055,0.0,7.0,52.0,161.0,24.0,0.0
226526,1.020073,-1.245792,0.622771,-0.192171,-0.40114,0.128334,0.0,7.0,52.0,161.0,24.0,0.0
226527,1.0423790000000002,-1.254538,0.649565,-0.154495,-0.372601,0.097088,0.0,7.0,52.0,161.0,24.0,0.0
226528,1.066188,-1.258458,0.676954,-0.144206,-0.151981,-0.08151699999999999,0.0,7.0,52.0,161.0,24.0,0.0
226529,1.067837,-1.251689,0.681581,-0.202624,-0.031501,-0.2894,0.0,7.0,52.0,161.0,24.0,0.0
226530,1.028727,-1.236157,0.645854,-0.185013,-0.079737,-0.068222,0.0,7.0,52.0,161.0,24.0,0.0
226531,1.000379,-1.214893,0.614229,-0.105632,-0.474701,0.199436,0.0,7.0,52.0,161.0,24.0,0.0
226532,0.991987,-1.194979,0.6162770000000001,-0.31935,-0.708086,0.497846,0.0,7.0,52.0,161.0,24.0,0.0
226533,0.95555,-1.185912,0.605684,-0.392134,-0.233269,0.481996,0.0,7.0,52.0,161.0,24.0,0.0
226534,0.858864,-1.170244,0.5382170000000001,-0.043894,1.020774,0.486179,0.0,7.0,52.0,161.0,24.0,0.0
226535,0.8135399999999999,-1.148336,0.4546560000000001,1.258793,1.493541,0.35585900000000004,0.0,7.0,52.0,161.0,24.0,0.0
226536,0.836419,-1.139114,0.4611560000000001,0.940548,0.974748,0.047115,0.0,7.0,52.0,161.0,24.0,0.0
226537,0.848514,-1.131452,0.485105,1.037116,1.010436,0.030552,0.0,7.0,52.0,161.0,24.0,0.0
226538,0.8533219999999999,-1.135776,0.508362,0.410515,0.517592,-0.15238,0.0,7.0,52.0,161.0,24.0,0.0
226539,0.8668459999999999,-1.146393,0.543747,0.519716,0.392594,-0.026594,0.0,7.0,52.0,161.0,24.0,0.0
226540,0.913097,-1.159621,0.604637,0.5585289999999999,0.166631,0.067871,0.0,7.0,52.0,161.0,24.0,0.0
226541,0.974138,-1.179809,0.679213,0.051229,0.374951,0.338565,0.0,7.0,52.0,161.0,24.0,0.0
226542,1.033193,-1.207763,0.744943,-0.058909,0.430594,0.287677,0.0,7.0,52.0,161.0,24.0,0.0
226543,1.0883200000000002,-1.232327,0.803074,-0.065954,0.093632,0.095126,0.0,7.0,52.0,161.0,24.0,0.0
226544,1.145906,-1.242882,0.8619540000000001,0.010578,-0.150772,0.055674,0.0,7.0,52.0,161.0,24.0,0.0
226545,1.190517,-1.249673,0.902656,-0.162427,-0.454786,0.034056,0.0,7.0,52.0,161.0,24.0,0.0
226546,1.219961,-1.259449,0.930226,-0.145027,-0.678942,-0.013888,0.0,7.0,52.0,161.0,24.0,0.0
226547,1.234997,-1.271964,0.943466,-0.002982,-0.8143229999999999,0.051099,0.0,7.0,52.0,161.0,24.0,0.0
226548,1.256825,-1.284207,0.965879,0.073624,-0.79448,0.08048200000000001,0.0,7.0,52.0,161.0,24.0,0.0
226549,1.304721,-1.295913,1.014505,0.12753,-0.472223,-0.038734,0.0,7.0,52.0,161.0,24.0,0.0
226550,1.3582379999999998,-1.309199,1.070667,0.071245,-0.082067,0.007702,0.0,7.0,52.0,161.0,24.0,0.0
226551,1.397951,-1.324368,1.1117780000000002,0.080373,0.102018,0.029004,0.0,7.0,52.0,161.0,24.0,0.0
226552,1.416939,-1.341506,1.127034,0.145905,0.344302,0.082383,0.0,7.0,52.0,161.0,24.0,0.0
226553,1.392221,-1.359832,1.094369,0.428645,0.103393,-0.198535,0.0,7.0,52.0,161.0,24.0,0.0
226554,1.33951,-1.377227,1.033932,0.5218079999999999,-0.061372,-0.329428,0.0,7.0,52.0,161.0,24.0,0.0
226555,1.300619,-1.386793,0.994666,0.5938939999999999,-0.022944,-0.176103,0.0,7.0,52.0,161.0,24.0,0.0
226556,1.273679,-1.382771,0.977789,0.499863,-0.06011900000000001,0.016155000000000003,0.0,7.0,52.0,161.0,24.0,0.0
226557,1.234334,-1.370019,0.958743,0.4098770000000001,-0.11396,0.033956,0.0,7.0,52.0,161.0,24.0,0.0
226558,1.188403,-1.356565,0.949938,0.370422,-0.011778,0.35602,0.0,7.0,52.0,161.0,24.0,0.0
226559,1.114741,-1.342088,0.929744,0.253543,0.184258,0.409955,0.0,7.0,52.0,161.0,24.0,0.0
226560,1.029234,-1.323173,0.892833,0.222671,0.28772,0.313446,0.0,7.0,52.0,161.0,24.0,0.0
226561,0.961194,-1.299181,0.8631280000000001,0.115469,0.462961,0.12668900000000002,0.0,7.0,52.0,161.0,24.0,0.0
226562,0.913762,-1.270402,0.84891,-0.000324,0.374599,0.130663,0.0,7.0,52.0,161.0,24.0,0.0
226563,0.8779620000000001,-1.240398,0.843167,0.13531400000000002,0.28628000000000003,0.118533,0.0,7.0,52.0,161.0,24.0,0.0
226564,0.847974,-1.212744,0.8471639999999999,0.313183,0.31645500000000004,0.082432,0.0,7.0,52.0,161.0,24.0,0.0
226565,0.8177260000000001,-1.192487,0.867762,0.3019,0.188843,0.093694,0.0,7.0,52.0,161.0,24.0,0.0
226566,0.781716,-1.179229,0.896394,0.25363600000000003,0.008168,0.183272,0.0,7.0,52.0,161.0,24.0,0.0
226567,0.74239,-1.169193,0.926948,0.201683,-0.116694,0.244477,0.0,7.0,52.0,161.0,24.0,0.0
226568,0.707303,-1.161604,0.965707,0.15479,-0.18853,0.304555,0.0,7.0,52.0,161.0,24.0,0.0
226569,0.678944,-1.1565219999999998,1.014312,0.10552,-0.2569,0.360616,0.0,7.0,52.0,161.0,24.0,0.0
226570,0.654246,-1.155712,1.071955,0.075315,-0.272687,0.378352,0.0,7.0,52.0,161.0,24.0,0.0
226571,0.63478,-1.160709,1.133432,-0.011186,-0.237459,0.390598,0.0,7.0,52.0,161.0,24.0,0.0
226572,0.616536,-1.166626,1.185116,-0.085111,-0.152141,0.35390900000000003,0.0,7.0,52.0,161.0,24.0,0.0
226573,0.595217,-1.171512,1.223205,-0.125915,-0.102187,0.31792600000000004,0.0,7.0,52.0,161.0,24.0,0.0
226574,0.580237,-1.177218,1.259474,-0.131366,-0.10436,0.317179,0.0,7.0,52.0,161.0,24.0,0.0
226575,0.578559,-1.183907,1.298258,-0.056186,-0.08557200000000001,0.210086,0.0,7.0,52.0,161.0,24.0,0.0
226576,0.585073,-1.193158,1.33757,0.045637,-0.113345,0.009914,0.0,7.0,52.0,161.0,24.0,0.0
226577,0.589738,-1.205639,1.374466,0.174958,-0.112229,-0.069325,0.0,7.0,52.0,161.0,24.0,0.0
226578,0.5943470000000001,-1.22059,1.412182,0.307107,-0.086549,-0.128967,0.0,7.0,52.0,161.0,24.0,0.0
226579,0.60231,-1.23364,1.454907,0.284697,-0.053944000000000006,-0.154868,0.0,7.0,52.0,161.0,24.0,0.0
226580,0.617318,-1.241839,1.504789,0.188525,0.027055000000000003,-0.169127,0.0,7.0,52.0,161.0,24.0,0.0
226581,0.633411,-1.245911,1.556734,0.216822,0.076422,-0.182573,0.0,7.0,52.0,161.0,24.0,0.0
226582,0.646085,-1.246266,1.606368,0.243992,0.004455,-0.129104,0.0,7.0,52.0,161.0,24.0,0.0
226583,0.668297,-1.247073,1.6650080000000005,0.128661,-0.148039,-0.23332,0.0,7.0,52.0,161.0,24.0,0.0
226584,0.705106,-1.244918,1.7343650000000002,0.101987,-0.199872,-0.1881,0.0,7.0,52.0,161.0,24.0,0.0
226585,0.725362,-1.232621,1.794933,0.237664,-0.068438,0.201693,0.0,7.0,52.0,161.0,24.0,0.0
226586,0.729087,-1.219625,1.840691,0.29180900000000004,0.468744,0.369205,0.0,7.0,52.0,161.0,24.0,0.0
226587,0.757252,-1.227396,1.906927,0.093467,0.391057,0.405923,0.0,7.0,52.0,161.0,24.0,0.0
226588,0.7679520000000001,-1.2412299999999998,1.963176,-0.110422,0.375015,0.298124,0.0,7.0,52.0,161.0,24.0,0.0
226589,0.7338640000000001,-1.247492,1.977204,0.409122,-0.10116,0.27236,0.0,7.0,52.0,161.0,24.0,0.0
226590,0.710609,-1.25244,1.9908,0.514545,-0.398756,0.326219,0.0,7.0,52.0,161.0,24.0,0.0
226591,0.732911,-1.254035,2.04387,0.385091,-0.33823400000000003,0.301316,0.0,7.0,52.0,161.0,24.0,0.0
226592,0.800071,-1.256573,2.139004,0.289986,-0.196703,0.212421,0.0,7.0,52.0,161.0,24.0,0.0
226593,0.860015,-1.263221,2.223598,0.139417,0.259668,0.025616000000000003,0.0,7.0,52.0,161.0,24.0,0.0
226594,0.899075,-1.277473,2.288322,0.105429,0.35483000000000003,0.071311,0.0,7.0,52.0,161.0,24.0,0.0
226595,0.951825,-1.290241,2.362952,0.187091,0.163564,0.125722,0.0,7.0,52.0,161.0,24.0,0.0
226596,1.010682,-1.295739,2.433479,0.222431,-0.187797,0.145688,0.0,7.0,52.0,161.0,24.0,0.0
226597,1.075244,-1.29985,2.510157,0.020707,-0.249987,0.040435000000000006,0.0,7.0,52.0,161.0,24.0,0.0
226598,1.149907,-1.308814,2.605077,0.0046,-0.19624,0.014439,0.0,7.0,52.0,161.0,24.0,0.0
226599,1.229368,-1.320034,2.709993,0.02285,-0.154942,-0.023091,0.0,7.0,52.0,161.0,24.0,0.0
226600,1.301257,-1.32585,2.804795,0.107383,-0.09425,0.042753,0.0,7.0,52.0,161.0,24.0,0.0
226601,1.362586,-1.32617,2.886037,0.11444,-0.198805,0.086395,0.0,7.0,52.0,161.0,24.0,0.0
226602,1.4224709999999998,-1.325067,2.965706,0.140932,-0.290837,0.086904,0.0,7.0,52.0,161.0,24.0,0.0
226603,1.485886,-1.324534,3.0484310000000003,0.158155,-0.24841,0.036446,0.0,7.0,52.0,161.0,24.0,0.0
226604,1.559352,-1.324501,3.141468,0.169927,-0.131825,-0.039310000000000005,0.0,7.0,52.0,161.0,24.0,0.0
226605,1.640686,-1.323874,-3.043491,0.124338,-0.101383,-0.066288,0.0,7.0,52.0,161.0,24.0,0.0
226606,1.71586,-1.322575,-2.95529,0.080201,-0.084494,-0.045239,0.0,7.0,52.0,161.0,24.0,0.0
226607,1.7759029999999998,-1.323447,-2.885197,0.109598,0.149896,-0.037689,0.0,7.0,52.0,161.0,24.0,0.0
226608,1.81592,-1.327126,-2.841364,0.266554,0.281479,-0.134413,0.0,7.0,52.0,161.0,24.0,0.0
226609,1.833249,-1.332625,-2.824378,0.4716770000000001,0.181641,-0.209353,0.0,7.0,52.0,161.0,24.0,0.0
226610,1.832959,-1.336307,-2.820581,0.568182,0.004311,-0.210159,0.0,7.0,52.0,161.0,24.0,0.0
226611,1.82236,-1.336355,-2.81854,0.651555,-0.027835,-0.116474,0.0,7.0,52.0,161.0,24.0,0.0
226612,1.802079,-1.335104,-2.818311,0.540312,0.069746,-0.057446,0.0,7.0,52.0,161.0,24.0,0.0
226613,1.769419,-1.331647,-2.823428,0.195759,0.06415,0.026197,0.0,7.0,52.0,161.0,24.0,0.0
226614,1.7238790000000002,-1.3279379999999998,-2.839667,0.023624000000000003,-0.057477,0.194589,0.0,7.0,52.0,161.0,24.0,0.0
226615,1.6546599999999998,-1.325473,-2.873726,0.040696,-0.04884,0.389742,0.0,7.0,52.0,161.0,24.0,0.0
226616,1.5316610000000002,-1.320103,-2.9493150000000004,-0.044874,0.11631199999999997,0.287352,0.0,7.0,52.0,161.0,24.0,0.0
226617,1.399398,-1.308021,-3.046088,-0.038394,0.33970100000000003,0.146116,0.0,7.0,52.0,161.0,24.0,0.0
226618,1.29417,-1.291192,-3.135003,-0.040071,0.414217,0.152657,0.0,7.0,52.0,161.0,24.0,0.0
226619,1.205402,-1.272574,3.071876,0.21998,0.349743,0.004184,0.0,7.0,52.0,161.0,24.0,0.0
226620,1.139455,-1.256825,3.024184,0.290235,0.123425,0.09006900000000001,0.0,7.0,52.0,161.0,24.0,0.0
226621,1.100141,-1.241382,3.012035,0.190989,0.025738,0.092091,0.0,7.0,52.0,161.0,24.0,0.0
226622,1.070823,-1.23177,3.02042,0.078891,-0.044245,-0.018749,0.0,7.0,52.0,161.0,24.0,0.0
226623,1.03259,-1.22999,3.02931,-0.054992,-0.001613,-0.072646,0.0,7.0,52.0,161.0,24.0,0.0
226624,0.989548,-1.226632,3.032603,-0.04237,0.170154,-0.006917,0.0,7.0,52.0,161.0,24.0,0.0
226625,0.962281,-1.216019,3.044753,-0.080326,-0.14207,0.081065,0.0,7.0,52.0,161.0,24.0,0.0
226626,0.953751,-1.199023,3.071679,-0.033781,-0.22982600000000006,0.12693800000000002,0.0,7.0,52.0,161.0,24.0,0.0
226627,0.962517,-1.183722,3.114512,0.018321,-0.382377,0.162134,0.0,7.0,52.0,161.0,24.0,0.0
226628,0.982765,-1.176788,-3.1211330000000004,-0.07284500000000001,-0.440834,0.144178,0.0,7.0,52.0,161.0,24.0,0.0
226629,1.000177,-1.179343,-3.085476,-0.205117,-0.375726,0.084163,0.0,7.0,52.0,161.0,24.0,0.0
226630,1.010345,-1.18428,-3.05921,-0.194689,-0.244236,0.049666,0.0,7.0,52.0,161.0,24.0,0.0
226631,1.01621,-1.189164,-3.041534,-0.047202,-0.281848,0.163981,0.0,7.0,52.0,161.0,24.0,0.0
226632,1.027648,-1.195101,-3.0237540000000003,-0.026910000000000003,-0.278199,0.13680499999999998,0.0,7.0,52.0,161.0,24.0,0.0
226633,1.050348,-1.201667,-2.999749,-0.087837,-0.26063000000000003,0.00804,0.0,7.0,52.0,161.0,24.0,0.0
226634,1.082375,-1.207575,-2.969663,-0.187198,-0.359012,-0.09405,0.0,7.0,52.0,161.0,24.0,0.0
226635,1.11192,-1.213322,-2.944639,-0.204145,-0.405641,-0.099471,0.0,7.0,52.0,161.0,24.0,0.0
226636,1.129387,-1.220045,-2.93394,-0.170004,-0.506528,-0.061387,0.0,7.0,52.0,161.0,24.0,0.0
226637,1.1474540000000002,-1.227005,-2.92111,-0.166652,-0.50789,-0.126734,0.0,7.0,52.0,161.0,24.0,0.0
226638,1.172963,-1.231831,-2.901957,-0.15516300000000002,-0.446563,-0.01945,0.0,7.0,52.0,161.0,24.0,0.0
226639,1.202093,-1.231644,-2.8837900000000003,-0.033552,-0.109099,0.05723300000000001,0.0,7.0,52.0,161.0,24.0,0.0
226640,1.235141,-1.229101,-2.864187,0.017827000000000003,0.086086,0.055441,0.0,7.0,52.0,161.0,24.0,0.0
226641,1.274648,-1.222463,-2.830728,-0.095898,-0.175829,-0.000528,0.0,7.0,52.0,161.0,24.0,0.0
226642,1.322289,-1.217458,-2.777292,-0.215881,-0.651327,0.110641,0.0,7.0,52.0,161.0,24.0,0.0
226643,1.359804,-1.215278,-2.724121,-0.233927,-0.515271,0.225522,0.0,7.0,52.0,161.0,24.0,0.0
226644,1.361245,-1.214539,-2.692861,-0.113799,-0.031691000000000004,0.134141,0.0,7.0,52.0,161.0,24.0,0.0
226645,1.2907879999999998,-1.210597,-2.722268,0.802363,1.404658,-0.045718,0.0,7.0,52.0,161.0,24.0,0.0
226646,1.255417,-1.208808,-2.744685,1.189727,1.218675,0.14896900000000002,0.0,7.0,52.0,161.0,24.0,0.0
226647,1.329305,-1.204279,-2.665837,-0.099495,0.156263,-0.260773,0.0,7.0,52.0,161.0,24.0,0.0
226648,1.335825,-1.185377,-2.649876,0.095561,0.712046,-0.041604,0.0,7.0,52.0,161.0,24.0,0.0
226649,1.301203,-1.17753,-2.679716,0.606139,0.670118,-0.497588,0.0,7.0,52.0,161.0,24.0,0.0
226650,1.288486,-1.18738,-2.676677,0.409404,0.006248,-0.154649,0.0,7.0,52.0,161.0,24.0,0.0
226651,1.286325,-1.187377,-2.669249,0.28443,-0.42614,0.205548,0.0,7.0,52.0,161.0,24.0,0.0
226652,1.320429,-1.184262,-2.624729,-0.019772,-0.47511,0.145453,0.0,7.0,52.0,161.0,24.0,0.0
226653,1.369318,-1.182373,-2.558194,-0.071283,0.005294,-0.129037,0.0,7.0,52.0,161.0,24.0,0.0
226654,1.384484,-1.1840959999999998,-2.529885,-0.092122,0.067234,-0.276127,0.0,7.0,52.0,161.0,24.0,0.0
226655,1.364102,-1.185562,-2.544988,0.0665,-0.352232,-0.121071,0.0,7.0,52.0,161.0,24.0,0.0
226656,1.335598,-1.184173,-2.576308,0.080427,-0.451182,-0.060426,0.0,7.0,52.0,161.0,24.0,0.0
226657,1.303382,-1.184211,-2.609112,0.008163,-0.463006,0.027333,0.0,7.0,52.0,161.0,24.0,0.0
226658,1.265861,-1.1896209999999998,-2.639393,-0.038646,-0.414541,-0.011706,0.0,7.0,52.0,161.0,24.0,0.0
226659,1.2203190000000002,-1.194019,-2.680057,0.0186,-0.411728,0.051147000000000005,0.0,7.0,52.0,161.0,24.0,0.0
226660,1.170045,-1.19524,-2.724432,0.06096,-0.46987,0.193945,0.0,7.0,52.0,161.0,24.0,0.0
226661,1.119389,-1.192547,-2.762021,-0.256538,-0.096488,0.270425,0.0,7.0,52.0,161.0,24.0,0.0
226662,1.063317,-1.179538,-2.803188,-0.346503,0.245385,0.201682,0.0,7.0,52.0,161.0,24.0,0.0
226663,1.00922,-1.154241,-2.8554150000000003,-0.328144,1.0520040000000002,0.049843,0.0,7.0,52.0,161.0,24.0,0.0
226664,0.970516,-1.128394,-2.91708,0.149535,0.940512,-0.035167000000000004,0.0,7.0,52.0,161.0,24.0,0.0
226665,0.952337,-1.111027,-2.935966,0.237246,0.383264,-0.157433,0.0,7.0,52.0,161.0,24.0,0.0
226666,0.945735,-1.097519,-2.927285,0.335872,0.186795,-0.07332999999999999,0.0,7.0,52.0,161.0,24.0,0.0
226667,0.944699,-1.087147,-2.916266,0.176756,0.254131,-0.10826199999999997,0.0,7.0,52.0,161.0,24.0,0.0
226668,0.94801,-1.08148,-2.913351,-0.025998,0.458837,-0.176398,0.0,7.0,52.0,161.0,24.0,0.0
226669,0.960439,-1.078602,-2.91205,-0.11924,0.32645,-0.17644300000000002,0.0,7.0,52.0,161.0,24.0,0.0
226670,0.977445,-1.077465,-2.906524,-0.194901,0.13427,-0.161649,0.0,7.0,52.0,161.0,24.0,0.0
226671,0.994469,-1.081326,-2.901887,-0.06045,-0.041533,-0.060194,0.0,7.0,52.0,161.0,24.0,0.0
226672,1.015226,-1.092112,-2.895595,0.057618,-0.091688,-0.045924,0.0,7.0,52.0,161.0,24.0,0.0
226673,1.044174,-1.107787,-2.881165,0.06618500000000001,-0.137068,-0.135358,0.0,7.0,52.0,161.0,24.0,0.0
226674,1.0752389999999998,-1.126445,-2.861201,0.028378,-0.123166,-0.151772,0.0,7.0,52.0,161.0,24.0,0.0
226675,1.102198,-1.145243,-2.840221,-0.051123,-0.115019,-0.07400599999999999,0.0,7.0,52.0,161.0,24.0,0.0
226676,1.128321,-1.162909,-2.824162,-0.18148,-0.137535,0.004699,0.0,7.0,52.0,161.0,24.0,0.0
226677,1.155744,-1.17895,-2.815896,-0.264444,-0.172878,0.036944,0.0,7.0,52.0,161.0,24.0,0.0
226678,1.186431,-1.191598,-2.806939,-0.432026,-0.281501,0.003673,0.0,7.0,52.0,161.0,24.0,0.0
226679,1.221479,-1.1990299999999998,-2.792961,-0.412541,-0.661301,-0.019134,0.0,7.0,52.0,161.0,24.0,0.0
226680,1.250053,-1.199105,-2.78632,-0.265694,-0.993467,-0.044918,0.0,7.0,52.0,161.0,24.0,0.0
226681,1.265181,-1.193081,-2.797229,-0.103621,-1.26296,-0.070064,0.0,7.0,52.0,161.0,24.0,0.0
226682,1.29195,-1.183087,-2.791652,-0.084739,-1.276134,-0.072798,0.0,7.0,52.0,161.0,24.0,0.0
226683,1.32197,-1.174858,-2.750409,-0.333091,-0.71095,0.055143,0.0,7.0,52.0,161.0,24.0,0.0
226684,1.296529,-1.165433,-2.744291,0.111362,0.365648,0.337326,0.0,7.0,52.0,161.0,24.0,0.0
226685,1.245501,-1.1614719999999998,-2.757524,0.8514200000000001,1.376082,-0.08152899999999999,0.0,7.0,52.0,161.0,24.0,0.0
226686,1.284532,-1.161833,-2.704401,1.144502,1.77134,0.048814,0.0,7.0,52.0,161.0,24.0,0.0
226687,1.330976,-1.159004,-2.651637,-0.4683479999999999,-0.492745,-0.109315,0.0,7.0,52.0,161.0,24.0,0.0
226688,1.304945,-1.146541,-2.681333,-0.4840890000000001,-0.256728,0.234011,0.0,7.0,52.0,161.0,24.0,0.0
226689,1.266613,-1.151369,-2.724546,0.4754020000000001,1.565849,-0.888491,0.0,7.0,52.0,161.0,24.0,0.0
226690,1.233013,-1.174143,-2.747414,0.813194,-0.07119299999999999,-0.101888,0.0,7.0,52.0,161.0,24.0,0.0
226691,1.1998209999999998,-1.1728,-2.771542,0.490835,-0.5316420000000001,0.074999,0.0,7.0,52.0,161.0,24.0,0.0
226692,1.167721,-1.162944,-2.796746,0.370993,-0.493826,0.07019299999999999,0.0,7.0,52.0,161.0,24.0,0.0
226693,1.1324040000000002,-1.155229,-2.816692,0.159098,0.022124,-0.225361,0.0,7.0,52.0,161.0,24.0,0.0
226694,1.081177,-1.146491,-2.853042,-0.21305,-0.19552,-0.099556,0.0,7.0,52.0,161.0,24.0,0.0
226695,1.024525,-1.138738,-2.8952720000000003,-0.408675,-0.728495,0.32775,0.0,7.0,52.0,161.0,24.0,0.0
226696,0.977766,-1.130598,-2.924859,-0.435349,-0.357579,0.303117,0.0,7.0,52.0,161.0,24.0,0.0
226697,0.922045,-1.115827,-2.9682310000000003,-0.314109,0.264171,0.213849,0.0,7.0,52.0,161.0,24.0,0.0
226698,0.864699,-1.092291,-3.020232,-0.100063,0.8399620000000001,0.158085,0.0,7.0,52.0,161.0,24.0,0.0
226699,0.844318,-1.070245,-3.062809,0.17893599999999998,1.245881,-0.046598,0.0,7.0,52.0,161.0,24.0,0.0
226700,0.863643,-1.049546,-3.051901,0.057264,0.239691,-0.126911,0.0,7.0,52.0,161.0,24.0,0.0
226701,0.876869,-1.034067,-3.0239580000000004,0.184301,0.07375,-0.155442,0.0,7.0,52.0,161.0,24.0,0.0
226702,0.8840879999999999,-1.034447,-3.007609,-0.072679,0.134515,-0.164354,0.0,7.0,52.0,161.0,24.0,0.0
226703,0.905143,-1.04337,-2.989687,-0.048277,0.078979,-0.217,0.0,7.0,52.0,161.0,24.0,0.0
226704,0.935639,-1.054295,-2.971917,-0.018727,0.047913,-0.288163,0.0,7.0,52.0,161.0,24.0,0.0
226705,0.967465,-1.068123,-2.951793,-0.003168,0.042785,-0.298426,0.0,7.0,52.0,161.0,24.0,0.0
226706,0.990351,-1.081759,-2.934871,-0.012869,0.012906,-0.092809,0.0,7.0,52.0,161.0,24.0,0.0
226707,1.006665,-1.097228,-2.920539,-0.06806799999999999,-0.059929,-0.056444000000000015,0.0,7.0,52.0,161.0,24.0,0.0
226708,1.02507,-1.115983,-2.907099,-0.11977,-0.130093,-0.026903,0.0,7.0,52.0,161.0,24.0,0.0
226709,1.045524,-1.136911,-2.898144,-0.102679,-0.19657,-0.051842,0.0,7.0,52.0,161.0,24.0,0.0
226710,1.0716450000000002,-1.160731,-2.888338,-0.122258,-0.235607,-0.099007,0.0,7.0,52.0,161.0,24.0,0.0
226711,1.0998450000000002,-1.184059,-2.881612,-0.182327,-0.040494,-0.025554,0.0,7.0,52.0,161.0,24.0,0.0
226712,1.126695,-1.2010379999999998,-2.878404,-0.274539,0.203083,0.009714,0.0,7.0,52.0,161.0,24.0,0.0
226713,1.150767,-1.205524,-2.870467,-0.30721,0.040491,0.196763,0.0,7.0,52.0,161.0,24.0,0.0
226714,1.165393,-1.203868,-2.861939,-0.108868,-0.656883,0.143103,0.0,7.0,52.0,161.0,24.0,0.0
226715,1.190103,-1.202594,-2.839234,-0.198251,-0.969033,0.14201,0.0,7.0,52.0,161.0,24.0,0.0
226716,1.239289,-1.200041,-2.798731,-0.317253,-1.078019,-0.042796,0.0,7.0,52.0,161.0,24.0,0.0
226717,1.28996,-1.1933,-2.758428,-0.4508390000000001,-1.160181,-0.259531,0.0,7.0,52.0,161.0,24.0,0.0
226718,1.299744,-1.186286,-2.742673,-0.451412,-0.767848,0.226703,0.0,7.0,52.0,161.0,24.0,0.0
226719,1.27368,-1.1797959999999998,-2.745459,-0.256099,-0.646513,0.393608,0.0,7.0,52.0,161.0,24.0,0.0
226720,1.231213,-1.168258,-2.750372,0.890098,0.938237,-0.034942,0.0,7.0,52.0,161.0,24.0,0.0
226721,1.256768,-1.158,-2.702348,0.7464109999999999,0.931578,-0.175439,0.0,7.0,52.0,161.0,24.0,0.0
226722,1.317,-1.150759,-2.64835,-0.174084,0.235486,-0.448356,0.0,7.0,52.0,161.0,24.0,0.0
226723,1.306093,-1.13615,-2.674693,-0.671068,0.019586000000000003,-0.022533,0.0,7.0,52.0,161.0,24.0,0.0
226724,1.284059,-1.135067,-2.702671,-0.15373699999999998,0.705712,-0.662788,0.0,7.0,52.0,161.0,24.0,0.0
226725,1.238721,-1.158074,-2.728439,1.068505,1.267287,-0.762758,0.0,7.0,52.0,161.0,24.0,0.0
226726,1.206804,-1.1701780000000002,-2.761221,0.649651,-0.121626,0.243486,0.0,7.0,52.0,161.0,24.0,0.0
226727,1.2038870000000002,-1.1689040000000002,-2.7556380000000003,0.28880900000000004,-0.308323,0.257344,0.0,7.0,52.0,161.0,24.0,0.0
226728,1.179981,-1.168866,-2.76369,-0.054231,0.126399,-0.216988,0.0,7.0,52.0,161.0,24.0,0.0
226729,1.114671,-1.164388,-2.825459,-0.262933,-0.044355,-0.212319,0.0,7.0,52.0,161.0,24.0,0.0
226730,1.043066,-1.161281,-2.901621,-0.29169,-0.368745,-0.081799,0.0,7.0,52.0,161.0,24.0,0.0
226731,0.994534,-1.1583,-2.94108,-0.273857,-1.039215,0.336776,0.0,7.0,52.0,161.0,24.0,0.0
226732,0.940193,-1.143848,-2.977488,-0.26198,-0.8013319999999999,0.263586,0.0,7.0,52.0,161.0,24.0,0.0
226733,0.882976,-1.1229559999999998,-3.021515,-0.107584,0.454985,-0.049743,0.0,7.0,52.0,161.0,24.0,0.0
226734,0.838643,-1.101756,-3.055494,0.553567,1.562145,0.255309,0.0,7.0,52.0,161.0,24.0,0.0
226735,0.847543,-1.086838,-3.069491,0.220855,0.8384879999999999,-0.06349099999999999,0.0,7.0,52.0,161.0,24.0,0.0
226736,0.876554,-1.076647,-3.039944,-0.002502,0.360518,-0.118488,0.0,7.0,52.0,161.0,24.0,0.0
226737,0.884273,-1.074224,-3.022686,0.217547,-0.103799,-0.145289,0.0,7.0,52.0,161.0,24.0,0.0
226738,0.896826,-1.078275,-3.006973,-0.038524,0.559469,-0.171924,0.0,7.0,52.0,161.0,24.0,0.0
226739,0.931225,-1.076378,-2.98204,0.070048,0.436009,-0.283172,0.0,7.0,52.0,161.0,24.0,0.0
226740,0.962101,-1.0752549999999998,-2.966326,0.171943,0.050007,-0.198778,0.0,7.0,52.0,161.0,24.0,0.0
226741,0.988498,-1.082532,-2.948181,0.11101099999999997,-0.215225,-0.166233,0.0,7.0,52.0,161.0,24.0,0.0
226742,1.015657,-1.096148,-2.921786,-0.048449,-0.288425,-0.120828,0.0,7.0,52.0,161.0,24.0,0.0
226743,1.046839,-1.1138549999999998,-2.889048,-0.16983199999999998,-0.419898,-0.006723000000000001,0.0,7.0,52.0,161.0,24.0,0.0
226744,1.084016,-1.135712,-2.851373,-0.275134,-0.569982,0.068335,0.0,7.0,52.0,161.0,24.0,0.0
226745,1.124672,-1.157822,-2.8094650000000003,-0.287317,-0.605354,0.087792,0.0,7.0,52.0,161.0,24.0,0.0
226746,1.164598,-1.177189,-2.769519,-0.3889780000000001,-0.460977,0.103335,0.0,7.0,52.0,161.0,24.0,0.0
226747,1.197378,-1.19582,-2.742569,-0.34488,-0.074147,0.04288,0.0,7.0,52.0,161.0,24.0,0.0
226748,1.228111,-1.215583,-2.724296,-0.240003,0.310993,0.05293,0.0,7.0,52.0,161.0,24.0,0.0
226749,1.249409,-1.228039,-2.715009,-0.107377,-0.196928,-0.105978,0.0,7.0,52.0,161.0,24.0,0.0
226750,1.2672139999999998,-1.22357,-2.711726,-0.095988,-0.457654,0.005568,0.0,7.0,52.0,161.0,24.0,0.0
226751,1.288553,-1.208858,-2.709112,-0.153115,-0.423585,-0.049299,0.0,7.0,52.0,161.0,24.0,0.0
226752,1.314669,-1.188856,-2.705016,-0.22417,-0.31963600000000003,-0.057885,0.0,7.0,52.0,161.0,24.0,0.0
226753,1.323715,-1.1713,-2.707234,-0.104551,0.09243,-0.026204,0.0,7.0,52.0,161.0,24.0,0.0
226754,1.313393,-1.168192,-2.7058,0.224663,0.452271,-0.043729,0.0,7.0,52.0,161.0,24.0,0.0
226755,1.280183,-1.175044,-2.712209,0.52659,0.487449,0.027641,0.0,7.0,52.0,161.0,24.0,0.0
226756,1.249549,-1.17043,-2.734483,0.7031729999999999,0.185817,0.074728,0.0,7.0,52.0,161.0,24.0,0.0
226757,1.272297,-1.158009,-2.712872,0.276906,0.248789,0.021591,0.0,7.0,52.0,161.0,24.0,0.0
226758,1.318847,-1.145877,-2.656879,0.103918,0.441482,-0.21592,0.0,7.0,52.0,161.0,24.0,0.0
226759,1.318047,-1.135278,-2.633954,0.478325,1.314875,-0.227061,0.0,7.0,52.0,161.0,24.0,0.0
226760,1.286144,-1.132443,-2.644795,0.5256810000000001,0.7441300000000001,0.089705,0.0,7.0,52.0,161.0,24.0,0.0
226761,1.290009,-1.133835,-2.636937,-0.078348,-0.240438,0.018307,0.0,7.0,52.0,161.0,24.0,0.0
226762,1.31218,-1.135582,-2.614608,-0.14746199999999998,-0.38824,0.061045,0.0,7.0,52.0,161.0,24.0,0.0
226763,1.336944,-1.1368790000000002,-2.589337,-0.050212,-0.135414,0.026294,0.0,7.0,52.0,161.0,24.0,0.0
226764,1.360306,-1.141674,-2.561787,-0.110875,0.027131,-0.065693,0.0,7.0,52.0,161.0,24.0,0.0
226765,1.37188,-1.149709,-2.551995,-0.07091,0.079024,-0.07913200000000001,0.0,7.0,52.0,161.0,24.0,0.0
226766,1.375975,-1.156901,-2.552503,0.068514,-0.215824,-0.119477,0.0,7.0,52.0,161.0,24.0,0.0
226767,1.37534,-1.162079,-2.560135,0.050118,-0.42993,-0.098251,0.0,7.0,52.0,161.0,24.0,0.0
226768,1.360195,-1.163403,-2.581707,0.01483,-0.5761,-0.152868,0.0,7.0,52.0,161.0,24.0,0.0
226769,1.337609,-1.163871,-2.606066,0.004034,-0.487892,-0.08265399999999999,0.0,7.0,52.0,161.0,24.0,0.0
226770,1.30289,-1.164335,-2.63576,0.047279,-0.395317,-0.172193,0.0,7.0,52.0,161.0,24.0,0.0
226771,1.265379,-1.166641,-2.667876,0.137552,-0.336656,-0.02639,0.0,7.0,52.0,161.0,24.0,0.0
226772,1.228554,-1.169964,-2.697901,-0.00233,-0.435919,0.186276,0.0,7.0,52.0,161.0,24.0,0.0
226773,1.190725,-1.171794,-2.723711,-0.072607,-0.421678,0.258539,0.0,7.0,52.0,161.0,24.0,0.0
226774,1.147144,-1.170434,-2.751891,-0.270025,-0.16976,0.247794,0.0,7.0,52.0,161.0,24.0,0.0
226775,1.101587,-1.164455,-2.786671,-0.356881,0.522406,-0.061938,0.0,7.0,52.0,161.0,24.0,0.0
226776,1.049686,-1.151087,-2.836294,-0.237516,0.804291,-0.042495,0.0,7.0,52.0,161.0,24.0,0.0
226777,0.996375,-1.130424,-2.907164,0.424117,0.398843,-0.21447600000000006,0.0,7.0,52.0,161.0,24.0,0.0
226778,0.959199,-1.106867,-2.960743,0.456424,0.420335,-0.189504,0.0,7.0,52.0,161.0,24.0,0.0
226779,0.937884,-1.091092,-2.971598,0.474197,0.5192859999999999,-0.150998,0.0,7.0,52.0,161.0,24.0,0.0
226780,0.927229,-1.076805,-2.967135,0.126143,0.954834,-0.230397,0.0,7.0,52.0,161.0,24.0,0.0
226781,0.93073,-1.063686,-2.961924,-0.050648,0.918131,-0.154876,0.0,7.0,52.0,161.0,24.0,0.0
226782,0.945683,-1.056537,-2.951136,-0.295366,0.344431,-0.035439,0.0,7.0,52.0,161.0,24.0,0.0
226783,0.95526,-1.055623,-2.939983,-0.140566,-0.375166,0.05905700000000001,0.0,7.0,52.0,161.0,24.0,0.0
226784,0.95888,-1.060664,-2.932893,-0.06383899999999999,-0.492919,0.113883,0.0,7.0,52.0,161.0,24.0,0.0
226785,0.966707,-1.073101,-2.925376,-0.171727,-0.51252,0.058386,0.0,7.0,52.0,161.0,24.0,0.0
226786,0.987253,-1.088729,-2.910212,-0.154628,-0.484946,-0.067083,0.0,7.0,52.0,161.0,24.0,0.0
226787,1.014089,-1.1049209999999998,-2.8886700000000003,-0.101625,-0.473613,-0.141413,0.0,7.0,52.0,161.0,24.0,0.0
226788,1.041676,-1.124529,-2.863367,-0.158136,-0.34846,-0.143819,0.0,7.0,52.0,161.0,24.0,0.0
226789,1.071693,-1.144794,-2.835921,-0.28653,-0.222347,-0.16,0.0,7.0,52.0,161.0,24.0,0.0
226790,1.096986,-1.158577,-2.826284,-0.380507,-0.111226,-0.139827,0.0,7.0,52.0,161.0,24.0,0.0
226791,1.112619,-1.167216,-2.840294,-0.34112800000000004,0.051424,-0.036626,0.0,7.0,52.0,161.0,24.0,0.0
226792,1.118835,-1.177904,-2.863214,-0.12554300000000002,0.081352,0.060729999999999985,0.0,7.0,52.0,161.0,24.0,0.0
226793,1.133598,-1.186582,-2.864027,0.051163,-0.260101,0.104031,0.0,7.0,52.0,161.0,24.0,0.0
226794,1.161076,-1.189884,-2.842943,-0.06303500000000001,-0.512249,-0.017281,0.0,7.0,52.0,161.0,24.0,0.0
226795,1.195063,-1.184736,-2.816042,-0.22348,-0.4512100000000001,-0.042017,0.0,7.0,52.0,161.0,24.0,0.0
226796,1.222134,-1.174636,-2.792491,-0.214353,-0.268115,-0.096881,0.0,7.0,52.0,161.0,24.0,0.0
226797,1.226847,-1.164099,-2.785194,0.036502,0.0655,0.112016,0.0,7.0,52.0,161.0,24.0,0.0
226798,1.204842,-1.159716,-2.795803,0.6847270000000001,0.714414,0.1675,0.0,7.0,52.0,161.0,24.0,0.0
226799,1.188976,-1.157525,-2.805393,0.641019,0.206243,0.16868699999999998,0.0,7.0,52.0,161.0,24.0,0.0
226800,1.214048,-1.157309,-2.78285,-0.020545,0.041398,0.089101,0.0,7.0,52.0,161.0,24.0,0.0
226801,1.248954,-1.151523,-2.748385,0.195857,0.7188479999999999,-0.116908,0.0,7.0,52.0,161.0,24.0,0.0
226802,1.240037,-1.141415,-2.754555,0.763946,0.6871510000000001,-0.331944,0.0,7.0,52.0,161.0,24.0,0.0
226803,1.231702,-1.144114,-2.764737,0.368964,0.075206,-0.327164,0.0,7.0,52.0,161.0,24.0,0.0
226804,1.230504,-1.144603,-2.765173,0.050595,-0.489175,-0.116259,0.0,7.0,52.0,161.0,24.0,0.0
226805,1.23914,-1.138481,-2.760409,0.203365,0.001578,-0.16664500000000002,0.0,7.0,52.0,161.0,24.0,0.0
226806,1.269935,-1.137812,-2.727383,0.284954,0.276319,-0.206023,0.0,7.0,52.0,161.0,24.0,0.0
226807,1.298708,-1.150597,-2.688252,0.219101,0.553393,-0.110364,0.0,7.0,52.0,161.0,24.0,0.0
226808,1.321635,-1.165687,-2.657817,0.079013,-0.096428,-0.07811699999999999,0.0,7.0,52.0,161.0,24.0,0.0
226809,1.340668,-1.176197,-2.634696,-0.045572,-0.379343,-0.036693,0.0,7.0,52.0,161.0,24.0,0.0
226810,1.366998,-1.1829459999999998,-2.605416,-0.152342,-0.438999,-0.046405,0.0,7.0,52.0,161.0,24.0,0.0
226811,1.378254,-1.190338,-2.593778,-0.15547,-0.433637,-0.006968000000000001,0.0,7.0,52.0,161.0,24.0,0.0
226812,1.371813,-1.200204,-2.598979,-0.095363,-0.333968,0.06485199999999999,0.0,7.0,52.0,161.0,24.0,0.0
226813,1.369289,-1.209808,-2.599042,-0.017835,-0.39612,0.10947,0.0,7.0,52.0,161.0,24.0,0.0
226814,1.3662379999999998,-1.217173,-2.604714,0.087116,-0.365279,0.118599,0.0,7.0,52.0,161.0,24.0,0.0
226815,1.341978,-1.222314,-2.630536,0.108974,-0.334484,0.103018,0.0,7.0,52.0,161.0,24.0,0.0
226816,1.28903,-1.225036,-2.678761,0.097915,-0.28028000000000003,0.077849,0.0,7.0,52.0,161.0,24.0,0.0
226817,1.21109,-1.224004,-2.745031,-0.018846,-0.478233,-0.057777,0.0,7.0,52.0,161.0,24.0,0.0
226818,1.142166,-1.219337,-2.803295,-0.079105,-0.483137,0.091341,0.0,7.0,52.0,161.0,24.0,0.0
226819,1.085826,-1.207751,-2.848331,-0.339816,-0.06729600000000001,-0.017787,0.0,7.0,52.0,161.0,24.0,0.0
226820,1.028781,-1.18723,-2.89557,-0.227815,0.449007,-0.010353,0.0,7.0,52.0,161.0,24.0,0.0
226821,0.967231,-1.156555,-2.95971,0.289986,1.1170790000000002,0.012318,0.0,7.0,52.0,161.0,24.0,0.0
226822,0.93611,-1.139849,-3.006362,0.085337,0.5242760000000001,-0.173402,0.0,7.0,52.0,161.0,24.0,0.0
226823,0.934145,-1.129146,-3.000462,0.05657,0.4888050000000001,-0.16564700000000002,0.0,7.0,52.0,161.0,24.0,0.0
226824,0.940755,-1.105809,-2.990374,0.20988,0.65256,-0.279418,0.0,7.0,52.0,161.0,24.0,0.0
226825,0.946218,-1.085451,-2.985705,0.055985,0.558632,-0.320727,0.0,7.0,52.0,161.0,24.0,0.0
226826,0.954106,-1.0768950000000002,-2.988821,0.021058,0.311694,-0.306413,0.0,7.0,52.0,161.0,24.0,0.0
226827,0.970636,-1.074667,-2.975646,0.094003,-0.249229,-0.211867,0.0,7.0,52.0,161.0,24.0,0.0
226828,0.989365,-1.079517,-2.957796,0.016221,-0.17382899999999998,-0.045164,0.0,7.0,52.0,161.0,24.0,0.0
226829,1.011012,-1.092164,-2.944543,-0.005524,-0.025214,-0.046042,0.0,7.0,52.0,161.0,24.0,0.0
226830,1.037331,-1.106525,-2.926741,-0.126844,-0.019667,-0.060081,0.0,7.0,52.0,161.0,24.0,0.0
226831,1.066576,-1.122202,-2.906001,-0.158338,-0.107982,-0.030521,0.0,7.0,52.0,161.0,24.0,0.0
226832,1.102471,-1.139445,-2.882774,-0.210313,-0.239471,-0.041773000000000005,0.0,7.0,52.0,161.0,24.0,0.0
226833,1.148747,-1.160318,-2.856966,-0.369185,-0.302886,0.004922999999999999,0.0,7.0,52.0,161.0,24.0,0.0
226834,1.200283,-1.182992,-2.8331880000000003,-0.454369,-0.221655,0.20545500000000005,0.0,7.0,52.0,161.0,24.0,0.0
226835,1.240435,-1.202675,-2.818452,-0.376555,-0.188269,0.240972,0.0,7.0,52.0,161.0,24.0,0.0
226836,1.274509,-1.210464,-2.800764,0.015056,-0.833744,-0.017278,0.0,7.0,52.0,161.0,24.0,0.0
226837,1.31425,-1.211333,-2.7693380000000003,0.038433,-1.248448,-0.23076,0.0,7.0,52.0,161.0,24.0,0.0
226838,1.354549,-1.203581,-2.733879,-0.121118,-1.529461,-0.1637,0.0,7.0,52.0,161.0,24.0,0.0
226839,1.386015,-1.185791,-2.702138,-0.487702,-1.197915,0.050028,0.0,7.0,52.0,161.0,24.0,0.0
226840,1.414683,-1.160048,-2.662881,-0.476963,-0.016004,0.008136,0.0,7.0,52.0,161.0,24.0,0.0
226841,1.402506,-1.139801,-2.643734,0.041368,0.8404729999999999,0.18145,0.0,7.0,52.0,161.0,24.0,0.0
226842,1.33001,-1.131451,-2.6830990000000003,0.997086,1.97615,-0.332004,0.0,7.0,52.0,161.0,24.0,0.0
226843,1.326901,-1.123492,-2.673826,0.472726,0.36793,0.183421,0.0,7.0,52.0,161.0,24.0,0.0
226844,1.382631,-1.12637,-2.603527,-0.7897609999999999,-0.311183,0.154894,0.0,7.0,52.0,161.0,24.0,0.0
226845,1.394574,-1.123392,-2.600719,-0.8318040000000001,0.6940689999999999,-0.283491,0.0,7.0,52.0,161.0,24.0,0.0
226846,1.346478,-1.133382,-2.665363,1.019393,1.715854,-0.963369,0.0,7.0,52.0,161.0,24.0,0.0
226847,1.28984,-1.165029,-2.718828,1.178011,0.17633900000000002,0.031586,0.0,7.0,52.0,161.0,24.0,0.0
226848,1.269372,-1.1673129999999998,-2.739093,0.6004109999999999,-0.554083,0.018223,0.0,7.0,52.0,161.0,24.0,0.0
226849,1.261764,-1.151333,-2.736672,0.290374,-0.247094,-0.277955,0.0,7.0,52.0,161.0,24.0,0.0
226850,1.237749,-1.141612,-2.746162,-0.112879,-0.12608699999999998,-0.192613,0.0,7.0,52.0,161.0,24.0,0.0
226851,1.1951969999999998,-1.136496,-2.77413,-0.194113,-0.357741,0.039731,0.0,7.0,52.0,161.0,24.0,0.0
226852,1.146119,-1.134598,-2.809631,-0.238832,-0.7605970000000001,0.272347,0.0,7.0,52.0,161.0,24.0,0.0
226853,1.114622,-1.135719,-2.827652,-0.441415,-0.974617,0.322846,0.0,7.0,52.0,161.0,24.0,0.0
226854,1.083815,-1.135107,-2.846391,-0.35036,-0.155328,0.246857,0.0,7.0,52.0,161.0,24.0,0.0
226855,1.038141,-1.126158,-2.882325,-0.155868,0.53867,-0.00731,0.0,7.0,52.0,161.0,24.0,0.0
226856,0.986998,-1.109739,-2.938529,0.227083,0.975435,0.161758,0.0,7.0,52.0,161.0,24.0,0.0
226857,0.963488,-1.096015,-2.9769400000000004,0.19608,0.266094,0.08025399999999999,0.0,7.0,52.0,161.0,24.0,0.0
226858,0.964409,-1.087147,-2.966334,0.035076,0.027553,0.016858,0.0,7.0,52.0,161.0,24.0,0.0
226859,0.956802,-1.080847,-2.951684,0.153356,0.286146,0.025635,0.0,7.0,52.0,161.0,24.0,0.0
226860,0.948979,-1.080457,-2.948019,0.026425,0.6511979999999999,-0.127994,0.0,7.0,52.0,161.0,24.0,0.0
226861,0.955347,-1.082367,-2.945107,-0.171417,0.7782600000000001,-0.32321300000000003,0.0,7.0,52.0,161.0,24.0,0.0
226862,0.975223,-1.084293,-2.937492,-0.050758,0.26657,-0.350376,0.0,7.0,52.0,161.0,24.0,0.0
226863,0.999336,-1.088973,-2.920843,0.1667,-0.221814,-0.230783,0.0,7.0,52.0,161.0,24.0,0.0
226864,1.025916,-1.100407,-2.905149,0.15976,-0.248158,-0.15847,0.0,7.0,52.0,161.0,24.0,0.0
226865,1.057852,-1.113627,-2.887571,0.13131099999999998,-0.14649700000000002,-0.083537,0.0,7.0,52.0,161.0,24.0,0.0
226866,1.096341,-1.129155,-2.86337,-0.018151,-0.105543,-0.135983,0.0,7.0,52.0,161.0,24.0,0.0
226867,1.139073,-1.149274,-2.832684,-0.346139,-0.048118,0.020019,0.0,7.0,52.0,161.0,24.0,0.0
226868,1.174058,-1.173705,-2.807894,-0.403139,-0.054178,0.083491,0.0,7.0,52.0,161.0,24.0,0.0
226869,1.19948,-1.199893,-2.788941,-0.431741,-0.110727,0.252593,0.0,7.0,52.0,161.0,24.0,0.0
226870,1.229527,-1.219574,-2.764721,-0.306202,-0.701144,0.018665,0.0,7.0,52.0,161.0,24.0,0.0
226871,1.263811,-1.226823,-2.7445630000000003,-0.157096,-1.0533,-0.021216,0.0,7.0,52.0,161.0,24.0,0.0
226872,1.288845,-1.225878,-2.737434,-0.160919,-1.179857,-0.096719,0.0,7.0,52.0,161.0,24.0,0.0
226873,1.313229,-1.219443,-2.7283,-0.196828,-1.237522,0.027004000000000004,0.0,7.0,52.0,161.0,24.0,0.0
226874,1.338516,-1.210187,-2.702776,-0.315795,-0.976881,-0.022516,0.0,7.0,52.0,161.0,24.0,0.0
226875,1.335657,-1.201271,-2.670058,-0.388176,-0.472782,0.105817,0.0,7.0,52.0,161.0,24.0,0.0
226876,1.255533,-1.200886,-2.7039470000000003,1.470492,2.575514,0.157404,0.0,7.0,52.0,161.0,24.0,0.0
226877,1.216178,-1.20245,-2.728815,0.419575,0.223082,-0.280107,0.0,7.0,52.0,161.0,24.0,0.0
226878,1.280502,-1.2017870000000002,-2.672005,-0.147482,-0.604499,-0.442563,0.0,7.0,52.0,161.0,24.0,0.0
226879,1.305539,-1.1826,-2.664487,-0.134724,-0.013179,-0.061745,0.0,7.0,52.0,161.0,24.0,0.0
226880,1.290337,-1.168223,-2.683973,0.606791,0.561542,-1.066477,0.0,7.0,52.0,161.0,24.0,0.0
226881,1.260615,-1.17871,-2.68177,1.215092,1.186802,-0.834169,0.0,7.0,52.0,161.0,24.0,0.0
226882,1.253153,-1.195137,-2.682703,0.952336,-0.129592,-0.328021,0.0,7.0,52.0,161.0,24.0,0.0
226883,1.2814020000000002,-1.2045370000000002,-2.649637,0.645092,-0.389957,-0.235613,0.0,7.0,52.0,161.0,24.0,0.0
226884,1.300159,-1.214407,-2.604778,0.380085,-0.226836,-0.142959,0.0,7.0,52.0,161.0,24.0,0.0
226885,1.302103,-1.224474,-2.571793,0.070765,0.302735,-0.24037600000000006,0.0,7.0,52.0,161.0,24.0,0.0
226886,1.295491,-1.237299,-2.563342,0.128431,0.013028,-0.040666,0.0,7.0,52.0,161.0,24.0,0.0
226887,1.287556,-1.252566,-2.557345,0.14315999999999998,-0.178673,0.037057,0.0,7.0,52.0,161.0,24.0,0.0
226888,1.271864,-1.269679,-2.553188,-0.205316,-0.345768,0.200671,0.0,7.0,52.0,161.0,24.0,0.0
226889,1.23522,-1.2830469999999998,-2.573934,-0.324063,-0.584358,0.215967,0.0,7.0,52.0,161.0,24.0,0.0
226890,1.183779,-1.288831,-2.6137490000000003,-0.370191,-0.529633,0.239883,0.0,7.0,52.0,161.0,24.0,0.0
226891,1.122667,-1.286856,-2.664673,-0.387102,-0.067885,0.187776,0.0,7.0,52.0,161.0,24.0,0.0
226892,1.0504,-1.271072,-2.734128,0.042412,0.7076979999999999,0.229867,0.0,7.0,52.0,161.0,24.0,0.0
226893,0.973602,-1.240625,-2.8092080000000004,0.914716,0.835828,0.136507,0.0,7.0,52.0,161.0,24.0,0.0
226894,0.931682,-1.222027,-2.826862,0.394399,0.424433,0.118461,0.0,7.0,52.0,161.0,24.0,0.0
226895,0.929159,-1.212126,-2.785443,0.207388,0.438559,-0.063307,0.0,7.0,52.0,161.0,24.0,0.0
