index,attitude.roll,attitude.pitch,attitude.yaw,userAcceleration.x,userAcceleration.y,userAcceleration.z,act,id,weight,height,age,gender
258355,-0.678384,-1.421411,-0.311412,1.469968,1.0676709999999998,-0.357377,0.0,8.0,93.0,190.0,32.0,1.0
258356,-0.575516,-1.423473,-0.23399,0.026322,0.183898,0.447267,0.0,8.0,93.0,190.0,32.0,1.0
258357,-0.543335,-1.422046,-0.182984,-0.044059,0.069148,0.19938,0.0,8.0,93.0,190.0,32.0,1.0
258358,-0.574607,-1.422407,-0.192469,-0.116756,-0.054013,-0.037539,0.0,8.0,93.0,190.0,32.0,1.0
258359,-0.613945,-1.422876,-0.222563,-0.174278,-0.123067,0.220179,0.0,8.0,93.0,190.0,32.0,1.0
258360,-0.672918,-1.425642,-0.283097,-0.053233,-0.14497100000000002,0.040708,0.0,8.0,93.0,190.0,32.0,1.0
258361,-0.751931,-1.427139,-0.3643050000000001,0.094232,-0.165663,-0.190986,0.0,8.0,93.0,190.0,32.0,1.0
258362,-0.8234450000000001,-1.426823,-0.440758,0.150633,-0.257979,-0.17591700000000002,0.0,8.0,93.0,190.0,32.0,1.0
258363,-0.8436879999999999,-1.422794,-0.473734,0.133164,-0.325646,-0.065477,0.0,8.0,93.0,190.0,32.0,1.0
258364,-0.8310700000000001,-1.414763,-0.472876,0.153224,-0.330854,-0.039365,0.0,8.0,93.0,190.0,32.0,1.0
258365,-0.813178,-1.408907,-0.466326,0.000596,-0.405488,0.004992,0.0,8.0,93.0,190.0,32.0,1.0
258366,-0.7834939999999999,-1.402045,-0.448028,0.02535,-0.410142,-0.016297,0.0,8.0,93.0,190.0,32.0,1.0
258367,-0.769502,-1.396359,-0.447561,0.065582,-0.310935,-0.011343,0.0,8.0,93.0,190.0,32.0,1.0
258368,-0.772297,-1.393445,-0.468175,0.132141,-0.096787,0.039843,0.0,8.0,93.0,190.0,32.0,1.0
258369,-0.773526,-1.39117,-0.491054,0.361949,0.178245,0.003803,0.0,8.0,93.0,190.0,32.0,1.0
258370,-0.7137220000000001,-1.385952,-0.466563,0.6730430000000001,0.438117,0.049291,0.0,8.0,93.0,190.0,32.0,1.0
258371,-0.566944,-1.37784,-0.346544,0.532803,0.4218020000000001,-0.195539,0.0,8.0,93.0,190.0,32.0,1.0
258372,-0.371507,-1.355878,-0.160721,0.07946,0.819652,-0.5070279999999999,0.0,8.0,93.0,190.0,32.0,1.0
258373,-0.19768,-1.315481,0.03032,-0.125756,1.180854,-0.006956,0.0,8.0,93.0,190.0,32.0,1.0
258374,-0.070479,-1.260326,0.178427,-0.047166,0.8738600000000001,0.227943,0.0,8.0,93.0,190.0,32.0,1.0
258375,0.005503,-1.203446,0.279429,-0.268685,0.222739,0.504899,0.0,8.0,93.0,190.0,32.0,1.0
258376,0.033681,-1.1572559999999998,0.341668,-0.447034,0.072181,0.533212,0.0,8.0,93.0,190.0,32.0,1.0
258377,0.05948,-1.133306,0.38907,-0.454506,-0.16158599999999998,0.29890500000000003,0.0,8.0,93.0,190.0,32.0,1.0
258378,0.093163,-1.130417,0.426488,-0.217299,-0.259204,0.370795,0.0,8.0,93.0,190.0,32.0,1.0
258379,0.12266,-1.136259,0.451011,-0.253184,-0.315756,0.406593,0.0,8.0,93.0,190.0,32.0,1.0
258380,0.14485599999999998,-1.151547,0.462841,-0.285033,-0.525043,0.459661,0.0,8.0,93.0,190.0,32.0,1.0
258381,0.150482,-1.176448,0.458031,-0.248409,-0.64012,0.472068,0.0,8.0,93.0,190.0,32.0,1.0
258382,0.135823,-1.209549,0.435082,-0.207159,-0.656862,0.402487,0.0,8.0,93.0,190.0,32.0,1.0
258383,0.098633,-1.248622,0.3945,-0.12550899999999998,-0.63759,0.287572,0.0,8.0,93.0,190.0,32.0,1.0
258384,0.026502,-1.291497,0.328355,-0.010525,-0.572501,0.148715,0.0,8.0,93.0,190.0,32.0,1.0
258385,-0.099779,-1.334947,0.217086,0.068121,-0.444072,0.037244,0.0,8.0,93.0,190.0,32.0,1.0
258386,-0.298366,-1.369893,0.037424,0.056811,-0.254301,-0.149836,0.0,8.0,93.0,190.0,32.0,1.0
258387,-0.563807,-1.382185,-0.19843,0.059389,0.167301,-0.281677,0.0,8.0,93.0,190.0,32.0,1.0
258388,-0.818473,-1.371955,-0.399312,0.117185,0.319768,-0.276466,0.0,8.0,93.0,190.0,32.0,1.0
258389,-1.011908,-1.360753,-0.5238,0.08745499999999999,0.620275,-0.004929,0.0,8.0,93.0,190.0,32.0,1.0
258390,-1.160203,-1.368159,-0.635833,0.395098,0.4356680000000001,-0.013456,0.0,8.0,93.0,190.0,32.0,1.0
258391,-1.170243,-1.3860059999999998,-0.674391,0.227759,0.251354,0.426405,0.0,8.0,93.0,190.0,32.0,1.0
258392,-1.101325,-1.400416,-0.655749,-0.487369,0.148055,0.554806,0.0,8.0,93.0,190.0,32.0,1.0
258393,-1.121998,-1.405633,-0.688833,-0.962604,0.252424,-0.5154340000000001,0.0,8.0,93.0,190.0,32.0,1.0
258394,-1.1176549999999998,-1.404921,-0.6571859999999999,-0.33113400000000004,0.485421,0.61836,0.0,8.0,93.0,190.0,32.0,1.0
258395,-1.056517,-1.3852719999999998,-0.598889,1.256397,0.692453,-0.24952600000000005,0.0,8.0,93.0,190.0,32.0,1.0
258396,-1.072523,-1.381879,-0.630125,0.869705,0.436005,0.075566,0.0,8.0,93.0,190.0,32.0,1.0
258397,-0.991257,-1.3918469999999998,-0.580441,0.254249,0.267479,0.276591,0.0,8.0,93.0,190.0,32.0,1.0
258398,-0.969453,-1.396585,-0.551493,-0.015918,-0.133332,0.210891,0.0,8.0,93.0,190.0,32.0,1.0
258399,-0.960653,-1.39308,-0.5248,-0.017497,-0.216336,0.011715,0.0,8.0,93.0,190.0,32.0,1.0
258400,-0.974042,-1.3922709999999998,-0.534646,-0.040765,-0.214484,0.026647000000000004,0.0,8.0,93.0,190.0,32.0,1.0
258401,-1.004151,-1.39437,-0.574345,-0.020238,-0.196544,0.103224,0.0,8.0,93.0,190.0,32.0,1.0
258402,-1.040794,-1.393259,-0.6175579999999999,0.031284,-0.182829,-0.019599,0.0,8.0,93.0,190.0,32.0,1.0
258403,-1.0926049999999998,-1.392087,-0.676639,0.164519,-0.18166,-0.178553,0.0,8.0,93.0,190.0,32.0,1.0
258404,-1.126,-1.390811,-0.724383,0.264378,-0.244405,-0.065515,0.0,8.0,93.0,190.0,32.0,1.0
258405,-1.109202,-1.3884530000000002,-0.7266729999999999,0.167926,-0.336586,-0.197551,0.0,8.0,93.0,190.0,32.0,1.0
258406,-1.061877,-1.385145,-0.694749,0.021272,-0.423338,-0.145148,0.0,8.0,93.0,190.0,32.0,1.0
258407,-0.997927,-1.376535,-0.641125,0.133156,-0.4301350000000001,-0.068497,0.0,8.0,93.0,190.0,32.0,1.0
258408,-0.949034,-1.365726,-0.605755,0.250078,-0.35719,0.024136,0.0,8.0,93.0,190.0,32.0,1.0
258409,-0.915372,-1.359272,-0.593276,0.245873,-0.063314,-0.021733,0.0,8.0,93.0,190.0,32.0,1.0
258410,-0.868099,-1.352734,-0.5666260000000001,0.130653,0.546921,0.040547,0.0,8.0,93.0,190.0,32.0,1.0
258411,-0.7754489999999999,-1.338923,-0.485682,0.052279,1.054716,0.010376,0.0,8.0,93.0,190.0,32.0,1.0
258412,-0.6410170000000001,-1.317397,-0.348764,0.205668,0.8849309999999999,-0.070487,0.0,8.0,93.0,190.0,32.0,1.0
258413,-0.472449,-1.286657,-0.17316900000000002,-0.088926,0.900845,-0.103306,0.0,8.0,93.0,190.0,32.0,1.0
258414,-0.308222,-1.250032,-0.011396,-0.18536,0.73492,-0.011585,0.0,8.0,93.0,190.0,32.0,1.0
258415,-0.186673,-1.208266,0.111466,-0.233072,0.557002,0.071664,0.0,8.0,93.0,190.0,32.0,1.0
258416,-0.144726,-1.161626,0.183107,-0.324931,0.116683,0.397696,0.0,8.0,93.0,190.0,32.0,1.0
258417,-0.148925,-1.127459,0.212411,-0.213851,-0.127858,0.249154,0.0,8.0,93.0,190.0,32.0,1.0
258418,-0.146525,-1.117166,0.226365,-0.123549,-0.08714,0.185438,0.0,8.0,93.0,190.0,32.0,1.0
258419,-0.130503,-1.121776,0.235233,-0.057526,-0.10264,0.246855,0.0,8.0,93.0,190.0,32.0,1.0
258420,-0.107597,-1.136196,0.244697,-0.105892,-0.385112,0.469938,0.0,8.0,93.0,190.0,32.0,1.0
258421,-0.092153,-1.156791,0.247815,-0.09198,-0.515004,0.480538,0.0,8.0,93.0,190.0,32.0,1.0
258422,-0.097222,-1.180111,0.235602,-0.024924,-0.752422,0.447683,0.0,8.0,93.0,190.0,32.0,1.0
258423,-0.13281099999999998,-1.207052,0.198903,0.029258,-0.917909,0.363501,0.0,8.0,93.0,190.0,32.0,1.0
258424,-0.208328,-1.238174,0.12855999999999998,0.112789,-0.964705,0.320828,0.0,8.0,93.0,190.0,32.0,1.0
258425,-0.335716,-1.27184,0.013772,0.15974000000000002,-0.803606,0.2476,0.0,8.0,93.0,190.0,32.0,1.0
258426,-0.521569,-1.298684,-0.146543,0.203546,-0.5446409999999999,0.159718,0.0,8.0,93.0,190.0,32.0,1.0
258427,-0.739575,-1.309551,-0.325203,0.173458,-0.178792,-0.049648000000000005,0.0,8.0,93.0,190.0,32.0,1.0
258428,-0.955557,-1.305666,-0.485421,0.12623900000000002,0.410384,-0.386233,0.0,8.0,93.0,190.0,32.0,1.0
258429,-1.142374,-1.29367,-0.595853,0.156952,0.912727,-0.421226,0.0,8.0,93.0,190.0,32.0,1.0
258430,-1.298758,-1.294527,-0.676898,0.229018,0.462313,0.137284,0.0,8.0,93.0,190.0,32.0,1.0
258431,-1.39378,-1.307218,-0.756513,-0.009631,0.6115470000000001,-0.314384,0.0,8.0,93.0,190.0,32.0,1.0
258432,-1.378102,-1.326455,-0.778964,-0.542497,0.144022,0.313644,0.0,8.0,93.0,190.0,32.0,1.0
258433,-1.342417,-1.341864,-0.7883859999999999,-0.8929389999999999,0.377028,-0.335634,0.0,8.0,93.0,190.0,32.0,1.0
258434,-1.407749,-1.349392,-0.8214530000000001,-1.2014200000000002,0.5521050000000001,-0.5882569999999999,0.0,8.0,93.0,190.0,32.0,1.0
258435,-1.262765,-1.333199,-0.6767529999999999,0.895265,0.695818,0.308186,0.0,8.0,93.0,190.0,32.0,1.0
258436,-1.158035,-1.313476,-0.564383,1.2165780000000002,0.453136,0.142714,0.0,8.0,93.0,190.0,32.0,1.0
258437,-1.077448,-1.3139120000000002,-0.48365,0.430073,-0.07276200000000001,0.540373,0.0,8.0,93.0,190.0,32.0,1.0
258438,-1.020651,-1.319072,-0.425525,-0.157791,0.286292,0.206917,0.0,8.0,93.0,190.0,32.0,1.0
258439,-1.035012,-1.321125,-0.429434,-0.056289,0.32837,0.008916,0.0,8.0,93.0,190.0,32.0,1.0
258440,-1.066147,-1.321546,-0.458503,0.030994,-0.101941,0.333831,0.0,8.0,93.0,190.0,32.0,1.0
258441,-1.116272,-1.321906,-0.512177,0.021949,-0.102243,0.146623,0.0,8.0,93.0,190.0,32.0,1.0
258442,-1.189145,-1.319965,-0.585942,-0.008114,-0.14163399999999998,0.049395,0.0,8.0,93.0,190.0,32.0,1.0
258443,-1.273138,-1.31197,-0.667936,0.041184,-0.274583,0.143907,0.0,8.0,93.0,190.0,32.0,1.0
258444,-1.368777,-1.299115,-0.762606,0.060654,-0.274722,0.150445,0.0,8.0,93.0,190.0,32.0,1.0
258445,-1.461203,-1.281673,-0.8548290000000001,0.116256,-0.245588,0.089516,0.0,8.0,93.0,190.0,32.0,1.0
258446,-1.549387,-1.2610940000000002,-0.941226,0.16905499999999998,-0.1792,-0.041709,0.0,8.0,93.0,190.0,32.0,1.0
258447,-1.631895,-1.238221,-1.022169,0.17999600000000002,-0.089629,-0.061041,0.0,8.0,93.0,190.0,32.0,1.0
258448,-1.7027009999999998,-1.212403,-1.0908209999999998,0.196694,0.069108,-0.07607,0.0,8.0,93.0,190.0,32.0,1.0
258449,-1.740618,-1.185612,-1.131412,0.501004,0.337858,-0.221686,0.0,8.0,93.0,190.0,32.0,1.0
258450,-1.7419080000000002,-1.16153,-1.140127,0.747033,0.047843,-0.347039,0.0,8.0,93.0,190.0,32.0,1.0
258451,-1.724695,-1.142952,-1.120577,0.779258,-0.047908,-0.074053,0.0,8.0,93.0,190.0,32.0,1.0
258452,-1.7097509999999998,-1.128556,-1.086819,0.7301810000000001,0.13828900000000002,-0.125147,0.0,8.0,93.0,190.0,32.0,1.0
258453,-1.702634,-1.115202,-1.055691,0.674372,0.380488,-0.109444,0.0,8.0,93.0,190.0,32.0,1.0
258454,-1.682047,-1.105012,-1.015988,0.756564,0.341043,-0.267452,0.0,8.0,93.0,190.0,32.0,1.0
258455,-1.632304,-1.102748,-0.950664,0.7085670000000001,0.700048,-0.521566,0.0,8.0,93.0,190.0,32.0,1.0
258456,-1.550801,-1.114482,-0.846636,0.557458,0.8633799999999999,-0.581522,0.0,8.0,93.0,190.0,32.0,1.0
258457,-1.441271,-1.134138,-0.699599,0.415501,0.917194,-0.31586,0.0,8.0,93.0,190.0,32.0,1.0
258458,-1.300943,-1.151708,-0.515178,0.046779,0.424492,0.606955,0.0,8.0,93.0,190.0,32.0,1.0
258459,-1.150908,-1.167751,-0.310069,-0.394712,0.679739,0.777976,0.0,8.0,93.0,190.0,32.0,1.0
258460,-0.999799,-1.184565,-0.116059,-0.760048,0.986018,0.878807,0.0,8.0,93.0,190.0,32.0,1.0
258461,-0.8734280000000001,-1.189758,0.011624,-0.285166,0.620534,0.11793900000000003,0.0,8.0,93.0,190.0,32.0,1.0
258462,-0.767307,-1.192332,0.117682,0.664744,0.545285,0.582507,0.0,8.0,93.0,190.0,32.0,1.0
258463,-0.650824,-1.199469,0.229527,0.667549,0.5116649999999999,0.6560729999999999,0.0,8.0,93.0,190.0,32.0,1.0
258464,-0.532818,-1.224924,0.356848,-0.011406,0.286179,0.335394,0.0,8.0,93.0,190.0,32.0,1.0
258465,-0.438213,-1.235325,0.499324,-0.245062,-0.056941,0.630754,0.0,8.0,93.0,190.0,32.0,1.0
258466,-0.38229,-1.231786,0.6350399999999999,-0.236542,-0.141647,0.739766,0.0,8.0,93.0,190.0,32.0,1.0
258467,-0.352131,-1.224246,0.75498,-0.233916,-0.30435,0.657991,0.0,8.0,93.0,190.0,32.0,1.0
258468,-0.341938,-1.2227709999999998,0.8531700000000001,-0.234662,-0.430969,0.52571,0.0,8.0,93.0,190.0,32.0,1.0
258469,-0.36191,-1.226312,0.924221,-0.205614,-0.57629,0.530379,0.0,8.0,93.0,190.0,32.0,1.0
258470,-0.417901,-1.231292,0.964739,-0.281996,-0.722186,0.530867,0.0,8.0,93.0,190.0,32.0,1.0
258471,-0.5012989999999999,-1.240506,0.96839,-0.43114,-0.765864,0.4154600000000001,0.0,8.0,93.0,190.0,32.0,1.0
258472,-0.611792,-1.255293,0.921425,-0.61873,-0.6971609999999999,0.361333,0.0,8.0,93.0,190.0,32.0,1.0
258473,-0.745804,-1.269881,0.8201129999999999,-0.616682,-0.462161,0.228431,0.0,8.0,93.0,190.0,32.0,1.0
258474,-0.88121,-1.272062,0.6915680000000001,-0.252685,0.052942,-0.096501,0.0,8.0,93.0,190.0,32.0,1.0
258475,-0.99806,-1.254653,0.590754,0.102067,0.680845,-1.153968,0.0,8.0,93.0,190.0,32.0,1.0
258476,-1.00443,-1.214501,0.62869,1.036089,1.510345,-1.463485,0.0,8.0,93.0,190.0,32.0,1.0
258477,-0.923456,-1.198514,0.7295159999999999,0.966596,0.285846,0.134712,0.0,8.0,93.0,190.0,32.0,1.0
258478,-0.847469,-1.2057,0.8168340000000001,0.565588,0.039315,0.359585,0.0,8.0,93.0,190.0,32.0,1.0
258479,-0.789608,-1.232494,0.8788799999999999,-0.002473,0.021036000000000003,1.058036,0.0,8.0,93.0,190.0,32.0,1.0
258480,-0.756486,-1.268006,0.8957280000000001,-0.584164,-0.002543,0.056184000000000005,0.0,8.0,93.0,190.0,32.0,1.0
258481,-0.742971,-1.275433,0.8957700000000001,-0.635601,0.091949,-0.8206709999999999,0.0,8.0,93.0,190.0,32.0,1.0
258482,-0.679537,-1.248319,0.94703,0.060588,0.401217,-0.334944,0.0,8.0,93.0,190.0,32.0,1.0
258483,-0.688063,-1.233966,0.963892,0.275789,0.188441,0.76289,0.0,8.0,93.0,190.0,32.0,1.0
258484,-0.731781,-1.213987,0.960848,0.241226,-0.018315,1.134534,0.0,8.0,93.0,190.0,32.0,1.0
258485,-0.798772,-1.189942,0.942141,0.249326,-0.096744,0.631304,0.0,8.0,93.0,190.0,32.0,1.0
258486,-0.888386,-1.173025,0.909579,0.522714,0.123285,0.678189,0.0,8.0,93.0,190.0,32.0,1.0
258487,-0.988985,-1.163795,0.875875,0.477719,0.268044,0.519778,0.0,8.0,93.0,190.0,32.0,1.0
258488,-1.085918,-1.170054,0.8394219999999999,0.403794,0.29041,0.456815,0.0,8.0,93.0,190.0,32.0,1.0
258489,-1.170807,-1.193692,0.795419,0.191094,0.224135,0.373641,0.0,8.0,93.0,190.0,32.0,1.0
258490,-1.239769,-1.218116,0.742731,-0.13829,0.182857,-0.038467,0.0,8.0,93.0,190.0,32.0,1.0
258491,-1.325575,-1.235757,0.684684,-0.38489,-0.157288,-0.0502,0.0,8.0,93.0,190.0,32.0,1.0
258492,-1.428714,-1.239165,0.619215,-0.381556,-0.158403,-0.08391799999999999,0.0,8.0,93.0,190.0,32.0,1.0
258493,-1.528044,-1.230707,0.5525800000000001,-0.153052,-0.234259,0.050938,0.0,8.0,93.0,190.0,32.0,1.0
258494,-1.61826,-1.215825,0.4902220000000001,-0.01674,-0.049214,0.034322000000000005,0.0,8.0,93.0,190.0,32.0,1.0
258495,-1.705475,-1.196819,0.4276680000000001,0.090189,0.073742,-0.015388999999999996,0.0,8.0,93.0,190.0,32.0,1.0
258496,-1.776977,-1.178607,0.370146,0.209349,0.106703,-0.076336,0.0,8.0,93.0,190.0,32.0,1.0
258497,-1.829803,-1.1615,0.32865500000000003,0.279034,-0.090695,-0.075158,0.0,8.0,93.0,190.0,32.0,1.0
258498,-1.874103,-1.140987,0.296103,0.357833,-0.128436,-0.014879,0.0,8.0,93.0,190.0,32.0,1.0
258499,-1.91753,-1.11881,0.27338,0.522041,-0.019973,0.118004,0.0,8.0,93.0,190.0,32.0,1.0
258500,-1.95697,-1.097001,0.262581,0.553325,0.107914,-0.062515,0.0,8.0,93.0,190.0,32.0,1.0
258501,-1.982377,-1.078894,0.26265900000000003,0.562148,0.189975,-0.122688,0.0,8.0,93.0,190.0,32.0,1.0
258502,-1.997639,-1.065518,0.268681,0.4914770000000001,0.328955,-0.08454400000000001,0.0,8.0,93.0,190.0,32.0,1.0
258503,-2.006228,-1.057345,0.28026100000000004,0.204904,0.281213,-0.223717,0.0,8.0,93.0,190.0,32.0,1.0
258504,-2.016547,-1.055569,0.291608,0.115774,0.466321,-0.481775,0.0,8.0,93.0,190.0,32.0,1.0
258505,-2.009013,-1.052042,0.324537,0.485326,0.474397,-0.277679,0.0,8.0,93.0,190.0,32.0,1.0
258506,-1.978228,-1.053015,0.374729,0.99327,0.33538,0.079515,0.0,8.0,93.0,190.0,32.0,1.0
258507,-1.946635,-1.061466,0.430565,0.7451220000000001,0.462683,-0.096568,0.0,8.0,93.0,190.0,32.0,1.0
258508,-1.909341,-1.0797450000000002,0.515362,0.742653,0.542662,-0.052371,0.0,8.0,93.0,190.0,32.0,1.0
258509,-1.849647,-1.110923,0.640124,0.46601,0.6039220000000001,0.045259,0.0,8.0,93.0,190.0,32.0,1.0
258510,-1.7563939999999998,-1.15258,0.799135,0.226729,0.4255560000000001,0.16709300000000002,0.0,8.0,93.0,190.0,32.0,1.0
258511,-1.6433080000000002,-1.19488,0.976015,-0.202571,0.4764140000000001,0.314697,0.0,8.0,93.0,190.0,32.0,1.0
258512,-1.501653,-1.225258,1.167891,-0.34453,0.539927,0.493736,0.0,8.0,93.0,190.0,32.0,1.0
258513,-1.346569,-1.239399,1.358583,-0.281648,0.316878,0.477187,0.0,8.0,93.0,190.0,32.0,1.0
258514,-1.200836,-1.243599,1.536182,-0.157055,0.194548,0.395604,0.0,8.0,93.0,190.0,32.0,1.0
258515,-1.057126,-1.243845,1.6996209999999998,-0.023194,0.203334,0.221138,0.0,8.0,93.0,190.0,32.0,1.0
258516,-0.917324,-1.242698,1.849294,0.118387,0.164107,0.219882,0.0,8.0,93.0,190.0,32.0,1.0
258517,-0.785482,-1.243528,1.989785,0.304123,0.171286,0.338158,0.0,8.0,93.0,190.0,32.0,1.0
258518,-0.6582180000000001,-1.244335,2.134378,0.27909,0.273856,0.473574,0.0,8.0,93.0,190.0,32.0,1.0
258519,-0.5431630000000001,-1.249462,2.282475,0.160572,0.168235,0.548742,0.0,8.0,93.0,190.0,32.0,1.0
258520,-0.429971,-1.257516,2.432386,0.011481,0.096799,0.538305,0.0,8.0,93.0,190.0,32.0,1.0
258521,-0.331077,-1.257451,2.582318,-0.133375,-0.076033,0.5320699999999999,0.0,8.0,93.0,190.0,32.0,1.0
258522,-0.265892,-1.253865,2.715534,-0.155219,-0.23112600000000005,0.556891,0.0,8.0,93.0,190.0,32.0,1.0
258523,-0.232977,-1.249671,2.826855,-0.193597,-0.356123,0.550405,0.0,8.0,93.0,190.0,32.0,1.0
258524,-0.222868,-1.247882,2.913119,-0.276789,-0.469555,0.431916,0.0,8.0,93.0,190.0,32.0,1.0
258525,-0.227292,-1.2518049999999998,2.972458,-0.353835,-0.520628,0.307995,0.0,8.0,93.0,190.0,32.0,1.0
258526,-0.244427,-1.262656,3.006001,-0.353062,-0.481998,0.325822,0.0,8.0,93.0,190.0,32.0,1.0
258527,-0.27265500000000004,-1.279497,3.018119,-0.335539,-0.5012979999999999,0.33970700000000004,0.0,8.0,93.0,190.0,32.0,1.0
258528,-0.316359,-1.301451,3.0062,-0.27212600000000003,-0.533037,0.265306,0.0,8.0,93.0,190.0,32.0,1.0
258529,-0.385427,-1.324778,2.961907,-0.235384,-0.527766,0.207202,0.0,8.0,93.0,190.0,32.0,1.0
258530,-0.487234,-1.343799,2.881951,-0.173091,-0.497662,0.156782,0.0,8.0,93.0,190.0,32.0,1.0
258531,-0.6100760000000001,-1.353824,2.783677,-0.029835000000000007,-0.305259,0.04427,0.0,8.0,93.0,190.0,32.0,1.0
258532,-0.724302,-1.356223,2.701657,0.015625999999999998,-0.289048,-0.004001,0.0,8.0,93.0,190.0,32.0,1.0
258533,-0.828625,-1.357178,2.634414,0.10371199999999997,-0.307211,-0.070787,0.0,8.0,93.0,190.0,32.0,1.0
258534,-0.939601,-1.358411,2.5581720000000003,0.098936,-0.17797000000000002,-0.149327,0.0,8.0,93.0,190.0,32.0,1.0
258535,-1.04732,-1.357141,2.477892,0.101226,-0.053785,-0.102337,0.0,8.0,93.0,190.0,32.0,1.0
258536,-1.141288,-1.3547360000000002,2.3994150000000003,0.042581,0.106563,0.056072,0.0,8.0,93.0,190.0,32.0,1.0
258537,-1.236048,-1.356422,2.313287,-0.225193,0.228548,0.162698,0.0,8.0,93.0,190.0,32.0,1.0
258538,-1.353238,-1.365793,2.1993080000000003,-0.46948,0.413976,-0.054686,0.0,8.0,93.0,190.0,32.0,1.0
258539,-1.497206,-1.375649,2.055128,-0.407914,0.371169,0.016878,0.0,8.0,93.0,190.0,32.0,1.0
258540,-1.600055,-1.382687,1.95405,-0.276242,0.30362100000000003,0.160348,0.0,8.0,93.0,190.0,32.0,1.0
258541,-1.68124,-1.389475,1.868392,0.110353,0.21868,0.198986,0.0,8.0,93.0,190.0,32.0,1.0
258542,-1.739699,-1.39446,1.805166,0.392698,0.8806799999999999,-0.660142,0.0,8.0,93.0,190.0,32.0,1.0
258543,-1.7303830000000002,-1.397983,1.805569,0.39993,0.464587,-0.004048,0.0,8.0,93.0,190.0,32.0,1.0
258544,-1.750644,-1.400653,1.800139,0.399102,0.27170300000000003,0.005701,0.0,8.0,93.0,190.0,32.0,1.0
258545,-1.774677,-1.405159,1.7985810000000002,-0.068047,0.561599,-0.17115999999999998,0.0,8.0,93.0,190.0,32.0,1.0
258546,-1.75163,-1.409238,1.828137,-0.015235,0.149756,-0.103139,0.0,8.0,93.0,190.0,32.0,1.0
258547,-1.7404389999999998,-1.418379,1.844079,-0.091801,-0.10889,0.024044,0.0,8.0,93.0,190.0,32.0,1.0
258548,-1.7010189999999998,-1.425325,1.904243,-0.015582,-0.37576,0.084455,0.0,8.0,93.0,190.0,32.0,1.0
258549,-1.675748,-1.4260959999999998,1.955095,0.062946,-0.396364,0.102256,0.0,8.0,93.0,190.0,32.0,1.0
258550,-1.709357,-1.422172,1.932184,0.071039,-0.437203,0.116946,0.0,8.0,93.0,190.0,32.0,1.0
258551,-1.769261,-1.415283,1.876123,0.193189,-0.315386,-0.155848,0.0,8.0,93.0,190.0,32.0,1.0
258552,-1.785289,-1.410691,1.857051,0.230561,-0.121106,-0.255571,0.0,8.0,93.0,190.0,32.0,1.0
258553,-1.750657,-1.412066,1.876955,0.142246,-0.148104,-0.306236,0.0,8.0,93.0,190.0,32.0,1.0
258554,-1.703404,-1.417164,1.910571,-0.056457000000000014,-0.296327,-0.121544,0.0,8.0,93.0,190.0,32.0,1.0
258555,-1.610164,-1.421087,1.996376,-0.041574,-0.269668,-0.162377,0.0,8.0,93.0,190.0,32.0,1.0
258556,-1.527961,-1.4221780000000002,2.0737080000000003,-0.06077100000000001,-0.282617,-0.19343,0.0,8.0,93.0,190.0,32.0,1.0
258557,-1.473028,-1.420813,2.100512,-0.033645,-0.165684,-0.086983,0.0,8.0,93.0,190.0,32.0,1.0
258558,-1.408895,-1.4145450000000002,2.134216,-0.009908,0.283987,0.067511,0.0,8.0,93.0,190.0,32.0,1.0
258559,-1.268003,-1.408551,2.254418,0.367868,0.850749,-0.20203,0.0,8.0,93.0,190.0,32.0,1.0
258560,-0.987922,-1.406957,2.509318,0.566938,1.312021,-0.398452,0.0,8.0,93.0,190.0,32.0,1.0
258561,-0.592082,-1.394923,2.892655,0.092331,1.291351,-0.340565,0.0,8.0,93.0,190.0,32.0,1.0
258562,-0.257813,-1.35097,-3.0565830000000003,-0.113278,0.691209,0.174128,0.0,8.0,93.0,190.0,32.0,1.0
258563,-0.111572,-1.28913,-2.879367,-0.619262,0.388817,0.352074,0.0,8.0,93.0,190.0,32.0,1.0
258564,-0.081755,-1.2371530000000002,-2.80916,-0.405631,-0.289063,0.215019,0.0,8.0,93.0,190.0,32.0,1.0
258565,-0.063337,-1.206886,-2.772277,-0.131388,-0.469027,0.149454,0.0,8.0,93.0,190.0,32.0,1.0
258566,-0.03143,-1.196023,-2.740209,-0.170626,-0.527041,0.197928,0.0,8.0,93.0,190.0,32.0,1.0
258567,-0.012501,-1.201349,-2.729447,-0.299212,-0.418657,0.437916,0.0,8.0,93.0,190.0,32.0,1.0
258568,-0.01137,-1.218677,-2.7366200000000003,-0.274643,-0.487899,0.446947,0.0,8.0,93.0,190.0,32.0,1.0
258569,-0.022933,-1.247549,-2.759582,-0.239726,-0.57858,0.369685,0.0,8.0,93.0,190.0,32.0,1.0
258570,-0.052103,-1.286436,-2.803192,-0.184426,-0.639788,0.250967,0.0,8.0,93.0,190.0,32.0,1.0
258571,-0.116204,-1.331316,-2.879649,-0.067411,-0.702281,0.137181,0.0,8.0,93.0,190.0,32.0,1.0
258572,-0.249136,-1.377043,-3.018307,0.030239,-0.650081,0.021311,0.0,8.0,93.0,190.0,32.0,1.0
258573,-0.491753,-1.415419,3.022399,0.032642000000000004,-0.536461,-0.08918200000000001,0.0,8.0,93.0,190.0,32.0,1.0
258574,-0.866712,-1.432817,2.654387,-0.005986,-0.33478,-0.308812,0.0,8.0,93.0,190.0,32.0,1.0
258575,-1.2303309999999998,-1.4206379999999998,2.327041,0.056317999999999986,-0.098366,-0.342047,0.0,8.0,93.0,190.0,32.0,1.0
258576,-1.45616,-1.397623,2.168094,0.148044,0.338031,-0.19604,0.0,8.0,93.0,190.0,32.0,1.0
258577,-1.611509,-1.38434,2.077466,0.213134,0.6499159999999999,-0.279608,0.0,8.0,93.0,190.0,32.0,1.0
258578,-1.730757,-1.387422,1.975262,0.25907600000000003,0.994946,-0.52742,0.0,8.0,93.0,190.0,32.0,1.0
258579,-1.843768,-1.405927,1.818536,-0.117501,0.180064,0.885302,0.0,8.0,93.0,190.0,32.0,1.0
258580,-1.912442,-1.42268,1.703215,-0.42682,0.263894,0.35954200000000003,0.0,8.0,93.0,190.0,32.0,1.0
258581,-1.918648,-1.439938,1.686322,0.071552,0.521321,0.090919,0.0,8.0,93.0,190.0,32.0,1.0
258582,-1.751748,-1.45286,1.841251,0.157112,0.09528,0.147051,0.0,8.0,93.0,190.0,32.0,1.0
258583,-1.6246,-1.454205,1.973127,0.089534,-0.142778,0.409489,0.0,8.0,93.0,190.0,32.0,1.0
258584,-1.567674,-1.450466,2.043009,0.121692,0.145231,-0.058189,0.0,8.0,93.0,190.0,32.0,1.0
258585,-1.6299709999999998,-1.438098,1.99743,0.2582,0.506899,-0.277382,0.0,8.0,93.0,190.0,32.0,1.0
258586,-1.711634,-1.432426,1.912392,0.250222,0.382284,0.016552,0.0,8.0,93.0,190.0,32.0,1.0
258587,-1.743989,-1.434189,1.873084,0.030595,-0.197852,-0.115086,0.0,8.0,93.0,190.0,32.0,1.0
258588,-1.740932,-1.434786,1.879128,0.005347,-0.331005,-0.169766,0.0,8.0,93.0,190.0,32.0,1.0
258589,-1.7112900000000002,-1.432272,1.918923,0.061415,-0.502918,-0.252618,0.0,8.0,93.0,190.0,32.0,1.0
258590,-1.670125,-1.428306,1.963612,-0.102407,-0.532788,-0.327095,0.0,8.0,93.0,190.0,32.0,1.0
258591,-1.641716,-1.424144,1.988565,-0.10279,-0.482811,-0.316884,0.0,8.0,93.0,190.0,32.0,1.0
258592,-1.594017,-1.419076,2.020675,-0.030799,-0.391848,-0.25961100000000004,0.0,8.0,93.0,190.0,32.0,1.0
258593,-1.543965,-1.41509,2.046137,0.168273,0.036375,-0.282462,0.0,8.0,93.0,190.0,32.0,1.0
258594,-1.515186,-1.414348,2.048375,0.146086,0.216925,-0.128382,0.0,8.0,93.0,190.0,32.0,1.0
258595,-1.436597,-1.416084,2.095503,0.181373,0.15548299999999998,-0.14770899999999998,0.0,8.0,93.0,190.0,32.0,1.0
258596,-1.217115,-1.416203,2.289219,-0.031107,0.425027,-0.31056300000000003,0.0,8.0,93.0,190.0,32.0,1.0
258597,-0.868498,-1.407823,2.623519,-0.155307,0.725546,-0.130051,0.0,8.0,93.0,190.0,32.0,1.0
258598,-0.5099640000000001,-1.373429,2.983188,-0.250855,0.870534,0.017757,0.0,8.0,93.0,190.0,32.0,1.0
258599,-0.31591,-1.308023,-3.074639,-0.199594,0.565592,0.403941,0.0,8.0,93.0,190.0,32.0,1.0
258600,-0.252043,-1.246336,-2.975084,-0.108093,0.09536,0.694496,0.0,8.0,93.0,190.0,32.0,1.0
258601,-0.23879,-1.208488,-2.935597,-0.438387,0.014885,0.481386,0.0,8.0,93.0,190.0,32.0,1.0
258602,-0.22296,-1.196684,-2.916938,-0.404044,0.097076,0.097308,0.0,8.0,93.0,190.0,32.0,1.0
258603,-0.212064,-1.199865,-2.91379,-0.297213,-0.15371600000000002,0.223246,0.0,8.0,93.0,190.0,32.0,1.0
258604,-0.195812,-1.216505,-2.916686,-0.201837,-0.387172,0.305416,0.0,8.0,93.0,190.0,32.0,1.0
258605,-0.18998,-1.244415,-2.937516,-0.010701,-0.654332,0.28370500000000004,0.0,8.0,93.0,190.0,32.0,1.0
258606,-0.214218,-1.280933,-2.988093,0.062542,-0.758912,0.219608,0.0,8.0,93.0,190.0,32.0,1.0
258607,-0.294808,-1.323094,-3.08732,0.127642,-0.8690760000000001,0.062320000000000014,0.0,8.0,93.0,190.0,32.0,1.0
258608,-0.465563,-1.363642,3.023349,0.12862,-0.842985,-0.077319,0.0,8.0,93.0,190.0,32.0,1.0
258609,-0.742472,-1.394627,2.7562830000000003,0.17056400000000002,-0.559763,-0.28833000000000003,0.0,8.0,93.0,190.0,32.0,1.0
258610,-1.074718,-1.401522,2.444668,0.151343,-0.369771,-0.384188,0.0,8.0,93.0,190.0,32.0,1.0
258611,-1.312641,-1.382123,2.251663,-0.047547000000000006,0.314835,-0.407083,0.0,8.0,93.0,190.0,32.0,1.0
258612,-1.442146,-1.358443,2.187488,-0.1369,1.064638,-0.166889,0.0,8.0,93.0,190.0,32.0,1.0
258613,-1.539072,-1.353748,2.138964,-0.07696900000000001,1.011576,-0.502829,0.0,8.0,93.0,190.0,32.0,1.0
258614,-1.532646,-1.36365,2.118423,0.203348,0.292298,-0.087417,0.0,8.0,93.0,190.0,32.0,1.0
258615,-1.463043,-1.382615,2.10701,-0.293298,-0.00914,0.7468600000000001,0.0,8.0,93.0,190.0,32.0,1.0
258616,-1.470207,-1.39331,2.05918,-1.229224,0.25747,-0.863851,0.0,8.0,93.0,190.0,32.0,1.0
258617,-1.623869,-1.402734,1.932586,-0.130371,0.533117,0.380213,0.0,8.0,93.0,190.0,32.0,1.0
258618,-1.464018,-1.393638,2.05367,0.66872,0.612316,0.311777,0.0,8.0,93.0,190.0,32.0,1.0
258619,-1.423724,-1.385661,2.106599,0.8954040000000001,0.635268,-0.650093,0.0,8.0,93.0,190.0,32.0,1.0
258620,-1.431643,-1.394343,2.092995,0.241048,0.303858,0.226247,0.0,8.0,93.0,190.0,32.0,1.0
258621,-1.41451,-1.396993,2.125844,0.060628,-0.027735000000000003,0.07915599999999999,0.0,8.0,93.0,190.0,32.0,1.0
258622,-1.3970209999999998,-1.398439,2.166731,0.056561,-0.095382,-0.078966,0.0,8.0,93.0,190.0,32.0,1.0
258623,-1.410348,-1.400984,2.16516,-0.016839,-0.213567,-0.076538,0.0,8.0,93.0,190.0,32.0,1.0
258624,-1.439114,-1.400123,2.142794,0.097382,-0.451032,0.056903,0.0,8.0,93.0,190.0,32.0,1.0
258625,-1.479049,-1.396514,2.110928,0.13859000000000002,-0.436359,-0.106767,0.0,8.0,93.0,190.0,32.0,1.0
258626,-1.50718,-1.39198,2.081085,0.119727,-0.281739,-0.459062,0.0,8.0,93.0,190.0,32.0,1.0
258627,-1.471332,-1.388035,2.100876,0.126795,-0.15225999999999998,-0.184028,0.0,8.0,93.0,190.0,32.0,1.0
258628,-1.408578,-1.384772,2.152241,0.114864,-0.222799,-0.21252,0.0,8.0,93.0,190.0,32.0,1.0
258629,-1.33759,-1.380732,2.218925,0.105374,-0.350431,-0.256809,0.0,8.0,93.0,190.0,32.0,1.0
258630,-1.268073,-1.375261,2.280655,0.040238,-0.359285,-0.251673,0.0,8.0,93.0,190.0,32.0,1.0
258631,-1.200648,-1.368465,2.330069,-0.029057,-0.243792,-0.112436,0.0,8.0,93.0,190.0,32.0,1.0
258632,-1.09875,-1.3544969999999998,2.4152430000000003,-0.049436,0.408525,-0.328191,0.0,8.0,93.0,190.0,32.0,1.0
258633,-0.950248,-1.341993,2.544504,0.00396,0.81105,-0.375972,0.0,8.0,93.0,190.0,32.0,1.0
258634,-0.728899,-1.329245,2.744886,0.279746,1.145502,-0.053219,0.0,8.0,93.0,190.0,32.0,1.0
258635,-0.495195,-1.297515,2.976103,0.009912,0.34028600000000003,0.162839,0.0,8.0,93.0,190.0,32.0,1.0
258636,-0.344556,-1.252614,-3.139462,-0.041765,0.111993,0.526342,0.0,8.0,93.0,190.0,32.0,1.0
258637,-0.310462,-1.197368,-3.053968,-0.6160329999999999,-0.061285,0.7911739999999999,0.0,8.0,93.0,190.0,32.0,1.0
258638,-0.323537,-1.16149,-3.0228200000000003,-0.7527520000000001,-0.011208,0.214931,0.0,8.0,93.0,190.0,32.0,1.0
258639,-0.330591,-1.156226,-3.020572,-0.304588,-0.045966,0.054239,0.0,8.0,93.0,190.0,32.0,1.0
258640,-0.317952,-1.168614,-3.023514,-0.227214,-0.102048,0.225358,0.0,8.0,93.0,190.0,32.0,1.0
258641,-0.298127,-1.1968299999999998,-3.032432,-0.189912,-0.214134,0.31885,0.0,8.0,93.0,190.0,32.0,1.0
258642,-0.289476,-1.236242,-3.056384,-0.109998,-0.427055,0.300344,0.0,8.0,93.0,190.0,32.0,1.0
258643,-0.315398,-1.284765,-3.1124970000000003,-0.004847,-0.647192,0.295403,0.0,8.0,93.0,190.0,32.0,1.0
258644,-0.406321,-1.337821,3.058385,0.043647000000000005,-0.77877,0.174014,0.0,8.0,93.0,190.0,32.0,1.0
258645,-0.6042,-1.386952,2.847372,0.12742699999999998,-0.820261,0.058896,0.0,8.0,93.0,190.0,32.0,1.0
258646,-0.954092,-1.41832,2.493223,0.086504,-0.7803140000000001,-0.083827,0.0,8.0,93.0,190.0,32.0,1.0
258647,-1.337223,-1.41185,2.123495,0.047707,-0.487623,-0.24995100000000006,0.0,8.0,93.0,190.0,32.0,1.0
258648,-1.554912,-1.380998,1.949914,0.13669,-0.033266000000000004,-0.363963,0.0,8.0,93.0,190.0,32.0,1.0
258649,-1.6709470000000002,-1.3491,1.910493,0.244554,0.755599,-0.63775,0.0,8.0,93.0,190.0,32.0,1.0
258650,-1.770527,-1.330631,1.888867,0.16203,0.935394,-0.273674,0.0,8.0,93.0,190.0,32.0,1.0
258651,-1.859505,-1.3274709999999998,1.825729,0.00533,0.495873,-0.424408,0.0,8.0,93.0,190.0,32.0,1.0
258652,-1.892166,-1.338192,1.759311,-0.158165,0.296874,0.3851,0.0,8.0,93.0,190.0,32.0,1.0
258653,-1.858689,-1.351595,1.726187,-0.658841,0.063525,0.5542199999999999,0.0,8.0,93.0,190.0,32.0,1.0
258654,-1.867979,-1.362593,1.703239,-0.6952149999999999,0.508474,-0.55655,0.0,8.0,93.0,190.0,32.0,1.0
258655,-1.884649,-1.364508,1.7139529999999998,-0.146841,0.671638,0.432183,0.0,8.0,93.0,190.0,32.0,1.0
258656,-1.775223,-1.357604,1.798303,0.508,1.048686,0.0062640000000000005,0.0,8.0,93.0,190.0,32.0,1.0
258657,-1.7391900000000002,-1.357581,1.829575,0.427863,0.218369,0.344409,0.0,8.0,93.0,190.0,32.0,1.0
258658,-1.6845450000000002,-1.371152,1.858989,0.087172,0.08659,0.270768,0.0,8.0,93.0,190.0,32.0,1.0
258659,-1.688263,-1.380005,1.867404,-0.033906,-0.055677,-0.048221,0.0,8.0,93.0,190.0,32.0,1.0
258660,-1.676907,-1.383122,1.899676,-0.06036,-0.233311,0.066913,0.0,8.0,93.0,190.0,32.0,1.0
258661,-1.678408,-1.381018,1.911412,0.008957,-0.288839,0.06713,0.0,8.0,93.0,190.0,32.0,1.0
258662,-1.7147880000000002,-1.375435,1.878827,0.024125,-0.444479,0.025235,0.0,8.0,93.0,190.0,32.0,1.0
258663,-1.748964,-1.369028,1.837749,0.01554,-0.482842,-0.475482,0.0,8.0,93.0,190.0,32.0,1.0
258664,-1.755844,-1.362388,1.822715,0.056655999999999984,-0.330305,-0.611961,0.0,8.0,93.0,190.0,32.0,1.0
258665,-1.711265,-1.358726,1.84754,0.115546,-0.133496,-0.479721,0.0,8.0,93.0,190.0,32.0,1.0
258666,-1.6429599999999998,-1.358502,1.892081,0.114239,-0.30064,-0.23235300000000006,0.0,8.0,93.0,190.0,32.0,1.0
258667,-1.563989,-1.358385,1.951765,0.116361,-0.361635,-0.265106,0.0,8.0,93.0,190.0,32.0,1.0
258668,-1.479579,-1.3565040000000002,2.01658,0.180158,-0.381485,-0.28004,0.0,8.0,93.0,190.0,32.0,1.0
258669,-1.4111790000000002,-1.354305,2.069107,0.134485,0.014096,-0.092023,0.0,8.0,93.0,190.0,32.0,1.0
258670,-1.325859,-1.35082,2.139919,0.051082,0.470463,-0.225993,0.0,8.0,93.0,190.0,32.0,1.0
258671,-1.164956,-1.345614,2.284413,0.5481699999999999,1.099938,-0.111598,0.0,8.0,93.0,190.0,32.0,1.0
258672,-0.911016,-1.333202,2.547373,0.27474,1.257799,-0.243246,0.0,8.0,93.0,190.0,32.0,1.0
258673,-0.6419739999999999,-1.304017,2.827173,-0.108348,1.156286,-0.212214,0.0,8.0,93.0,190.0,32.0,1.0
258674,-0.457088,-1.260642,3.031769,-0.5631390000000001,0.162185,0.485468,0.0,8.0,93.0,190.0,32.0,1.0
258675,-0.380808,-1.207225,-3.138754,-0.632359,-0.318651,0.5834699999999999,0.0,8.0,93.0,190.0,32.0,1.0
258676,-0.371733,-1.166981,-3.09632,-0.6786300000000001,-0.449338,0.4604430000000001,0.0,8.0,93.0,190.0,32.0,1.0
258677,-0.3718280000000001,-1.153411,-3.087618,-0.247698,-0.19998,0.062414,0.0,8.0,93.0,190.0,32.0,1.0
258678,-0.363423,-1.159964,-3.093912,-0.197057,-0.122691,0.125749,0.0,8.0,93.0,190.0,32.0,1.0
258679,-0.35174,-1.180466,-3.105988,-0.13118,-0.174738,0.262094,0.0,8.0,93.0,190.0,32.0,1.0
258680,-0.348032,-1.209637,-3.128973,-0.062476,-0.548388,0.398781,0.0,8.0,93.0,190.0,32.0,1.0
258681,-0.358653,-1.245983,3.113469,-0.01262,-0.64342,0.325056,0.0,8.0,93.0,190.0,32.0,1.0
258682,-0.404919,-1.285569,3.041947,0.053359,-0.753161,0.257552,0.0,8.0,93.0,190.0,32.0,1.0
258683,-0.514558,-1.32548,2.917323,0.175361,-0.936705,0.08551,0.0,8.0,93.0,190.0,32.0,1.0
258684,-0.722988,-1.359262,2.710311,0.174709,-0.811008,-0.002178,0.0,8.0,93.0,190.0,32.0,1.0
258685,-1.02184,-1.371471,2.434744,0.165622,-0.678809,-0.066695,0.0,8.0,93.0,190.0,32.0,1.0
258686,-1.302259,-1.354631,2.203333,0.188855,-0.044919,-0.232331,0.0,8.0,93.0,190.0,32.0,1.0
258687,-1.489993,-1.325839,2.093054,0.17799,0.55802,-0.4838,0.0,8.0,93.0,190.0,32.0,1.0
258688,-1.622955,-1.308729,2.043466,0.108751,0.983896,-0.53795,0.0,8.0,93.0,190.0,32.0,1.0
258689,-1.728209,-1.314551,1.976247,0.09851,0.532423,-0.532312,0.0,8.0,93.0,190.0,32.0,1.0
258690,-1.772406,-1.335404,1.894004,-0.094816,-0.014171,0.689631,0.0,8.0,93.0,190.0,32.0,1.0
258691,-1.813054,-1.353966,1.77647,-0.8151649999999999,0.081811,0.033893,0.0,8.0,93.0,190.0,32.0,1.0
258692,-1.952262,-1.357608,1.641139,-1.3323040000000002,0.309367,-0.8859889999999999,0.0,8.0,93.0,190.0,32.0,1.0
258693,-1.959134,-1.353695,1.652582,-0.664104,1.374243,0.253336,0.0,8.0,93.0,190.0,32.0,1.0
258694,-1.901637,-1.335157,1.676918,0.8150609999999999,1.362657,-0.622872,0.0,8.0,93.0,190.0,32.0,1.0
258695,-1.837703,-1.3427639999999998,1.713736,0.981517,0.038582,0.4340520000000001,0.0,8.0,93.0,190.0,32.0,1.0
258696,-1.7925490000000002,-1.355402,1.7399830000000005,-0.053936000000000005,-0.031091000000000008,0.189281,0.0,8.0,93.0,190.0,32.0,1.0
258697,-1.817565,-1.359428,1.7431419999999995,0.006252000000000001,-0.134422,0.169296,0.0,8.0,93.0,190.0,32.0,1.0
258698,-1.835414,-1.3567,1.758738,0.003653,-0.109554,-0.030184,0.0,8.0,93.0,190.0,32.0,1.0
258699,-1.886898,-1.350923,1.716576,-0.134542,-0.33942,0.06583,0.0,8.0,93.0,190.0,32.0,1.0
258700,-1.941472,-1.345192,1.6503709999999998,-0.157248,-0.364124,-0.088727,0.0,8.0,93.0,190.0,32.0,1.0
258701,-1.967874,-1.337719,1.614943,0.030419,-0.251952,-0.398729,0.0,8.0,93.0,190.0,32.0,1.0
258702,-1.975728,-1.330775,1.599581,0.17536500000000002,-0.186711,-0.528501,0.0,8.0,93.0,190.0,32.0,1.0
258703,-1.943179,-1.3287719999999998,1.619085,0.187372,-0.305022,-0.315247,0.0,8.0,93.0,190.0,32.0,1.0
258704,-1.86747,-1.330089,1.680975,0.209058,-0.448281,-0.164135,0.0,8.0,93.0,190.0,32.0,1.0
258705,-1.7779630000000002,-1.330782,1.758316,0.170869,-0.57308,-0.511582,0.0,8.0,93.0,190.0,32.0,1.0
258706,-1.704938,-1.328507,1.819307,0.170863,-0.524701,-0.505137,0.0,8.0,93.0,190.0,32.0,1.0
258707,-1.631509,-1.328546,1.869854,0.337486,-0.330572,0.116992,0.0,8.0,93.0,190.0,32.0,1.0
258708,-1.554762,-1.329492,1.934836,0.15424000000000002,0.422421,-0.22125100000000006,0.0,8.0,93.0,190.0,32.0,1.0
258709,-1.448192,-1.330361,2.048112,-0.033281,0.793856,-0.031077,0.0,8.0,93.0,190.0,32.0,1.0
258710,-1.259274,-1.328075,2.254585,-0.06031,1.044968,-0.021967,0.0,8.0,93.0,190.0,32.0,1.0
258711,-1.01207,-1.312841,2.530775,-0.180346,0.978826,-0.162662,0.0,8.0,93.0,190.0,32.0,1.0
258712,-0.767656,-1.2867959999999998,2.789347,-0.341044,0.909168,-0.069259,0.0,8.0,93.0,190.0,32.0,1.0
258713,-0.569541,-1.25178,2.991419,-0.422101,0.889338,0.224728,0.0,8.0,93.0,190.0,32.0,1.0
258714,-0.449215,-1.215896,3.120802,-0.819409,0.420168,0.113195,0.0,8.0,93.0,190.0,32.0,1.0
258715,-0.380827,-1.193625,-3.092489,-0.36342,0.114449,0.079536,0.0,8.0,93.0,190.0,32.0,1.0
258716,-0.319656,-1.187055,-3.040054,-0.052322,-0.311975,0.05696900000000001,0.0,8.0,93.0,190.0,32.0,1.0
258717,-0.270177,-1.192813,-3.003556,-0.126907,-0.335691,0.213374,0.0,8.0,93.0,190.0,32.0,1.0
258718,-0.248088,-1.206942,-2.989031,-0.16305999999999998,-0.4153060000000001,0.385039,0.0,8.0,93.0,190.0,32.0,1.0
258719,-0.251321,-1.2269709999999998,-2.995342,-0.13729,-0.596562,0.442011,0.0,8.0,93.0,190.0,32.0,1.0
258720,-0.282426,-1.2504540000000002,-3.028128,-0.07098600000000001,-0.6742100000000001,0.399293,0.0,8.0,93.0,190.0,32.0,1.0
258721,-0.348772,-1.278716,-3.095812,0.049447000000000005,-0.782384,0.283179,0.0,8.0,93.0,190.0,32.0,1.0
258722,-0.46262,-1.310035,3.072027,0.02034,-0.800529,0.215009,0.0,8.0,93.0,190.0,32.0,1.0
258723,-0.644041,-1.337595,2.890085,-0.015375,-0.731629,0.132745,0.0,8.0,93.0,190.0,32.0,1.0
258724,-0.89891,-1.352408,2.639602,0.006821,-0.5947020000000001,0.05844,0.0,8.0,93.0,190.0,32.0,1.0
258725,-1.175075,-1.346661,2.38178,0.017313,-0.132122,-0.214629,0.0,8.0,93.0,190.0,32.0,1.0
258726,-1.409656,-1.326735,2.190248,-0.051295000000000014,0.043109,-0.522148,0.0,8.0,93.0,190.0,32.0,1.0
258727,-1.58353,-1.302558,2.083557,-0.054108,0.153024,-0.65404,0.0,8.0,93.0,190.0,32.0,1.0
258728,-1.699318,-1.283918,2.052117,0.464407,0.480871,-0.300683,0.0,8.0,93.0,190.0,32.0,1.0
258729,-1.810589,-1.279396,2.004991,0.301387,0.827909,-0.035344,0.0,8.0,93.0,190.0,32.0,1.0
258730,-1.870722,-1.288376,1.919363,0.152275,0.755864,0.319253,0.0,8.0,93.0,190.0,32.0,1.0
258731,-1.835428,-1.304355,1.874132,-0.8190149999999999,0.002113,0.217945,0.0,8.0,93.0,190.0,32.0,1.0
258732,-1.916159,-1.321128,1.775961,-1.245961,-0.133408,-0.801959,0.0,8.0,93.0,190.0,32.0,1.0
258733,-2.007662,-1.317598,1.707461,-0.924925,0.192971,0.14247,0.0,8.0,93.0,190.0,32.0,1.0
258734,-1.922306,-1.300618,1.761548,0.962149,1.47985,-0.627304,0.0,8.0,93.0,190.0,32.0,1.0
258735,-1.810016,-1.308746,1.826189,1.632085,-0.053874,0.468974,0.0,8.0,93.0,190.0,32.0,1.0
258736,-1.754521,-1.326453,1.888831,0.854361,-0.13059,0.80583,0.0,8.0,93.0,190.0,32.0,1.0
258737,-1.753752,-1.33896,1.924334,-0.006023,-0.10608900000000003,0.308744,0.0,8.0,93.0,190.0,32.0,1.0
258738,-1.777146,-1.342473,1.92993,-0.123494,-0.219195,0.078037,0.0,8.0,93.0,190.0,32.0,1.0
258739,-1.843822,-1.336989,1.878337,-0.137756,-0.285246,-0.015024,0.0,8.0,93.0,190.0,32.0,1.0
258740,-1.898816,-1.328181,1.819538,-0.035202,-0.43165,0.05692000000000001,0.0,8.0,93.0,190.0,32.0,1.0
258741,-1.9429490000000005,-1.316278,1.770525,-0.017912,-0.184276,-0.398044,0.0,8.0,93.0,190.0,32.0,1.0
258742,-1.982033,-1.301655,1.735766,0.132806,-0.113353,-0.455936,0.0,8.0,93.0,190.0,32.0,1.0
258743,-1.986321,-1.289355,1.7265130000000002,0.249746,-0.11783699999999997,-0.345914,0.0,8.0,93.0,190.0,32.0,1.0
258744,-1.953147,-1.281865,1.748332,0.238066,-0.184135,-0.363117,0.0,8.0,93.0,190.0,32.0,1.0
258745,-1.89154,-1.2787,1.799375,0.226679,-0.207413,-0.354449,0.0,8.0,93.0,190.0,32.0,1.0
258746,-1.823143,-1.276632,1.857862,0.217942,-0.313124,-0.386411,0.0,8.0,93.0,190.0,32.0,1.0
258747,-1.763254,-1.274417,1.918742,0.247731,-0.263285,-0.210643,0.0,8.0,93.0,190.0,32.0,1.0
258748,-1.712854,-1.272819,1.983142,0.433959,-0.086242,-0.072034,0.0,8.0,93.0,190.0,32.0,1.0
258749,-1.645917,-1.271248,2.069589,0.642726,0.13944,-0.113072,0.0,8.0,93.0,190.0,32.0,1.0
258750,-1.552291,-1.268424,2.188755,0.439724,0.348208,-0.354231,0.0,8.0,93.0,190.0,32.0,1.0
258751,-1.445815,-1.267524,2.319526,0.058514,0.427304,-0.172065,0.0,8.0,93.0,190.0,32.0,1.0
258752,-1.299776,-1.263893,2.486194,-0.242419,0.7030529999999999,-0.255996,0.0,8.0,93.0,190.0,32.0,1.0
258753,-1.111054,-1.249506,2.696942,-0.106147,0.917581,-0.157281,0.0,8.0,93.0,190.0,32.0,1.0
258754,-0.920125,-1.218616,2.924715,0.037924,0.806479,0.166373,0.0,8.0,93.0,190.0,32.0,1.0
258755,-0.770035,-1.1854360000000002,3.103546,-0.018922,0.425098,0.5981310000000001,0.0,8.0,93.0,190.0,32.0,1.0
258756,-0.663509,-1.1664290000000002,-3.055873,-0.563955,0.166876,0.479219,0.0,8.0,93.0,190.0,32.0,1.0
258757,-0.5799850000000001,-1.173013,-2.984562,-0.548433,0.205764,0.061367999999999985,0.0,8.0,93.0,190.0,32.0,1.0
258758,-0.5009939999999999,-1.191662,-2.9273860000000003,-0.055517,0.111725,-0.191448,0.0,8.0,93.0,190.0,32.0,1.0
258759,-0.4273770000000001,-1.210672,-2.867251,0.069043,-0.179567,0.176456,0.0,8.0,93.0,190.0,32.0,1.0
258760,-0.374053,-1.235848,-2.818836,-0.008083,-0.366653,0.225106,0.0,8.0,93.0,190.0,32.0,1.0
258761,-0.368121,-1.258409,-2.80039,0.028896,-0.658237,0.343093,0.0,8.0,93.0,190.0,32.0,1.0
258762,-0.409041,-1.278223,-2.819876,0.025823,-0.700287,0.346166,0.0,8.0,93.0,190.0,32.0,1.0
258763,-0.490356,-1.296396,-2.876384,0.019524,-0.764178,0.338419,0.0,8.0,93.0,190.0,32.0,1.0
258764,-0.612125,-1.314921,-2.973993,-0.226073,-0.650502,0.248931,0.0,8.0,93.0,190.0,32.0,1.0
258765,-0.785428,-1.330463,-3.126259,-0.43958,-0.310339,0.12297,0.0,8.0,93.0,190.0,32.0,1.0
258766,-1.012072,-1.335234,2.954883,-0.5087109999999999,-0.07542599999999999,0.037664,0.0,8.0,93.0,190.0,32.0,1.0
258767,-1.266734,-1.324669,2.7381900000000003,-0.352023,0.339738,-0.519115,0.0,8.0,93.0,190.0,32.0,1.0
258768,-1.466978,-1.302531,2.5852630000000003,-0.167682,0.288133,-1.111404,0.0,8.0,93.0,190.0,32.0,1.0
258769,-1.492063,-1.284844,2.618193,0.209535,0.460544,-1.161837,0.0,8.0,93.0,190.0,32.0,1.0
258770,-1.453941,-1.285832,2.692581,0.178537,0.5756220000000001,-0.519259,0.0,8.0,93.0,190.0,32.0,1.0
258771,-1.298473,-1.293482,2.821705,0.023566,0.105573,-0.495598,0.0,8.0,93.0,190.0,32.0,1.0
258772,-1.144574,-1.301313,2.935188,-0.242438,-0.145275,-0.333924,0.0,8.0,93.0,190.0,32.0,1.0
258773,-1.0578040000000002,-1.305611,2.981718,-0.487518,-0.279955,0.551271,0.0,8.0,93.0,190.0,32.0,1.0
258774,-0.991611,-1.302833,3.006864,0.064449,-0.775408,1.078303,0.0,8.0,93.0,190.0,32.0,1.0
258775,-1.004631,-1.302452,2.977114,-0.176231,-0.227807,0.87202,0.0,8.0,93.0,190.0,32.0,1.0
258776,-1.130053,-1.307673,2.8635650000000004,-0.1791,1.034647,0.490499,0.0,8.0,93.0,190.0,32.0,1.0
258777,-1.270522,-1.305948,2.741135,0.548049,2.4713,-0.013402,0.0,8.0,93.0,190.0,32.0,1.0
258778,-1.273543,-1.310611,2.711066,1.606337,1.366421,-0.129857,0.0,8.0,93.0,190.0,32.0,1.0
258779,-1.158289,-1.308271,2.812975,0.12423499999999997,0.259573,-0.290543,0.0,8.0,93.0,190.0,32.0,1.0
258780,-1.153055,-1.305958,2.890169,-0.558048,-0.01909,0.965696,0.0,8.0,93.0,190.0,32.0,1.0
258781,-1.1897209999999998,-1.305806,2.934288,-0.608548,-0.451011,0.454224,0.0,8.0,93.0,190.0,32.0,1.0
258782,-1.316169,-1.311076,2.848231,-0.657714,-0.29239,0.145109,0.0,8.0,93.0,190.0,32.0,1.0
258783,-1.485638,-1.316712,2.668735,-0.5220100000000001,-0.014265,0.005493,0.0,8.0,93.0,190.0,32.0,1.0
258784,-1.649042,-1.3103360000000002,2.499059,-0.150471,0.190772,-0.0226,0.0,8.0,93.0,190.0,32.0,1.0
258785,-1.791293,-1.292897,2.3595740000000003,0.179333,0.104406,-0.104795,0.0,8.0,93.0,190.0,32.0,1.0
258786,-1.892636,-1.268114,2.255303,0.188544,-0.181378,-0.148752,0.0,8.0,93.0,190.0,32.0,1.0
258787,-1.962195,-1.241934,2.186039,0.316128,-0.200683,-0.019177,0.0,8.0,93.0,190.0,32.0,1.0
258788,-2.017038,-1.2149219999999998,2.138942,0.409531,-0.285075,0.044987,0.0,8.0,93.0,190.0,32.0,1.0
258789,-2.052549,-1.187495,2.112352,0.404978,-0.067419,-0.225317,0.0,8.0,93.0,190.0,32.0,1.0
258790,-2.068459,-1.163708,2.106719,0.394889,0.091869,-0.235646,0.0,8.0,93.0,190.0,32.0,1.0
258791,-2.086647,-1.141749,2.106147,0.321662,0.289627,-0.200541,0.0,8.0,93.0,190.0,32.0,1.0
258792,-2.1097900000000003,-1.124834,2.106068,0.383281,0.302913,-0.235752,0.0,8.0,93.0,190.0,32.0,1.0
258793,-2.120189,-1.115337,2.119839,0.43726,0.323224,-0.4934270000000001,0.0,8.0,93.0,190.0,32.0,1.0
258794,-2.106251,-1.117951,2.157105,0.080464,0.33198,-0.507867,0.0,8.0,93.0,190.0,32.0,1.0
258795,-2.071558,-1.126974,2.220855,0.178672,0.361898,-0.2642,0.0,8.0,93.0,190.0,32.0,1.0
258796,-2.010786,-1.137171,2.305304,0.362901,0.479805,-0.132123,0.0,8.0,93.0,190.0,32.0,1.0
258797,-1.915518,-1.152703,2.418181,0.548022,0.754836,-0.026178,0.0,8.0,93.0,190.0,32.0,1.0
258798,-1.798124,-1.17851,2.57375,0.556269,0.768971,-0.20342,0.0,8.0,93.0,190.0,32.0,1.0
258799,-1.617209,-1.210087,2.797048,0.333189,0.78205,-0.245378,0.0,8.0,93.0,190.0,32.0,1.0
258800,-1.392966,-1.230271,3.066424,-0.026286,0.449709,0.196145,0.0,8.0,93.0,190.0,32.0,1.0
258801,-1.207326,-1.23134,-2.9824200000000003,-0.41565,0.212368,0.829889,0.0,8.0,93.0,190.0,32.0,1.0
258802,-1.043026,-1.21656,-2.785822,-0.463844,0.220413,0.8237270000000001,0.0,8.0,93.0,190.0,32.0,1.0
258803,-0.91122,-1.193121,-2.634084,-0.16373800000000002,0.155604,0.454445,0.0,8.0,93.0,190.0,32.0,1.0
258804,-0.802478,-1.174262,-2.515891,0.359503,0.157398,0.294129,0.0,8.0,93.0,190.0,32.0,1.0
258805,-0.709434,-1.164666,-2.417248,0.466989,0.144957,0.338474,0.0,8.0,93.0,190.0,32.0,1.0
258806,-0.618687,-1.162505,-2.313167,0.334572,0.077042,0.4414770000000001,0.0,8.0,93.0,190.0,32.0,1.0
258807,-0.526091,-1.164476,-2.196439,0.16380899999999998,0.07324,0.442179,0.0,8.0,93.0,190.0,32.0,1.0
258808,-0.443367,-1.164939,-2.08087,0.014468,-0.038424,0.565103,0.0,8.0,93.0,190.0,32.0,1.0
258809,-0.380663,-1.160087,-1.966454,0.062794,-0.053862,0.6868310000000001,0.0,8.0,93.0,190.0,32.0,1.0
258810,-0.337505,-1.150991,-1.856347,-0.008106,-0.059332,0.631648,0.0,8.0,93.0,190.0,32.0,1.0
258811,-0.315741,-1.1393950000000002,-1.7559360000000002,-0.137526,-0.135187,0.608843,0.0,8.0,93.0,190.0,32.0,1.0
258812,-0.31002,-1.131734,-1.66956,-0.236071,-0.281036,0.575072,0.0,8.0,93.0,190.0,32.0,1.0
258813,-0.315216,-1.135494,-1.601691,-0.323404,-0.336995,0.551501,0.0,8.0,93.0,190.0,32.0,1.0
258814,-0.33091,-1.150869,-1.553859,-0.340901,-0.289293,0.517903,0.0,8.0,93.0,190.0,32.0,1.0
258815,-0.357989,-1.174961,-1.527094,-0.379077,-0.29840700000000003,0.397865,0.0,8.0,93.0,190.0,32.0,1.0
258816,-0.401945,-1.205893,-1.527834,-0.418887,-0.33638,0.323353,0.0,8.0,93.0,190.0,32.0,1.0
258817,-0.475291,-1.241186,-1.565746,-0.442472,-0.347353,0.238297,0.0,8.0,93.0,190.0,32.0,1.0
258818,-0.594065,-1.275977,-1.654636,-0.502945,-0.141761,0.01364,0.0,8.0,93.0,190.0,32.0,1.0
258819,-0.761357,-1.300192,-1.7985779999999998,-0.453993,0.365034,-0.383352,0.0,8.0,93.0,190.0,32.0,1.0
258820,-0.8972680000000001,-1.296208,-1.907558,-0.27329499999999995,0.746158,-0.909667,0.0,8.0,93.0,190.0,32.0,1.0
258821,-0.871669,-1.260189,-1.829445,1.002398,1.253098,-1.077567,0.0,8.0,93.0,190.0,32.0,1.0
258822,-0.8074399999999999,-1.244006,-1.726102,0.6682279999999999,0.796071,0.265355,0.0,8.0,93.0,190.0,32.0,1.0
258823,-0.747436,-1.250063,-1.665413,0.094234,0.826234,0.918298,0.0,8.0,93.0,190.0,32.0,1.0
258824,-0.717353,-1.263477,-1.626522,0.088087,-0.449532,0.7753,0.0,8.0,93.0,190.0,32.0,1.0
258825,-0.704231,-1.269699,-1.584454,-0.375307,-0.740855,-0.647991,0.0,8.0,93.0,190.0,32.0,1.0
258826,-0.664261,-1.244598,-1.52507,-0.7576350000000001,-0.662309,-0.749262,0.0,8.0,93.0,190.0,32.0,1.0
258827,-0.7031,-1.2178870000000002,-1.53089,-0.046079,-0.186555,1.127921,0.0,8.0,93.0,190.0,32.0,1.0
258828,-0.7993239999999999,-1.198875,-1.558454,0.442073,0.404108,0.456935,0.0,8.0,93.0,190.0,32.0,1.0
258829,-0.910591,-1.197406,-1.597213,0.458428,0.384883,0.288105,0.0,8.0,93.0,190.0,32.0,1.0
258830,-0.984494,-1.194366,-1.615181,0.337644,0.4267220000000001,0.17443399999999998,0.0,8.0,93.0,190.0,32.0,1.0
258831,-1.053614,-1.188103,-1.614098,0.06262000000000001,0.192501,0.498084,0.0,8.0,93.0,190.0,32.0,1.0
258832,-1.120795,-1.189268,-1.608343,-0.098735,0.004627,0.38793,0.0,8.0,93.0,190.0,32.0,1.0
258833,-1.191856,-1.20089,-1.626613,-0.175963,-0.088703,0.127449,0.0,8.0,93.0,190.0,32.0,1.0
258834,-1.2649860000000002,-1.213502,-1.668983,-0.05678,-0.166125,0.023364,0.0,8.0,93.0,190.0,32.0,1.0
258835,-1.342357,-1.227686,-1.71806,0.070989,-0.095186,0.159142,0.0,8.0,93.0,190.0,32.0,1.0
258836,-1.432268,-1.239781,-1.7874720000000002,0.063872,-0.164707,0.065597,0.0,8.0,93.0,190.0,32.0,1.0
258837,-1.521774,-1.244992,-1.863675,0.022802,-0.25871900000000003,0.059903,0.0,8.0,93.0,190.0,32.0,1.0
258838,-1.607903,-1.241637,-1.941072,0.047657,-0.159236,0.12012,0.0,8.0,93.0,190.0,32.0,1.0
258839,-1.689917,-1.230433,-2.009779,0.024098,-0.027594,0.13187,0.0,8.0,93.0,190.0,32.0,1.0
258840,-1.761834,-1.213855,-2.061285,0.167524,0.15069200000000002,0.073369,0.0,8.0,93.0,190.0,32.0,1.0
258841,-1.823945,-1.195542,-2.100348,0.257974,0.180014,0.020196,0.0,8.0,93.0,190.0,32.0,1.0
258842,-1.885773,-1.17864,-2.1344220000000003,0.397706,0.150528,-0.065107,0.0,8.0,93.0,190.0,32.0,1.0
258843,-1.948432,-1.164714,-2.166058,0.399066,0.232524,-0.260694,0.0,8.0,93.0,190.0,32.0,1.0
258844,-1.996396,-1.156702,-2.183133,0.377829,0.305207,-0.245443,0.0,8.0,93.0,190.0,32.0,1.0
258845,-2.013105,-1.156113,-2.178643,0.211855,0.310983,-0.244541,0.0,8.0,93.0,190.0,32.0,1.0
258846,-2.012144,-1.16086,-2.158168,-0.024822,0.312071,-0.474434,0.0,8.0,93.0,190.0,32.0,1.0
258847,-1.992058,-1.164167,-2.107392,0.094803,0.356931,-0.484476,0.0,8.0,93.0,190.0,32.0,1.0
258848,-1.920195,-1.170108,-2.00247,0.430566,0.5488270000000001,-0.171103,0.0,8.0,93.0,190.0,32.0,1.0
258849,-1.809779,-1.1826299999999998,-1.857488,0.607796,0.630884,0.033198000000000005,0.0,8.0,93.0,190.0,32.0,1.0
258850,-1.666247,-1.200812,-1.668665,0.520076,0.615686,0.096719,0.0,8.0,93.0,190.0,32.0,1.0
258851,-1.454137,-1.2192379999999998,-1.419563,0.035788,0.5791069999999999,0.054942,0.0,8.0,93.0,190.0,32.0,1.0
258852,-1.201442,-1.216042,-1.147918,-0.249614,0.327664,0.054747,0.0,8.0,93.0,190.0,32.0,1.0
258853,-1.013856,-1.197817,-0.93278,-0.745958,0.31703000000000003,0.740961,0.0,8.0,93.0,190.0,32.0,1.0
258854,-0.877704,-1.16787,-0.7688689999999999,-0.530507,0.249165,0.771958,0.0,8.0,93.0,190.0,32.0,1.0
258855,-0.780119,-1.13129,-0.652185,-0.205081,0.166892,0.680802,0.0,8.0,93.0,190.0,32.0,1.0
258856,-0.689587,-1.0994540000000002,-0.557992,0.439219,0.210252,0.440882,0.0,8.0,93.0,190.0,32.0,1.0
258857,-0.591517,-1.0827639999999998,-0.4708350000000001,0.306242,0.259992,0.251398,0.0,8.0,93.0,190.0,32.0,1.0
258858,-0.502454,-1.075135,-0.381603,0.095038,0.226241,0.262219,0.0,8.0,93.0,190.0,32.0,1.0
258859,-0.424961,-1.070353,-0.295069,-0.206892,-0.043538,0.321804,0.0,8.0,93.0,190.0,32.0,1.0
258860,-0.356105,-1.067436,-0.214193,-0.162661,-0.136266,0.4592270000000001,0.0,8.0,93.0,190.0,32.0,1.0
258861,-0.307936,-1.061574,-0.13784100000000002,-0.124615,-0.15088,0.545812,0.0,8.0,93.0,190.0,32.0,1.0
258862,-0.276581,-1.0531700000000002,-0.065384,-0.015304,-0.337944,0.609352,0.0,8.0,93.0,190.0,32.0,1.0
258863,-0.25869699999999995,-1.046513,-0.001802,-0.094886,-0.561682,0.536082,0.0,8.0,93.0,190.0,32.0,1.0
258864,-0.25598200000000004,-1.047848,0.041422,-0.17106300000000002,-0.715014,0.442368,0.0,8.0,93.0,190.0,32.0,1.0
258865,-0.26564,-1.062029,0.060529,-0.219354,-0.7135859999999999,0.441108,0.0,8.0,93.0,190.0,32.0,1.0
258866,-0.286855,-1.086665,0.053287,-0.228725,-0.737314,0.457887,0.0,8.0,93.0,190.0,32.0,1.0
258867,-0.322599,-1.115481,0.017702000000000002,-0.239664,-0.720953,0.406903,0.0,8.0,93.0,190.0,32.0,1.0
258868,-0.375411,-1.14437,-0.042641000000000005,-0.223929,-0.706134,0.346168,0.0,8.0,93.0,190.0,32.0,1.0
258869,-0.4417,-1.1712129999999998,-0.123309,-0.14109100000000002,-0.548741,0.227525,0.0,8.0,93.0,190.0,32.0,1.0
258870,-0.523613,-1.191813,-0.214992,-0.10043,-0.353968,0.090734,0.0,8.0,93.0,190.0,32.0,1.0
258871,-0.629272,-1.198639,-0.305164,-0.030639,-0.25095700000000004,-0.009671,0.0,8.0,93.0,190.0,32.0,1.0
258872,-0.7454810000000001,-1.192812,-0.38015,0.25632,0.262942,-0.156401,0.0,8.0,93.0,190.0,32.0,1.0
258873,-0.8454709999999999,-1.185198,-0.42943,0.510782,0.397447,-0.209581,0.0,8.0,93.0,190.0,32.0,1.0
258874,-0.909413,-1.180678,-0.45278,0.518389,0.219255,-0.034921,0.0,8.0,93.0,190.0,32.0,1.0
258875,-0.945436,-1.190229,-0.476224,0.163762,0.096112,0.218942,0.0,8.0,93.0,190.0,32.0,1.0
258876,-0.967305,-1.2114790000000002,-0.5085689999999999,-0.355986,0.5965010000000001,-0.323705,0.0,8.0,93.0,190.0,32.0,1.0
258877,-0.993452,-1.231775,-0.540744,-0.428281,0.6926770000000001,-0.22873,0.0,8.0,93.0,190.0,32.0,1.0
258878,-0.982278,-1.242103,-0.534758,-0.466962,0.306343,0.766834,0.0,8.0,93.0,190.0,32.0,1.0
258879,-0.949956,-1.249626,-0.519667,-0.677682,0.104142,-0.521608,0.0,8.0,93.0,190.0,32.0,1.0
258880,-1.004178,-1.263497,-0.537018,-0.774454,0.601121,-0.195798,0.0,8.0,93.0,190.0,32.0,1.0
258881,-0.981259,-1.256162,-0.558285,0.175073,1.310199,0.102541,0.0,8.0,93.0,190.0,32.0,1.0
258882,-0.868592,-1.2511139999999998,-0.513768,1.130052,0.219641,0.313017,0.0,8.0,93.0,190.0,32.0,1.0
258883,-0.837543,-1.261972,-0.486187,0.2084,-0.012109,0.238962,0.0,8.0,93.0,190.0,32.0,1.0
258884,-0.823025,-1.259207,-0.463334,0.201465,-0.037922,0.569663,0.0,8.0,93.0,190.0,32.0,1.0
258885,-0.860225,-1.25015,-0.470342,0.259228,0.041798,0.09421,0.0,8.0,93.0,190.0,32.0,1.0
258886,-0.906402,-1.253539,-0.502789,0.236753,0.07554,0.190933,0.0,8.0,93.0,190.0,32.0,1.0
258887,-0.927991,-1.262009,-0.527339,0.166267,-0.080343,0.13037200000000002,0.0,8.0,93.0,190.0,32.0,1.0
258888,-0.954836,-1.269412,-0.5567850000000001,0.111305,-0.204774,-0.23484,0.0,8.0,93.0,190.0,32.0,1.0
258889,-0.990936,-1.270852,-0.586726,0.183507,-0.203095,-0.216587,0.0,8.0,93.0,190.0,32.0,1.0
258890,-1.007881,-1.267073,-0.6020909999999999,0.328243,-0.187384,0.023406,0.0,8.0,93.0,190.0,32.0,1.0
258891,-0.98665,-1.260766,-0.588816,0.14921099999999998,-0.294823,-0.206683,0.0,8.0,93.0,190.0,32.0,1.0
258892,-0.974549,-1.258394,-0.576033,0.090095,-0.330489,-0.298388,0.0,8.0,93.0,190.0,32.0,1.0
258893,-0.957863,-1.254732,-0.558764,-0.070661,-0.426235,0.0153,0.0,8.0,93.0,190.0,32.0,1.0
258894,-0.93424,-1.246975,-0.546061,-0.040591,-0.38017,-0.133089,0.0,8.0,93.0,190.0,32.0,1.0
258895,-0.907,-1.236792,-0.5385300000000001,0.012749,-0.185384,-0.06165900000000001,0.0,8.0,93.0,190.0,32.0,1.0
258896,-0.838829,-1.224723,-0.507357,0.259221,0.987862,-0.149057,0.0,8.0,93.0,190.0,32.0,1.0
258897,-0.748796,-1.214237,-0.448675,0.218138,1.227112,-0.100958,0.0,8.0,93.0,190.0,32.0,1.0
258898,-0.614559,-1.190834,-0.33376,0.12856199999999998,1.275972,0.051516,0.0,8.0,93.0,190.0,32.0,1.0
258899,-0.477907,-1.152753,-0.200457,-0.105481,0.789148,0.078067,0.0,8.0,93.0,190.0,32.0,1.0
258900,-0.370342,-1.110011,-0.0856,-0.120136,0.533999,0.405066,0.0,8.0,93.0,190.0,32.0,1.0
258901,-0.327371,-1.05914,-0.005002,-0.121249,0.055372000000000005,0.723544,0.0,8.0,93.0,190.0,32.0,1.0
258902,-0.334039,-1.013272,0.039799,-0.518674,-0.2691,0.412875,0.0,8.0,93.0,190.0,32.0,1.0
258903,-0.3344,-0.996926,0.058543,-0.347857,0.063987,0.097143,0.0,8.0,93.0,190.0,32.0,1.0
258904,-0.332649,-1.001307,0.05946,-0.15318099999999998,0.033052,0.277092,0.0,8.0,93.0,190.0,32.0,1.0
258905,-0.32560300000000003,-1.020622,0.056978,-0.048731,-0.267244,0.406612,0.0,8.0,93.0,190.0,32.0,1.0
258906,-0.319866,-1.052068,0.04923,0.079442,-0.487026,0.451486,0.0,8.0,93.0,190.0,32.0,1.0
258907,-0.325728,-1.092968,0.030096,0.165932,-0.654597,0.463555,0.0,8.0,93.0,190.0,32.0,1.0
258908,-0.357262,-1.140007,-0.0073700000000000015,0.245396,-0.8074100000000001,0.376652,0.0,8.0,93.0,190.0,32.0,1.0
258909,-0.427863,-1.186193,-0.070531,0.278733,-0.843543,0.327424,0.0,8.0,93.0,190.0,32.0,1.0
258910,-0.546596,-1.229011,-0.168896,0.2868,-0.79018,0.250171,0.0,8.0,93.0,190.0,32.0,1.0
258911,-0.725424,-1.259522,-0.312177,0.16116,-0.4169100000000001,0.069719,0.0,8.0,93.0,190.0,32.0,1.0
258912,-0.935951,-1.26727,-0.463322,0.138293,0.065578,0.018154,0.0,8.0,93.0,190.0,32.0,1.0
258913,-1.133887,-1.254991,-0.578054,0.12704300000000002,0.34703,-0.033187,0.0,8.0,93.0,190.0,32.0,1.0
258914,-1.303887,-1.242159,-0.65222,-0.128273,0.95789,-0.059228,0.0,8.0,93.0,190.0,32.0,1.0
258915,-1.419849,-1.253586,-0.706833,-0.150029,0.406794,-0.337834,0.0,8.0,93.0,190.0,32.0,1.0
258916,-1.454252,-1.281156,-0.7637520000000001,-0.264912,0.289929,-0.490001,0.0,8.0,93.0,190.0,32.0,1.0
258917,-1.425291,-1.296616,-0.808142,-1.06401,0.045257,0.07998,0.0,8.0,93.0,190.0,32.0,1.0
258918,-1.40405,-1.299479,-0.813296,-0.345745,0.039984,0.245664,0.0,8.0,93.0,190.0,32.0,1.0
258919,-1.368881,-1.296159,-0.757739,0.173468,0.20189,0.957687,0.0,8.0,93.0,190.0,32.0,1.0
258920,-1.314338,-1.284771,-0.743328,0.391236,0.816704,0.469265,0.0,8.0,93.0,190.0,32.0,1.0
258921,-1.353926,-1.282834,-0.788705,0.866036,0.781746,0.10157,0.0,8.0,93.0,190.0,32.0,1.0
258922,-1.327719,-1.2943870000000002,-0.811295,0.159004,0.223292,0.522908,0.0,8.0,93.0,190.0,32.0,1.0
258923,-1.313083,-1.2989389999999998,-0.794704,-0.028963,-0.09395,0.171489,0.0,8.0,93.0,190.0,32.0,1.0
258924,-1.309114,-1.294519,-0.754516,0.131749,-0.082531,0.039281,0.0,8.0,93.0,190.0,32.0,1.0
258925,-1.319573,-1.2897040000000002,-0.7401989999999999,0.045862,-0.085875,0.030074,0.0,8.0,93.0,190.0,32.0,1.0
258926,-1.360464,-1.289473,-0.766356,-0.047457,-0.28918,0.155096,0.0,8.0,93.0,190.0,32.0,1.0
258927,-1.38303,-1.288758,-0.791242,-0.011914,-0.331492,-0.141871,0.0,8.0,93.0,190.0,32.0,1.0
258928,-1.39434,-1.287262,-0.813174,0.070332,-0.242452,-0.30986,0.0,8.0,93.0,190.0,32.0,1.0
258929,-1.373046,-1.287425,-0.8157300000000001,0.103953,-0.289601,-0.129798,0.0,8.0,93.0,190.0,32.0,1.0
258930,-1.322645,-1.285074,-0.7866479999999999,0.139922,-0.386536,-0.20225,0.0,8.0,93.0,190.0,32.0,1.0
258931,-1.270231,-1.280412,-0.74561,0.159645,-0.434147,0.026609,0.0,8.0,93.0,190.0,32.0,1.0
258932,-1.205877,-1.27484,-0.703833,0.227644,-0.412044,-0.164571,0.0,8.0,93.0,190.0,32.0,1.0
258933,-1.1703290000000002,-1.271585,-0.686481,0.18167,-0.302814,-0.003366,0.0,8.0,93.0,190.0,32.0,1.0
258934,-1.137789,-1.268466,-0.669365,0.109571,-0.169992,0.050661000000000005,0.0,8.0,93.0,190.0,32.0,1.0
258935,-1.065948,-1.261859,-0.623418,-0.110475,0.545756,0.184845,0.0,8.0,93.0,190.0,32.0,1.0
258936,-0.94242,-1.245445,-0.513121,0.184532,0.737032,-0.09149,0.0,8.0,93.0,190.0,32.0,1.0
258937,-0.7794409999999999,-1.222549,-0.354767,0.236795,1.117767,-0.221588,0.0,8.0,93.0,190.0,32.0,1.0
258938,-0.601943,-1.192998,-0.187233,-0.241437,0.620326,0.071758,0.0,8.0,93.0,190.0,32.0,1.0
258939,-0.460854,-1.148586,-0.043253,-0.210198,0.415497,0.404766,0.0,8.0,93.0,190.0,32.0,1.0
258940,-0.39156,-1.091256,0.054497,-0.381166,0.077514,0.614813,0.0,8.0,93.0,190.0,32.0,1.0
258941,-0.388066,-1.032006,0.10595,-0.801621,-0.115791,0.436928,0.0,8.0,93.0,190.0,32.0,1.0
258942,-0.382539,-1.00348,0.12826500000000002,-0.469855,-0.256371,0.158251,0.0,8.0,93.0,190.0,32.0,1.0
258943,-0.369016,-0.999926,0.1364,-0.26926700000000003,-0.27484200000000003,0.234832,0.0,8.0,93.0,190.0,32.0,1.0
258944,-0.358153,-1.010693,0.130747,-0.173157,-0.279192,0.413235,0.0,8.0,93.0,190.0,32.0,1.0
258945,-0.35787,-1.032055,0.112502,-0.113441,-0.337359,0.4466850000000001,0.0,8.0,93.0,190.0,32.0,1.0
258946,-0.373475,-1.060744,0.079648,0.041286,-0.559639,0.440887,0.0,8.0,93.0,190.0,32.0,1.0
258947,-0.408877,-1.095919,0.027806,0.110019,-0.687719,0.369038,0.0,8.0,93.0,190.0,32.0,1.0
258948,-0.4725220000000001,-1.133307,-0.04934,0.1392,-0.74116,0.312825,0.0,8.0,93.0,190.0,32.0,1.0
258949,-0.5697220000000001,-1.167641,-0.152555,0.17268599999999998,-0.729535,0.256919,0.0,8.0,93.0,190.0,32.0,1.0
258950,-0.699729,-1.196237,-0.280983,0.188383,-0.560002,0.142993,0.0,8.0,93.0,190.0,32.0,1.0
258951,-0.8573200000000001,-1.215034,-0.4269020000000001,0.161942,-0.183506,-0.011636,0.0,8.0,93.0,190.0,32.0,1.0
258952,-1.027145,-1.2187290000000002,-0.5668989999999999,0.167924,0.348219,-0.16647,0.0,8.0,93.0,190.0,32.0,1.0
258953,-1.179927,-1.21301,-0.66362,0.195719,0.661226,-0.260321,0.0,8.0,93.0,190.0,32.0,1.0
258954,-1.309882,-1.213746,-0.737436,0.223404,0.582828,-0.200448,0.0,8.0,93.0,190.0,32.0,1.0
258955,-1.41023,-1.226194,-0.817978,0.156849,0.464552,-0.399622,0.0,8.0,93.0,190.0,32.0,1.0
258956,-1.451235,-1.247501,-0.879281,-0.153212,0.262088,0.520129,0.0,8.0,93.0,190.0,32.0,1.0
258957,-1.44725,-1.262901,-0.930192,-0.71599,0.08729400000000001,0.5684859999999999,0.0,8.0,93.0,190.0,32.0,1.0
258958,-1.451392,-1.266425,-0.955977,-1.188475,0.142995,-1.891138,0.0,8.0,93.0,190.0,32.0,1.0
258959,-1.454769,-1.26381,-0.920276,-0.271542,1.808043,-0.026879000000000004,0.0,8.0,93.0,190.0,32.0,1.0
258960,-1.392385,-1.247852,-0.905907,1.040295,0.983992,-0.051441,0.0,8.0,93.0,190.0,32.0,1.0
258961,-1.306747,-1.2584110000000002,-0.852892,1.383811,0.4224810000000001,0.200794,0.0,8.0,93.0,190.0,32.0,1.0
258962,-1.264958,-1.271533,-0.8200649999999999,0.12853699999999998,-0.161975,0.328993,0.0,8.0,93.0,190.0,32.0,1.0
258963,-1.264057,-1.278497,-0.805229,0.037329,-0.194095,0.425319,0.0,8.0,93.0,190.0,32.0,1.0
258964,-1.267871,-1.2752370000000002,-0.78365,0.135181,-0.048818,-0.013474000000000002,0.0,8.0,93.0,190.0,32.0,1.0
258965,-1.305791,-1.279325,-0.8098479999999999,0.062247,-0.057019000000000014,0.083833,0.0,8.0,93.0,190.0,32.0,1.0
258966,-1.343015,-1.28751,-0.8550129999999999,-0.016065,-0.196043,-0.028196,0.0,8.0,93.0,190.0,32.0,1.0
258967,-1.367374,-1.290771,-0.8846510000000001,0.025292,-0.169575,-0.226626,0.0,8.0,93.0,190.0,32.0,1.0
258968,-1.375665,-1.287591,-0.890757,0.12559,-0.122793,-0.265054,0.0,8.0,93.0,190.0,32.0,1.0
258969,-1.346859,-1.281396,-0.868241,0.174617,-0.239131,-0.038012,0.0,8.0,93.0,190.0,32.0,1.0
258970,-1.307472,-1.275767,-0.8363649999999999,0.294771,-0.275595,-0.16838699999999998,0.0,8.0,93.0,190.0,32.0,1.0
258971,-1.270735,-1.271409,-0.805585,0.14994100000000002,-0.412884,-0.22502600000000006,0.0,8.0,93.0,190.0,32.0,1.0
258972,-1.219747,-1.264991,-0.759207,0.135276,-0.3861,-0.105265,0.0,8.0,93.0,190.0,32.0,1.0
258973,-1.179299,-1.259197,-0.73007,0.116048,-0.322175,-0.180146,0.0,8.0,93.0,190.0,32.0,1.0
258974,-1.150119,-1.2573,-0.722648,0.07539,-0.07178999999999999,-0.090991,0.0,8.0,93.0,190.0,32.0,1.0
258975,-1.09026,-1.2495969999999998,-0.683566,-0.004541,0.309626,-0.005244,0.0,8.0,93.0,190.0,32.0,1.0
258976,-1.006152,-1.235691,-0.609783,-0.020813,0.788443,-0.011438,0.0,8.0,93.0,190.0,32.0,1.0
258977,-0.8834489999999999,-1.214944,-0.489025,0.169397,0.914457,-0.14122300000000002,0.0,8.0,93.0,190.0,32.0,1.0
258978,-0.7328680000000001,-1.186238,-0.334281,-0.114742,1.09481,-0.008366,0.0,8.0,93.0,190.0,32.0,1.0
258979,-0.591411,-1.147635,-0.183546,-0.201114,0.841989,0.146429,0.0,8.0,93.0,190.0,32.0,1.0
258980,-0.502421,-1.097437,-0.069101,-0.348288,0.28075,0.549768,0.0,8.0,93.0,190.0,32.0,1.0
258981,-0.474534,-1.0448110000000002,-0.001961,-0.400589,-0.244117,0.557589,0.0,8.0,93.0,190.0,32.0,1.0
258982,-0.47677,-1.006058,0.03045,-0.461398,-0.315294,0.5143979999999999,0.0,8.0,93.0,190.0,32.0,1.0
258983,-0.47222,-0.993186,0.04082,-0.547063,-0.266878,0.345145,0.0,8.0,93.0,190.0,32.0,1.0
258984,-0.465529,-0.999397,0.032935,-0.140431,-0.171925,0.352971,0.0,8.0,93.0,190.0,32.0,1.0
258985,-0.46227,-1.019064,0.014071,-0.084398,-0.234034,0.384026,0.0,8.0,93.0,190.0,32.0,1.0
258986,-0.470532,-1.046874,-0.017498,0.027507,-0.46268,0.43121,0.0,8.0,93.0,190.0,32.0,1.0
258987,-0.4970020000000001,-1.080978,-0.067424,0.040287,-0.539401,0.395851,0.0,8.0,93.0,190.0,32.0,1.0
258988,-0.5511510000000001,-1.119953,-0.140673,0.098437,-0.631953,0.340063,0.0,8.0,93.0,190.0,32.0,1.0
258989,-0.64137,-1.159087,-0.242803,0.123751,-0.566997,0.164693,0.0,8.0,93.0,190.0,32.0,1.0
258990,-0.769201,-1.191604,-0.372169,0.153474,-0.50863,0.060267,0.0,8.0,93.0,190.0,32.0,1.0
258991,-0.928608,-1.20909,-0.516133,0.1756,-0.383979,-0.027397,0.0,8.0,93.0,190.0,32.0,1.0
258992,-1.089249,-1.2083540000000002,-0.641997,0.206749,0.250803,-0.222775,0.0,8.0,93.0,190.0,32.0,1.0
258993,-1.219715,-1.199151,-0.719381,0.320985,0.451051,-0.309595,0.0,8.0,93.0,190.0,32.0,1.0
258994,-1.318483,-1.19747,-0.765649,0.382287,0.374774,-0.177329,0.0,8.0,93.0,190.0,32.0,1.0
258995,-1.391872,-1.205381,-0.811706,0.070784,0.397094,-0.24547600000000006,0.0,8.0,93.0,190.0,32.0,1.0
258996,-1.413242,-1.221191,-0.845209,-0.268433,0.333945,0.37779,0.0,8.0,93.0,190.0,32.0,1.0
258997,-1.415033,-1.236705,-0.893482,-0.713136,0.091272,0.5286029999999999,0.0,8.0,93.0,190.0,32.0,1.0
258998,-1.428734,-1.248936,-0.934397,-0.934916,-0.276804,-0.765534,0.0,8.0,93.0,190.0,32.0,1.0
258999,-1.49739,-1.25841,-0.968595,-0.8395549999999999,1.048717,0.117005,0.0,8.0,93.0,190.0,32.0,1.0
259000,-1.459426,-1.245516,-0.983088,0.565276,2.178598,-0.70414,0.0,8.0,93.0,190.0,32.0,1.0
259001,-1.357902,-1.255548,-0.950797,1.300201,-0.09783,0.686171,0.0,8.0,93.0,190.0,32.0,1.0
259002,-1.281256,-1.271183,-0.893322,-0.034668,-0.349783,0.26118600000000003,0.0,8.0,93.0,190.0,32.0,1.0
259003,-1.268225,-1.275754,-0.863916,0.180984,-0.31853000000000004,0.375714,0.0,8.0,93.0,190.0,32.0,1.0
259004,-1.290096,-1.264134,-0.8488610000000001,0.093716,0.07946,-0.00015,0.0,8.0,93.0,190.0,32.0,1.0
259005,-1.363138,-1.258799,-0.904379,0.121534,0.24153,0.251939,0.0,8.0,93.0,190.0,32.0,1.0
259006,-1.417786,-1.264467,-0.968187,0.148624,-0.010988,0.273374,0.0,8.0,93.0,190.0,32.0,1.0
259007,-1.439375,-1.272008,-1.012776,-0.044617,-0.089666,-0.372593,0.0,8.0,93.0,190.0,32.0,1.0
259008,-1.472746,-1.274908,-1.048267,-0.017796,-0.163651,-0.166145,0.0,8.0,93.0,190.0,32.0,1.0
259009,-1.471837,-1.2700280000000002,-1.046555,0.108998,-0.176041,-0.08313,0.0,8.0,93.0,190.0,32.0,1.0
259010,-1.4432969999999998,-1.262431,-1.021096,0.25807,-0.29066,-0.087267,0.0,8.0,93.0,190.0,32.0,1.0
259011,-1.40762,-1.257319,-0.993574,0.139692,-0.5546909999999999,-0.281468,0.0,8.0,93.0,190.0,32.0,1.0
259012,-1.366239,-1.251753,-0.960028,0.103966,-0.57539,-0.295025,0.0,8.0,93.0,190.0,32.0,1.0
259013,-1.323329,-1.244508,-0.920653,0.201974,-0.4712560000000001,0.14668299999999998,0.0,8.0,93.0,190.0,32.0,1.0
259014,-1.283302,-1.240741,-0.895436,0.357521,-0.139613,-0.063338,0.0,8.0,93.0,190.0,32.0,1.0
259015,-1.250846,-1.238,-0.876136,0.292063,0.036603,-0.107403,0.0,8.0,93.0,190.0,32.0,1.0
259016,-1.186693,-1.231619,-0.8240790000000001,0.15143299999999998,0.476481,-0.07546699999999999,0.0,8.0,93.0,190.0,32.0,1.0
259017,-1.0874469999999998,-1.222995,-0.7315619999999999,0.016779,0.804917,0.000126,0.0,8.0,93.0,190.0,32.0,1.0
259018,-0.955453,-1.205232,-0.593229,-0.137569,0.706489,-0.232322,0.0,8.0,93.0,190.0,32.0,1.0
259019,-0.8098069999999999,-1.177388,-0.432478,-0.274648,0.855109,-0.026617,0.0,8.0,93.0,190.0,32.0,1.0
259020,-0.6681520000000001,-1.138436,-0.277457,-0.302288,0.802562,0.180815,0.0,8.0,93.0,190.0,32.0,1.0
259021,-0.5608029999999999,-1.095108,-0.155165,-0.184478,0.415954,0.451211,0.0,8.0,93.0,190.0,32.0,1.0
259022,-0.502444,-1.051088,-0.071881,-0.327831,0.224108,0.638425,0.0,8.0,93.0,190.0,32.0,1.0
259023,-0.464098,-1.024473,-0.022347,-0.453695,-0.085337,0.17691099999999998,0.0,8.0,93.0,190.0,32.0,1.0
259024,-0.42586,-1.023936,0.00354,-0.191528,-0.084661,0.10539,0.0,8.0,93.0,190.0,32.0,1.0
259025,-0.393975,-1.033655,0.015004,-0.105087,-0.084379,0.27157600000000004,0.0,8.0,93.0,190.0,32.0,1.0
259026,-0.376069,-1.051707,0.014032,-0.099362,-0.31143200000000004,0.461762,0.0,8.0,93.0,190.0,32.0,1.0
259027,-0.380987,-1.075447,-0.002613,-0.07069199999999999,-0.4204060000000001,0.4815140000000001,0.0,8.0,93.0,190.0,32.0,1.0
259028,-0.408623,-1.103126,-0.038036,0.051055,-0.74516,0.413818,0.0,8.0,93.0,190.0,32.0,1.0
259029,-0.46166,-1.133373,-0.097282,0.106515,-0.75248,0.359931,0.0,8.0,93.0,190.0,32.0,1.0
259030,-0.547708,-1.163399,-0.184459,0.17483800000000002,-0.7733949999999999,0.285605,0.0,8.0,93.0,190.0,32.0,1.0
259031,-0.667996,-1.188703,-0.29881,0.188968,-0.645568,0.214583,0.0,8.0,93.0,190.0,32.0,1.0
259032,-0.8177270000000001,-1.207003,-0.434435,0.211541,-0.485854,0.141092,0.0,8.0,93.0,190.0,32.0,1.0
259033,-0.981584,-1.215877,-0.570516,0.111713,0.023553,-0.064541,0.0,8.0,93.0,190.0,32.0,1.0
259034,-1.129571,-1.21476,-0.676191,-0.053005,0.25253400000000004,-0.41587,0.0,8.0,93.0,190.0,32.0,1.0
259035,-1.246902,-1.20424,-0.740295,-0.076211,0.379833,-0.587923,0.0,8.0,93.0,190.0,32.0,1.0
259036,-1.336955,-1.195773,-0.77295,0.154443,0.526746,-0.17333900000000002,0.0,8.0,93.0,190.0,32.0,1.0
259037,-1.411943,-1.200002,-0.8140890000000001,0.036677,0.612409,-0.241269,0.0,8.0,93.0,190.0,32.0,1.0
259038,-1.432963,-1.21361,-0.847299,-0.19597,0.432012,0.358537,0.0,8.0,93.0,190.0,32.0,1.0
259039,-1.40739,-1.229453,-0.878075,-0.6448619999999999,-0.08114600000000001,0.505274,0.0,8.0,93.0,190.0,32.0,1.0
259040,-1.394367,-1.238972,-0.8942889999999999,-1.010448,-0.146454,-0.8379540000000001,0.0,8.0,93.0,190.0,32.0,1.0
259041,-1.475829,-1.248463,-0.947146,-0.611496,-0.01753,-0.084344,0.0,8.0,93.0,190.0,32.0,1.0
259042,-1.438346,-1.240522,-0.956693,0.173453,1.847916,0.061929,0.0,8.0,93.0,190.0,32.0,1.0
259043,-1.413769,-1.235516,-0.95417,1.398978,0.605304,-0.268816,0.0,8.0,93.0,190.0,32.0,1.0
259044,-1.377292,-1.2481870000000002,-0.934412,0.634781,0.012785,0.07193200000000001,0.0,8.0,93.0,190.0,32.0,1.0
259045,-1.367118,-1.254764,-0.918816,-0.156577,-0.027914,0.516443,0.0,8.0,93.0,190.0,32.0,1.0
259046,-1.383721,-1.25015,-0.904843,0.015326,-0.067242,0.126973,0.0,8.0,93.0,190.0,32.0,1.0
259047,-1.434792,-1.246406,-0.937219,0.031,-0.059997,-0.003069,0.0,8.0,93.0,190.0,32.0,1.0
259048,-1.49259,-1.246595,-0.999856,0.061232,-0.19995,0.079695,0.0,8.0,93.0,190.0,32.0,1.0
259049,-1.5294370000000002,-1.246824,-1.054204,0.048013,-0.161174,-0.07596499999999999,0.0,8.0,93.0,190.0,32.0,1.0
259050,-1.554359,-1.243631,-1.088969,0.070418,-0.144681,-0.319013,0.0,8.0,93.0,190.0,32.0,1.0
259051,-1.565203,-1.23896,-1.106355,0.093767,-0.144405,-0.229089,0.0,8.0,93.0,190.0,32.0,1.0
259052,-1.548906,-1.23315,-1.101471,0.16639500000000002,-0.315744,-0.112043,0.0,8.0,93.0,190.0,32.0,1.0
259053,-1.513906,-1.226025,-1.076975,0.196614,-0.384772,-0.092707,0.0,8.0,93.0,190.0,32.0,1.0
259054,-1.466973,-1.218169,-1.042498,0.216403,-0.412224,-0.180595,0.0,8.0,93.0,190.0,32.0,1.0
259055,-1.423325,-1.208631,-1.009194,0.211421,-0.357983,-0.167152,0.0,8.0,93.0,190.0,32.0,1.0
259056,-1.380676,-1.199874,-0.982342,0.329643,-0.173189,-0.19446,0.0,8.0,93.0,190.0,32.0,1.0
259057,-1.325462,-1.195869,-0.959205,0.376623,-0.018181,-0.156668,0.0,8.0,93.0,190.0,32.0,1.0
259058,-1.249701,-1.192424,-0.913775,0.343929,0.14293699999999998,-0.060315,0.0,8.0,93.0,190.0,32.0,1.0
259059,-1.134278,-1.186339,-0.813347,0.13221,0.599838,-0.25326,0.0,8.0,93.0,190.0,32.0,1.0
259060,-0.97361,-1.173956,-0.6581819999999999,-0.29471,1.09787,-0.269977,0.0,8.0,93.0,190.0,32.0,1.0
259061,-0.797656,-1.140464,-0.464913,-0.313081,1.102067,0.146668,0.0,8.0,93.0,190.0,32.0,1.0
259062,-0.659625,-1.091821,-0.298204,-0.08748099999999999,0.384826,0.668714,0.0,8.0,93.0,190.0,32.0,1.0
259063,-0.569076,-1.046879,-0.182703,-0.062156,0.229303,0.6581779999999999,0.0,8.0,93.0,190.0,32.0,1.0
259064,-0.524055,-1.0121719999999998,-0.111056,-0.120909,0.030921,0.454457,0.0,8.0,93.0,190.0,32.0,1.0
259065,-0.49629,-0.991134,-0.065374,-0.291572,-0.019448,0.350502,0.0,8.0,93.0,190.0,32.0,1.0
259066,-0.478858,-0.986446,-0.041945,-0.357238,0.011602,0.378745,0.0,8.0,93.0,190.0,32.0,1.0
259067,-0.471451,-0.994546,-0.036078,-0.229763,-0.164409,0.418205,0.0,8.0,93.0,190.0,32.0,1.0
259068,-0.477355,-1.015883,-0.047744,-0.092355,-0.438371,0.457741,0.0,8.0,93.0,190.0,32.0,1.0
259069,-0.500722,-1.048259,-0.079617,0.045736,-0.56199,0.441999,0.0,8.0,93.0,190.0,32.0,1.0
259070,-0.546389,-1.086831,-0.132694,0.162172,-0.622919,0.389513,0.0,8.0,93.0,190.0,32.0,1.0
259071,-0.627108,-1.126933,-0.217271,0.250108,-0.6089100000000001,0.297068,0.0,8.0,93.0,190.0,32.0,1.0
259072,-0.7491369999999999,-1.164871,-0.336054,0.279869,-0.564596,0.21355,0.0,8.0,93.0,190.0,32.0,1.0
259073,-0.914525,-1.192387,-0.486345,0.340414,-0.483254,0.111824,0.0,8.0,93.0,190.0,32.0,1.0
259074,-1.104118,-1.198769,-0.6436970000000001,0.255188,-0.295362,-0.010838,0.0,8.0,93.0,190.0,32.0,1.0
259075,-1.27447,-1.186845,-0.749801,0.129129,-0.080711,-0.177352,0.0,8.0,93.0,190.0,32.0,1.0
259076,-1.401154,-1.169038,-0.7916770000000001,0.056179,0.158818,-0.4395850000000001,0.0,8.0,93.0,190.0,32.0,1.0
259077,-1.480844,-1.157758,-0.792496,0.06546,0.337345,0.08142,0.0,8.0,93.0,190.0,32.0,1.0
259078,-1.528649,-1.164001,-0.8099430000000001,-0.267914,0.589724,0.095619,0.0,8.0,93.0,190.0,32.0,1.0
259079,-1.51678,-1.170248,-0.8235299999999999,-0.765378,0.97756,-0.580741,0.0,8.0,93.0,190.0,32.0,1.0
259080,-1.461292,-1.176685,-0.814188,-0.5282020000000001,-0.096556,0.191681,0.0,8.0,93.0,190.0,32.0,1.0
259081,-1.512957,-1.1855870000000002,-0.84636,-0.441794,-0.024880000000000003,0.158088,0.0,8.0,93.0,190.0,32.0,1.0
259082,-1.520241,-1.188333,-0.860555,0.065836,0.407991,0.6096630000000001,0.0,8.0,93.0,190.0,32.0,1.0
259083,-1.4793120000000002,-1.187474,-0.8520969999999999,0.003229,1.485598,-0.391081,0.0,8.0,93.0,190.0,32.0,1.0
259084,-1.515034,-1.189147,-0.8794790000000001,0.392325,0.8811530000000001,0.021245,0.0,8.0,93.0,190.0,32.0,1.0
259085,-1.487166,-1.193044,-0.867504,0.277109,0.17257,0.58606,0.0,8.0,93.0,190.0,32.0,1.0
259086,-1.492404,-1.195098,-0.8514860000000001,0.242173,0.07656900000000001,0.436203,0.0,8.0,93.0,190.0,32.0,1.0
259087,-1.51242,-1.194293,-0.841714,0.156417,-0.126443,-0.024296,0.0,8.0,93.0,190.0,32.0,1.0
259088,-1.519521,-1.192957,-0.838139,-0.019691,-0.418874,0.080613,0.0,8.0,93.0,190.0,32.0,1.0
259089,-1.547711,-1.19187,-0.85787,-0.061889,-0.470032,0.07952200000000001,0.0,8.0,93.0,190.0,32.0,1.0
259090,-1.581281,-1.1868459999999998,-0.881764,-0.007006999999999999,-0.414268,0.068964,0.0,8.0,93.0,190.0,32.0,1.0
259091,-1.61059,-1.176228,-0.906691,0.132659,-0.176474,-0.198306,0.0,8.0,93.0,190.0,32.0,1.0
259092,-1.623501,-1.165367,-0.927237,0.265544,-0.215991,-0.17251,0.0,8.0,93.0,190.0,32.0,1.0
259093,-1.611766,-1.156873,-0.933696,0.272889,-0.327797,-0.163415,0.0,8.0,93.0,190.0,32.0,1.0
259094,-1.59846,-1.147928,-0.925874,0.282328,-0.358067,-0.411359,0.0,8.0,93.0,190.0,32.0,1.0
259095,-1.562838,-1.138854,-0.899774,0.411137,-0.191586,-0.228327,0.0,8.0,93.0,190.0,32.0,1.0
259096,-1.514881,-1.1309870000000002,-0.8742209999999999,0.377914,-0.096804,-0.243419,0.0,8.0,93.0,190.0,32.0,1.0
259097,-1.487366,-1.12558,-0.8484959999999999,0.17869000000000002,-0.034765,-0.109164,0.0,8.0,93.0,190.0,32.0,1.0
259098,-1.430163,-1.11949,-0.791483,0.192968,0.247827,0.06204700000000001,0.0,8.0,93.0,190.0,32.0,1.0
259099,-1.3461610000000002,-1.112741,-0.7054560000000001,0.250562,0.490033,-0.113265,0.0,8.0,93.0,190.0,32.0,1.0
259100,-1.230548,-1.103104,-0.581132,-0.11846199999999997,0.691557,-0.065315,0.0,8.0,93.0,190.0,32.0,1.0
259101,-1.099882,-1.084097,-0.431437,-0.124885,0.8120569999999999,0.121068,0.0,8.0,93.0,190.0,32.0,1.0
259102,-0.966502,-1.056339,-0.280156,-0.07862899999999999,0.90744,0.194672,0.0,8.0,93.0,190.0,32.0,1.0
259103,-0.86039,-1.026996,-0.151462,0.046642,0.40594,0.659868,0.0,8.0,93.0,190.0,32.0,1.0
259104,-0.792451,-1.002026,-0.06164,-0.118242,0.2196,0.487562,0.0,8.0,93.0,190.0,32.0,1.0
259105,-0.757083,-0.993444,-0.012163,-0.203285,0.280116,0.235483,0.0,8.0,93.0,190.0,32.0,1.0
259106,-0.724851,-1.006369,0.012595,-0.08285,0.434386,-0.046154,0.0,8.0,93.0,190.0,32.0,1.0
259107,-0.701,-1.027297,0.029874,0.023491,0.086875,0.178081,0.0,8.0,93.0,190.0,32.0,1.0
259108,-0.688978,-1.05138,0.042009,0.019982,-0.305655,0.350241,0.0,8.0,93.0,190.0,32.0,1.0
259109,-0.704281,-1.072595,0.038379,0.138674,-0.57255,0.405908,0.0,8.0,93.0,190.0,32.0,1.0
259110,-0.749537,-1.090343,0.013194999999999998,0.234398,-0.704153,0.376439,0.0,8.0,93.0,190.0,32.0,1.0
259111,-0.816855,-1.1077780000000002,-0.032435000000000005,0.20917,-0.741052,0.311283,0.0,8.0,93.0,190.0,32.0,1.0
259112,-0.905878,-1.125965,-0.103444,0.126709,-0.748264,0.26219000000000003,0.0,8.0,93.0,190.0,32.0,1.0
259113,-1.0180280000000002,-1.139439,-0.197445,0.000246,-0.576658,0.218842,0.0,8.0,93.0,190.0,32.0,1.0
259114,-1.141545,-1.139917,-0.289081,-0.082475,-0.25602600000000003,0.172265,0.0,8.0,93.0,190.0,32.0,1.0
259115,-1.266672,-1.128309,-0.368885,-0.111379,0.150052,-0.13112,0.0,8.0,93.0,190.0,32.0,1.0
259116,-1.388072,-1.109813,-0.424666,-0.016225999999999997,0.283614,-0.691757,0.0,8.0,93.0,190.0,32.0,1.0
259117,-1.4197799999999998,-1.08531,-0.391861,-0.178754,1.066159,-1.615348,0.0,8.0,93.0,190.0,32.0,1.0
259118,-1.364108,-1.071392,-0.304857,0.289674,0.7479100000000001,-0.639776,0.0,8.0,93.0,190.0,32.0,1.0
259119,-1.28418,-1.081007,-0.246434,0.434765,-0.02498,-0.569767,0.0,8.0,93.0,190.0,32.0,1.0
259120,-1.247285,-1.094148,-0.225201,-0.116316,-0.239154,-0.15517899999999998,0.0,8.0,93.0,190.0,32.0,1.0
259121,-1.238112,-1.099565,-0.228765,-0.767644,0.373745,0.234224,0.0,8.0,93.0,190.0,32.0,1.0
259122,-1.2291530000000002,-1.106343,-0.233211,-0.034043000000000004,-0.438668,1.245389,0.0,8.0,93.0,190.0,32.0,1.0
259123,-1.204173,-1.114355,-0.234789,-0.122765,-0.290617,1.090544,0.0,8.0,93.0,190.0,32.0,1.0
259124,-1.244993,-1.125267,-0.277199,-0.358158,0.063224,0.64366,0.0,8.0,93.0,190.0,32.0,1.0
259125,-1.340234,-1.132401,-0.349013,-0.401206,1.495857,0.656937,0.0,8.0,93.0,190.0,32.0,1.0
259126,-1.379407,-1.129945,-0.398428,1.189113,2.039321,-0.236706,0.0,8.0,93.0,190.0,32.0,1.0
259127,-1.315542,-1.121214,-0.332006,0.280671,0.140723,0.479903,0.0,8.0,93.0,190.0,32.0,1.0
259128,-1.343491,-1.123693,-0.28817,0.040383,0.021972,0.737579,0.0,8.0,93.0,190.0,32.0,1.0
259129,-1.40281,-1.134451,-0.299119,-0.556167,-0.266303,0.39889,0.0,8.0,93.0,190.0,32.0,1.0
259130,-1.482122,-1.140971,-0.369333,-0.37386,-0.117321,0.034658,0.0,8.0,93.0,190.0,32.0,1.0
259131,-1.557815,-1.143914,-0.455635,-0.254193,0.027911,0.003024,0.0,8.0,93.0,190.0,32.0,1.0
259132,-1.645805,-1.141547,-0.5495439999999999,0.069776,-0.032005,0.037631,0.0,8.0,93.0,190.0,32.0,1.0
259133,-1.730609,-1.132426,-0.634109,0.12598199999999998,-0.144703,-0.08025299999999999,0.0,8.0,93.0,190.0,32.0,1.0
259134,-1.793537,-1.118345,-0.707206,0.189772,-0.149271,-0.117975,0.0,8.0,93.0,190.0,32.0,1.0
259135,-1.834856,-1.101358,-0.760059,0.29851,-0.2295,-0.05787000000000001,0.0,8.0,93.0,190.0,32.0,1.0
259136,-1.853187,-1.082531,-0.78162,0.336781,-0.273773,-0.017884,0.0,8.0,93.0,190.0,32.0,1.0
259137,-1.861577,-1.062594,-0.7913100000000001,0.355041,-0.215418,-0.032844,0.0,8.0,93.0,190.0,32.0,1.0
259138,-1.877533,-1.039798,-0.803713,0.40496,0.015506,-0.137181,0.0,8.0,93.0,190.0,32.0,1.0
259139,-1.906537,-1.014973,-0.819684,0.498037,0.154135,-0.17915899999999998,0.0,8.0,93.0,190.0,32.0,1.0
259140,-1.9378,-0.990508,-0.829234,0.748197,0.191161,-0.0013310000000000002,0.0,8.0,93.0,190.0,32.0,1.0
259141,-1.963044,-0.970227,-0.835353,0.697647,0.322996,-0.049342,0.0,8.0,93.0,190.0,32.0,1.0
259142,-1.969307,-0.957306,-0.827001,0.282908,0.387084,-0.290705,0.0,8.0,93.0,190.0,32.0,1.0
259143,-1.97228,-0.950659,-0.803353,0.202501,0.533339,-0.297696,0.0,8.0,93.0,190.0,32.0,1.0
259144,-1.972708,-0.953806,-0.763598,0.107225,0.683171,-0.289293,0.0,8.0,93.0,190.0,32.0,1.0
259145,-1.950121,-0.962052,-0.7168140000000001,0.326775,0.731071,-0.266808,0.0,8.0,93.0,190.0,32.0,1.0
259146,-1.910273,-0.972535,-0.6559659999999999,0.499242,0.752572,-0.213369,0.0,8.0,93.0,190.0,32.0,1.0
259147,-1.84895,-0.992243,-0.561288,0.686952,0.816051,-0.192435,0.0,8.0,93.0,190.0,32.0,1.0
259148,-1.756218,-1.020742,-0.425674,0.73253,0.6195649999999999,0.074516,0.0,8.0,93.0,190.0,32.0,1.0
259149,-1.626566,-1.052631,-0.2502,0.401736,0.361907,0.317731,0.0,8.0,93.0,190.0,32.0,1.0
259150,-1.466569,-1.080279,-0.052439,0.110638,0.233908,0.211758,0.0,8.0,93.0,190.0,32.0,1.0
259151,-1.313458,-1.088078,0.132967,-0.944047,0.744848,0.212342,0.0,8.0,93.0,190.0,32.0,1.0
259152,-1.196815,-1.073636,0.279689,-0.718238,0.212399,0.735171,0.0,8.0,93.0,190.0,32.0,1.0
259153,-1.100611,-1.0564360000000002,0.394053,-0.188074,0.142225,0.789732,0.0,8.0,93.0,190.0,32.0,1.0
259154,-1.0140129999999998,-1.040194,0.493305,0.542489,0.152375,0.496789,0.0,8.0,93.0,190.0,32.0,1.0
259155,-0.931757,-1.029148,0.590033,0.6915439999999999,0.347867,0.388318,0.0,8.0,93.0,190.0,32.0,1.0
259156,-0.8621219999999999,-1.0244879999999998,0.694021,0.762537,0.402006,0.48738,0.0,8.0,93.0,190.0,32.0,1.0
259157,-0.784791,-1.0279790000000002,0.798867,0.37212,0.216055,0.462575,0.0,8.0,93.0,190.0,32.0,1.0
259158,-0.722893,-1.032167,0.898057,0.154147,0.111802,0.604047,0.0,8.0,93.0,190.0,32.0,1.0
259159,-0.687163,-1.031689,1.0005959999999998,0.138741,0.034624,0.728225,0.0,8.0,93.0,190.0,32.0,1.0
259160,-0.6691560000000001,-1.026791,1.106205,0.147483,-0.06185,0.7852439999999999,0.0,8.0,93.0,190.0,32.0,1.0
259161,-0.664377,-1.0217,1.20501,0.03288,-0.278305,0.709098,0.0,8.0,93.0,190.0,32.0,1.0
259162,-0.671985,-1.0210549999999998,1.288076,-0.026817,-0.35388000000000003,0.6700659999999999,0.0,8.0,93.0,190.0,32.0,1.0
259163,-0.695681,-1.028027,1.345828,-0.166303,-0.488148,0.613421,0.0,8.0,93.0,190.0,32.0,1.0
259164,-0.735347,-1.042876,1.374671,-0.221681,-0.461833,0.575892,0.0,8.0,93.0,190.0,32.0,1.0
259165,-0.792316,-1.063732,1.372035,-0.260388,-0.412336,0.498259,0.0,8.0,93.0,190.0,32.0,1.0
259166,-0.871079,-1.088041,1.3330030000000002,-0.284551,-0.396415,0.388869,0.0,8.0,93.0,190.0,32.0,1.0
259167,-0.977291,-1.112187,1.255033,-0.318828,-0.32142800000000005,0.303106,0.0,8.0,93.0,190.0,32.0,1.0
259168,-1.10923,-1.129017,1.141693,-0.368782,-0.096161,0.06189,0.0,8.0,93.0,190.0,32.0,1.0
259169,-1.250004,-1.133545,1.021627,-0.370145,0.230617,-0.342513,0.0,8.0,93.0,190.0,32.0,1.0
259170,-1.35536,-1.127027,0.951565,-0.142369,0.731107,-0.949344,0.0,8.0,93.0,190.0,32.0,1.0
259171,-1.339489,-1.111482,1.013596,0.346895,1.639334,-1.526224,0.0,8.0,93.0,190.0,32.0,1.0
259172,-1.275383,-1.111445,1.108825,0.7541720000000001,0.843925,-0.481065,0.0,8.0,93.0,190.0,32.0,1.0
259173,-1.225492,-1.123093,1.1676879999999998,0.396275,0.006668,0.11257,0.0,8.0,93.0,190.0,32.0,1.0
259174,-1.203919,-1.14159,1.182397,0.116125,-0.122141,0.679905,0.0,8.0,93.0,190.0,32.0,1.0
259175,-1.2315200000000002,-1.159033,1.144193,-0.11653800000000003,-0.111988,1.084941,0.0,8.0,93.0,190.0,32.0,1.0
259176,-1.253821,-1.16035,1.11936,0.012861,0.331241,-0.787532,0.0,8.0,93.0,190.0,32.0,1.0
259177,-1.214612,-1.1462139999999998,1.18115,0.249954,0.038969,0.184209,0.0,8.0,93.0,190.0,32.0,1.0
259178,-1.229827,-1.136234,1.214879,0.403972,-0.226467,0.704684,0.0,8.0,93.0,190.0,32.0,1.0
259179,-1.306633,-1.131652,1.208249,0.306024,-0.105525,0.5854010000000001,0.0,8.0,93.0,190.0,32.0,1.0
259180,-1.383016,-1.124109,1.192754,0.225145,0.051746,0.45286,0.0,8.0,93.0,190.0,32.0,1.0
259181,-1.454572,-1.113784,1.190586,0.054815,0.239497,0.283849,0.0,8.0,93.0,190.0,32.0,1.0
259182,-1.5355530000000002,-1.104639,1.190374,0.104931,0.24859,0.271833,0.0,8.0,93.0,190.0,32.0,1.0
259183,-1.6191950000000002,-1.105573,1.173486,-0.004153,-0.060165,0.09463,0.0,8.0,93.0,190.0,32.0,1.0
259184,-1.706898,-1.111734,1.111628,-0.05975,-0.082946,-0.140516,0.0,8.0,93.0,190.0,32.0,1.0
259185,-1.800011,-1.1164040000000002,1.046443,-0.12546300000000002,0.036805,-0.168614,0.0,8.0,93.0,190.0,32.0,1.0
259186,-1.877442,-1.113852,0.989207,0.067617,-0.10172,-0.029156,0.0,8.0,93.0,190.0,32.0,1.0
259187,-1.935876,-1.104591,0.936523,0.042284,-0.22313,-0.045954,0.0,8.0,93.0,190.0,32.0,1.0
259188,-1.979783,-1.091542,0.886762,0.093577,-0.184992,-0.053315,0.0,8.0,93.0,190.0,32.0,1.0
259189,-2.018039,-1.074681,0.845886,0.062437,-0.111799,0.054156,0.0,8.0,93.0,190.0,32.0,1.0
259190,-2.054596,-1.057662,0.825932,0.13251300000000002,0.034246,0.047669,0.0,8.0,93.0,190.0,32.0,1.0
259191,-2.091324,-1.041399,0.8179890000000001,0.214685,0.147478,-0.001011,0.0,8.0,93.0,190.0,32.0,1.0
259192,-2.13605,-1.0283129999999998,0.8099569999999999,0.473199,0.261933,-0.172416,0.0,8.0,93.0,190.0,32.0,1.0
259193,-2.187808,-1.018653,0.798901,0.552258,0.30819,-0.372483,0.0,8.0,93.0,190.0,32.0,1.0
259194,-2.223564,-1.015323,0.7921229999999999,0.321339,0.403187,-0.573337,0.0,8.0,93.0,190.0,32.0,1.0
259195,-2.234097,-1.0208700000000002,0.7885310000000001,-0.150531,0.392402,-0.5186569999999999,0.0,8.0,93.0,190.0,32.0,1.0
259196,-2.219534,-1.026776,0.806283,-0.290732,0.278414,-0.565944,0.0,8.0,93.0,190.0,32.0,1.0
259197,-2.193519,-1.033423,0.8600620000000001,0.13283,0.46118,-0.30732600000000004,0.0,8.0,93.0,190.0,32.0,1.0
259198,-2.1567380000000003,-1.0470780000000002,0.946813,0.392915,0.685365,-0.004148,0.0,8.0,93.0,190.0,32.0,1.0
259199,-2.10291,-1.073746,1.052958,0.62664,0.8597309999999999,-0.305799,0.0,8.0,93.0,190.0,32.0,1.0
259200,-2.012059,-1.113959,1.182928,0.543743,0.718576,-0.247597,0.0,8.0,93.0,190.0,32.0,1.0
259201,-1.870177,-1.15664,1.359985,0.423198,0.57696,-0.072822,0.0,8.0,93.0,190.0,32.0,1.0
259202,-1.659675,-1.186792,1.5841120000000002,-0.04312,0.030927,-0.078264,0.0,8.0,93.0,190.0,32.0,1.0
259203,-1.422093,-1.2011040000000002,1.820644,-0.874761,0.236842,0.18924,0.0,8.0,93.0,190.0,32.0,1.0
259204,-1.240364,-1.192511,2.018883,-1.117309,0.30643400000000004,0.5680470000000001,0.0,8.0,93.0,190.0,32.0,1.0
259205,-1.105119,-1.165778,2.16806,-0.6062420000000001,-0.035367,0.659405,0.0,8.0,93.0,190.0,32.0,1.0
259206,-0.999845,-1.134157,2.284446,0.388226,0.215648,0.200383,0.0,8.0,93.0,190.0,32.0,1.0
259207,-0.904302,-1.114694,2.376636,0.547547,0.350286,0.224744,0.0,8.0,93.0,190.0,32.0,1.0
259208,-0.8022,-1.118313,2.460675,0.401305,0.408207,0.128923,0.0,8.0,93.0,190.0,32.0,1.0
259209,-0.696735,-1.126136,2.553001,-0.016305,0.147628,0.173819,0.0,8.0,93.0,190.0,32.0,1.0
259210,-0.597262,-1.127898,2.644966,-0.13836099999999998,-0.17248,0.250729,0.0,8.0,93.0,190.0,32.0,1.0
259211,-0.522504,-1.121707,2.731727,-0.117332,-0.28882800000000003,0.489957,0.0,8.0,93.0,190.0,32.0,1.0
259212,-0.473653,-1.111925,2.809781,-0.042718,-0.343162,0.560662,0.0,8.0,93.0,190.0,32.0,1.0
259213,-0.447663,-1.102129,2.875802,-0.021541,-0.468923,0.5342939999999999,0.0,8.0,93.0,190.0,32.0,1.0
259214,-0.442055,-1.096966,2.921106,-0.08532100000000001,-0.71255,0.447425,0.0,8.0,93.0,190.0,32.0,1.0
259215,-0.450308,-1.1031959999999998,2.94238,-0.104025,-0.883726,0.352208,0.0,8.0,93.0,190.0,32.0,1.0
259216,-0.474025,-1.122305,2.936668,-0.043672,-0.906077,0.271645,0.0,8.0,93.0,190.0,32.0,1.0
259217,-0.522016,-1.151466,2.897186,0.06299199999999999,-0.8687299999999999,0.23648200000000005,0.0,8.0,93.0,190.0,32.0,1.0
259218,-0.60672,-1.183993,2.817261,0.060213,-0.8634209999999999,0.22654,0.0,8.0,93.0,190.0,32.0,1.0
259219,-0.732977,-1.208792,2.695916,0.045441,-0.838082,0.173519,0.0,8.0,93.0,190.0,32.0,1.0
259220,-0.887718,-1.219243,2.547295,0.076521,-0.631252,0.113529,0.0,8.0,93.0,190.0,32.0,1.0
259221,-1.04732,-1.2135479999999998,2.413069,-0.069731,0.26920700000000003,-0.145256,0.0,8.0,93.0,190.0,32.0,1.0
259222,-1.2022959999999998,-1.202525,2.323503,-0.01876,0.5657369999999999,-0.259674,0.0,8.0,93.0,190.0,32.0,1.0
259223,-1.341416,-1.1989379999999998,2.263988,0.115901,0.78525,-0.408556,0.0,8.0,93.0,190.0,32.0,1.0
259224,-1.435563,-1.203222,2.222884,0.470146,-0.025121,-0.31056500000000004,0.0,8.0,93.0,190.0,32.0,1.0
259225,-1.494441,-1.220214,2.174092,0.24387,-0.185389,-0.091663,0.0,8.0,93.0,190.0,32.0,1.0
259226,-1.542148,-1.239873,2.112202,-0.908698,0.674161,0.54907,0.0,8.0,93.0,190.0,32.0,1.0
259227,-1.542526,-1.2463,2.101336,-1.011671,0.461917,0.450143,0.0,8.0,93.0,190.0,32.0,1.0
259228,-1.583798,-1.251057,2.090278,-0.310608,-0.045524,0.236469,0.0,8.0,93.0,190.0,32.0,1.0
259229,-1.620861,-1.25258,2.06998,0.24162600000000006,0.442783,0.313293,0.0,8.0,93.0,190.0,32.0,1.0
259230,-1.64165,-1.255606,2.005239,-0.005655,0.8335790000000001,0.348143,0.0,8.0,93.0,190.0,32.0,1.0
259231,-1.7009490000000005,-1.250184,1.933558,-0.532391,1.65516,-0.124057,0.0,8.0,93.0,190.0,32.0,1.0
259232,-1.660014,-1.2496200000000002,1.954171,0.632564,0.382983,-0.017305,0.0,8.0,93.0,190.0,32.0,1.0
259233,-1.5259120000000002,-1.263549,2.047614,-0.148653,-0.59207,0.6837949999999999,0.0,8.0,93.0,190.0,32.0,1.0
259234,-1.471596,-1.269679,2.159182,0.423599,-0.701099,0.263668,0.0,8.0,93.0,190.0,32.0,1.0
259235,-1.448849,-1.264386,2.27073,0.30953600000000003,-0.567314,-0.218668,0.0,8.0,93.0,190.0,32.0,1.0
259236,-1.408686,-1.253852,2.349496,0.107667,-0.51849,0.140599,0.0,8.0,93.0,190.0,32.0,1.0
259237,-1.401493,-1.251358,2.354772,0.000929,-0.434626,-0.008265,0.0,8.0,93.0,190.0,32.0,1.0
259238,-1.399972,-1.249008,2.349687,0.04774,-0.211885,-0.277221,0.0,8.0,93.0,190.0,32.0,1.0
259239,-1.387706,-1.246669,2.345444,0.167921,-0.081886,-0.11002,0.0,8.0,93.0,190.0,32.0,1.0
259240,-1.3773959999999998,-1.247678,2.336787,0.099763,0.080498,-0.146499,0.0,8.0,93.0,190.0,32.0,1.0
259241,-1.357245,-1.2516459999999998,2.338303,0.078112,0.052863,-0.237238,0.0,8.0,93.0,190.0,32.0,1.0
259242,-1.319205,-1.254869,2.353748,0.041786,-0.169732,-0.090265,0.0,8.0,93.0,190.0,32.0,1.0
259243,-1.2648700000000002,-1.251189,2.392782,-0.15216500000000002,0.039472,-0.084277,0.0,8.0,93.0,190.0,32.0,1.0
259244,-1.176877,-1.237781,2.477371,-0.051322,0.428764,-0.126867,0.0,8.0,93.0,190.0,32.0,1.0
259245,-1.050225,-1.219095,2.605809,0.241448,0.771066,-0.142254,0.0,8.0,93.0,190.0,32.0,1.0
259246,-0.894568,-1.201791,2.7648080000000004,0.140821,1.214256,-0.218949,0.0,8.0,93.0,190.0,32.0,1.0
259247,-0.738777,-1.173418,2.932058,-0.06817899999999999,0.921443,0.083852,0.0,8.0,93.0,190.0,32.0,1.0
259248,-0.634957,-1.1296469999999998,3.071291,-0.320482,0.165456,0.722392,0.0,8.0,93.0,190.0,32.0,1.0
259249,-0.593633,-1.087518,-3.126226,-0.662927,0.089896,0.729851,0.0,8.0,93.0,190.0,32.0,1.0
259250,-0.570493,-1.069513,-3.084796,-0.765451,-0.32411,0.272799,0.0,8.0,93.0,190.0,32.0,1.0
259251,-0.552584,-1.075974,-3.065963,-0.202839,-0.470187,0.111814,0.0,8.0,93.0,190.0,32.0,1.0
259252,-0.539388,-1.099701,-3.065487,-0.130486,-0.415348,0.250022,0.0,8.0,93.0,190.0,32.0,1.0
259253,-0.5437890000000001,-1.135459,-3.087969,-0.157614,-0.428029,0.364044,0.0,8.0,93.0,190.0,32.0,1.0
259254,-0.575237,-1.175366,-3.136493,-0.01707,-0.5073340000000001,0.345747,0.0,8.0,93.0,190.0,32.0,1.0
259255,-0.6456689999999999,-1.2150450000000002,3.059903,0.029024,-0.575203,0.286662,0.0,8.0,93.0,190.0,32.0,1.0
259256,-0.762146,-1.251736,2.9294580000000003,0.123532,-0.630256,0.167155,0.0,8.0,93.0,190.0,32.0,1.0
259257,-0.930813,-1.2813450000000002,2.755036,0.198336,-0.687817,0.163397,0.0,8.0,93.0,190.0,32.0,1.0
259258,-1.135613,-1.295075,2.548428,0.129462,-0.595087,0.031639999999999995,0.0,8.0,93.0,190.0,32.0,1.0
259259,-1.314546,-1.285135,2.380075,-0.095335,-0.301745,-0.191985,0.0,8.0,93.0,190.0,32.0,1.0
259260,-1.4452969999999998,-1.259831,2.290222,-0.241843,0.233951,-0.5831189999999999,0.0,8.0,93.0,190.0,32.0,1.0
259261,-1.52941,-1.230918,2.273197,0.104309,0.4940640000000001,-0.690203,0.0,8.0,93.0,190.0,32.0,1.0
259262,-1.606909,-1.222571,2.257638,0.412477,0.17176,-0.239019,0.0,8.0,93.0,190.0,32.0,1.0
259263,-1.683285,-1.227116,2.1970490000000003,0.019528,0.241997,-0.138436,0.0,8.0,93.0,190.0,32.0,1.0
259264,-1.737838,-1.23398,2.098505,-0.471897,0.6588189999999999,-0.397288,0.0,8.0,93.0,190.0,32.0,1.0
259265,-1.769918,-1.240174,2.012412,-0.472194,0.148276,0.6856399999999999,0.0,8.0,93.0,190.0,32.0,1.0
259266,-1.718352,-1.251898,2.0091330000000003,-0.43298,-0.194699,0.550713,0.0,8.0,93.0,190.0,32.0,1.0
259267,-1.693483,-1.26174,2.018459,-0.592924,-0.029281,-0.833666,0.0,8.0,93.0,190.0,32.0,1.0
259268,-1.76309,-1.264105,1.974659,-0.053962,1.505586,-0.271374,0.0,8.0,93.0,190.0,32.0,1.0
259269,-1.719758,-1.261223,1.955831,0.947633,1.195623,-0.385204,0.0,8.0,93.0,190.0,32.0,1.0
259270,-1.646157,-1.278732,1.992553,0.28017600000000004,-0.141184,0.252052,0.0,8.0,93.0,190.0,32.0,1.0
259271,-1.586776,-1.293859,2.048438,-0.175792,-0.226317,0.120983,0.0,8.0,93.0,190.0,32.0,1.0
259272,-1.570338,-1.296832,2.090868,0.029648,-0.145201,0.050676,0.0,8.0,93.0,190.0,32.0,1.0
259273,-1.577237,-1.290971,2.109287,0.087772,-0.10919,-0.065225,0.0,8.0,93.0,190.0,32.0,1.0
259274,-1.64431,-1.286089,2.049099,0.14226,-0.086529,0.031726,0.0,8.0,93.0,190.0,32.0,1.0
259275,-1.694225,-1.282402,1.986157,0.2704,0.01812,-0.305168,0.0,8.0,93.0,190.0,32.0,1.0
259276,-1.719243,-1.279686,1.951569,0.227897,-0.002298,-0.466883,0.0,8.0,93.0,190.0,32.0,1.0
259277,-1.73305,-1.2773450000000002,1.938565,0.142887,-0.109778,-0.304244,0.0,8.0,93.0,190.0,32.0,1.0
259278,-1.716236,-1.276131,1.958846,0.170693,-0.26058000000000003,-0.122071,0.0,8.0,93.0,190.0,32.0,1.0
259279,-1.681045,-1.275557,1.99985,0.108943,-0.348868,-0.161191,0.0,8.0,93.0,190.0,32.0,1.0
259280,-1.641161,-1.273854,2.0466,-0.056597,-0.538984,-0.185471,0.0,8.0,93.0,190.0,32.0,1.0
259281,-1.614904,-1.269742,2.078367,-0.036301,-0.535285,-0.120495,0.0,8.0,93.0,190.0,32.0,1.0
259282,-1.591635,-1.262844,2.092292,-0.096666,-0.24034,-0.174238,0.0,8.0,93.0,190.0,32.0,1.0
259283,-1.563309,-1.2555,2.103015,0.035962,0.280512,-0.190351,0.0,8.0,93.0,190.0,32.0,1.0
259284,-1.507463,-1.249781,2.130919,0.032272,0.482695,-0.14743599999999998,0.0,8.0,93.0,190.0,32.0,1.0
259285,-1.411746,-1.24732,2.1933,0.141045,0.6771229999999999,-0.072052,0.0,8.0,93.0,190.0,32.0,1.0
259286,-1.264603,-1.244173,2.322561,-0.100294,0.7453890000000001,-0.31348200000000004,0.0,8.0,93.0,190.0,32.0,1.0
259287,-1.072827,-1.23405,2.508352,-0.241167,0.960737,-0.300062,0.0,8.0,93.0,190.0,32.0,1.0
259288,-0.878915,-1.212448,2.7032990000000003,-0.22042,0.972779,-0.051936,0.0,8.0,93.0,190.0,32.0,1.0
259289,-0.72346,-1.179697,2.870099,-0.134549,0.15394000000000002,0.5011899999999999,0.0,8.0,93.0,190.0,32.0,1.0
259290,-0.638804,-1.13755,2.986141,-0.425725,-0.110504,0.368958,0.0,8.0,93.0,190.0,32.0,1.0
259291,-0.598799,-1.107065,3.053173,-0.28375300000000003,-0.282085,0.139213,0.0,8.0,93.0,190.0,32.0,1.0
259292,-0.576704,-1.097168,3.084467,-0.192877,-0.321346,0.169521,0.0,8.0,93.0,190.0,32.0,1.0
259293,-0.569599,-1.099934,3.089835,-0.14718499999999998,-0.340534,0.285964,0.0,8.0,93.0,190.0,32.0,1.0
259294,-0.578155,-1.113868,3.073505,-0.071268,-0.451047,0.360533,0.0,8.0,93.0,190.0,32.0,1.0
259295,-0.60661,-1.137043,3.036402,0.038459,-0.549408,0.366308,0.0,8.0,93.0,190.0,32.0,1.0
259296,-0.6614439999999999,-1.167972,2.974847,0.108907,-0.665563,0.320315,0.0,8.0,93.0,190.0,32.0,1.0
259297,-0.75415,-1.202333,2.876738,0.11947,-0.731817,0.227043,0.0,8.0,93.0,190.0,32.0,1.0
259298,-0.890774,-1.234078,2.738512,0.131466,-0.7192649999999999,0.190281,0.0,8.0,93.0,190.0,32.0,1.0
259299,-1.06954,-1.2579280000000002,2.5642150000000004,0.138398,-0.607155,0.133849,0.0,8.0,93.0,190.0,32.0,1.0
259300,-1.269003,-1.266865,2.375379,0.051982000000000014,-0.424764,-0.071227,0.0,8.0,93.0,190.0,32.0,1.0
259301,-1.443737,-1.256585,2.227406,-0.048486,0.010736,-0.263941,0.0,8.0,93.0,190.0,32.0,1.0
259302,-1.575881,-1.239746,2.146192,0.033858,0.312767,-0.46085,0.0,8.0,93.0,190.0,32.0,1.0
259303,-1.673914,-1.226596,2.105294,0.205948,0.374008,-0.489443,0.0,8.0,93.0,190.0,32.0,1.0
259304,-1.7571169999999998,-1.2250379999999998,2.064326,0.19736,0.275139,-0.216141,0.0,8.0,93.0,190.0,32.0,1.0
259305,-1.82194,-1.227471,2.005987,-0.098077,0.566325,-0.346493,0.0,8.0,93.0,190.0,32.0,1.0
259306,-1.83926,-1.234696,1.9589,-0.394581,0.235609,0.6693939999999999,0.0,8.0,93.0,190.0,32.0,1.0
259307,-1.794847,-1.242511,1.95362,-0.914481,0.248929,-0.396319,0.0,8.0,93.0,190.0,32.0,1.0
259308,-1.820395,-1.250482,1.957254,0.071855,0.4669100000000001,0.22602,0.0,8.0,93.0,190.0,32.0,1.0
259309,-1.741261,-1.257331,2.015335,0.233812,0.5670850000000001,0.109821,0.0,8.0,93.0,190.0,32.0,1.0
259310,-1.730164,-1.259597,2.00851,0.130683,0.5086649999999999,0.0137,0.0,8.0,93.0,190.0,32.0,1.0
259311,-1.75784,-1.263258,1.982837,-0.13123800000000002,0.983167,-0.102686,0.0,8.0,93.0,190.0,32.0,1.0
259312,-1.737728,-1.265861,1.978148,0.230895,0.540717,0.098421,0.0,8.0,93.0,190.0,32.0,1.0
259313,-1.731907,-1.27378,1.976866,0.149527,0.00718,-0.084539,0.0,8.0,93.0,190.0,32.0,1.0
259314,-1.710048,-1.2812629999999998,1.9993490000000005,0.07281599999999999,-0.253574,-0.15520799999999998,0.0,8.0,93.0,190.0,32.0,1.0
259315,-1.6745880000000002,-1.282707,2.041466,0.064976,-0.347323,-0.024672,0.0,8.0,93.0,190.0,32.0,1.0
259316,-1.64691,-1.279591,2.078394,-0.00124,-0.487272,-0.141976,0.0,8.0,93.0,190.0,32.0,1.0
259317,-1.6407459999999998,-1.273089,2.092544,0.047563,-0.481295,-0.176825,0.0,8.0,93.0,190.0,32.0,1.0
259318,-1.62515,-1.266591,2.09926,0.08856,-0.400283,-0.263158,0.0,8.0,93.0,190.0,32.0,1.0
259319,-1.601654,-1.262339,2.099114,0.098696,-0.308791,-0.482479,0.0,8.0,93.0,190.0,32.0,1.0
259320,-1.585735,-1.2601639999999998,2.089198,0.13739300000000002,-0.306877,-0.147022,0.0,8.0,93.0,190.0,32.0,1.0
259321,-1.5562129999999998,-1.260413,2.08542,0.156186,-0.261833,-0.279162,0.0,8.0,93.0,190.0,32.0,1.0
259322,-1.531917,-1.261781,2.075801,0.151115,-0.128521,-0.273321,0.0,8.0,93.0,190.0,32.0,1.0
259323,-1.46955,-1.260826,2.105957,0.095976,0.121296,-0.02029,0.0,8.0,93.0,190.0,32.0,1.0
259324,-1.364882,-1.258412,2.183938,-0.110481,0.7864949999999999,-0.418813,0.0,8.0,93.0,190.0,32.0,1.0
259325,-1.206343,-1.2527700000000002,2.3281080000000003,-0.163608,1.1937,-0.055776,0.0,8.0,93.0,190.0,32.0,1.0
259326,-1.01089,-1.24068,2.519903,-0.216685,0.983164,-0.003713,0.0,8.0,93.0,190.0,32.0,1.0
259327,-0.8247549999999999,-1.220086,2.706702,-0.289962,0.740192,0.21439,0.0,8.0,93.0,190.0,32.0,1.0
259328,-0.692262,-1.185531,2.857582,-0.462003,-0.071871,0.402394,0.0,8.0,93.0,190.0,32.0,1.0
259329,-0.6319640000000001,-1.142575,2.950998,-0.27765700000000004,-0.350685,0.238102,0.0,8.0,93.0,190.0,32.0,1.0
259330,-0.613481,-1.1112959999999998,2.995493,-0.17313,-0.346729,0.174581,0.0,8.0,93.0,190.0,32.0,1.0
259331,-0.6124430000000001,-1.100676,3.00266,-0.395145,-0.078983,0.248456,0.0,8.0,93.0,190.0,32.0,1.0
259332,-0.621308,-1.106514,2.985041,-0.163229,-0.22080300000000005,0.255764,0.0,8.0,93.0,190.0,32.0,1.0
259333,-0.643727,-1.123679,2.948846,-0.085283,-0.333994,0.242902,0.0,8.0,93.0,190.0,32.0,1.0
259334,-0.683958,-1.147738,2.894934,0.15938,-0.6033350000000001,0.210209,0.0,8.0,93.0,190.0,32.0,1.0
259335,-0.751306,-1.176216,2.817189,0.299682,-0.727342,0.183019,0.0,8.0,93.0,190.0,32.0,1.0
259336,-0.854044,-1.206377,2.7130080000000003,0.367524,-0.785481,0.177818,0.0,8.0,93.0,190.0,32.0,1.0
259337,-0.999436,-1.2316120000000002,2.572805,0.390795,-0.800357,0.216991,0.0,8.0,93.0,190.0,32.0,1.0
259338,-1.172382,-1.244593,2.412439,0.262853,-0.581116,0.110622,0.0,8.0,93.0,190.0,32.0,1.0
259339,-1.334785,-1.239846,2.275273,0.173846,-0.381693,0.003997,0.0,8.0,93.0,190.0,32.0,1.0
259340,-1.468303,-1.222738,2.1897900000000003,-0.231151,0.511532,-0.201908,0.0,8.0,93.0,190.0,32.0,1.0
259341,-1.584091,-1.203408,2.139351,-0.283399,0.953404,-0.363493,0.0,8.0,93.0,190.0,32.0,1.0
259342,-1.7045099999999995,-1.199796,2.08346,-0.131579,0.835857,-0.373158,0.0,8.0,93.0,190.0,32.0,1.0
259343,-1.778859,-1.210562,2.016352,0.13785799999999998,0.243751,-0.8153600000000001,0.0,8.0,93.0,190.0,32.0,1.0
259344,-1.7907349999999995,-1.2321030000000002,1.955511,-0.412509,0.067247,0.776717,0.0,8.0,93.0,190.0,32.0,1.0
259345,-1.764849,-1.243233,1.9079580000000005,-0.987026,0.060846,0.383627,0.0,8.0,93.0,190.0,32.0,1.0
259346,-1.753585,-1.246075,1.908946,-0.633556,-0.029084,-1.1792790000000002,0.0,8.0,93.0,190.0,32.0,1.0
259347,-1.7414040000000002,-1.251873,1.966325,0.400341,0.180721,0.365184,0.0,8.0,93.0,190.0,32.0,1.0
259348,-1.6556959999999998,-1.249425,2.030135,0.394285,0.717685,-0.179523,0.0,8.0,93.0,190.0,32.0,1.0
259349,-1.7126290000000002,-1.248355,1.995574,-0.40493,1.460547,-0.106435,0.0,8.0,93.0,190.0,32.0,1.0
259350,-1.717962,-1.249099,1.958292,0.146877,0.340073,0.272231,0.0,8.0,93.0,190.0,32.0,1.0
259351,-1.711254,-1.254999,1.961567,-0.020568,-0.081653,-0.05414,0.0,8.0,93.0,190.0,32.0,1.0
259352,-1.703858,-1.2598280000000002,1.982587,0.1859,-0.34489000000000003,-0.017289,0.0,8.0,93.0,190.0,32.0,1.0
259353,-1.698238,-1.258985,2.0045610000000003,0.244552,-0.334256,0.030777,0.0,8.0,93.0,190.0,32.0,1.0
259354,-1.730739,-1.254682,1.995919,0.11214,-0.316677,-0.049963,0.0,8.0,93.0,190.0,32.0,1.0
259355,-1.757829,-1.248113,1.981297,0.001779,-0.032525,-0.368514,0.0,8.0,93.0,190.0,32.0,1.0
259356,-1.769773,-1.240877,1.964748,0.033484,0.040244,-0.27936300000000003,0.0,8.0,93.0,190.0,32.0,1.0
259357,-1.7677310000000002,-1.238379,1.948795,0.117855,-0.232137,-0.1084,0.0,8.0,93.0,190.0,32.0,1.0
259358,-1.745169,-1.239787,1.954687,0.001464,-0.385183,-0.422849,0.0,8.0,93.0,190.0,32.0,1.0
259359,-1.7130720000000002,-1.239937,1.983967,-0.003853,-0.50715,-0.06738999999999999,0.0,8.0,93.0,190.0,32.0,1.0
259360,-1.671156,-1.2372379999999998,2.018484,0.023223,-0.476026,-0.208444,0.0,8.0,93.0,190.0,32.0,1.0
259361,-1.62929,-1.23138,2.044702,0.019898,-0.24428,-0.31179,0.0,8.0,93.0,190.0,32.0,1.0
259362,-1.591778,-1.224995,2.057558,-0.050772000000000005,0.339713,-0.079605,0.0,8.0,93.0,190.0,32.0,1.0
259363,-1.540901,-1.223846,2.069016,-0.0063560000000000005,0.6354529999999999,-0.130828,0.0,8.0,93.0,190.0,32.0,1.0
259364,-1.433286,-1.226769,2.1391720000000003,0.132043,0.735705,-0.147542,0.0,8.0,93.0,190.0,32.0,1.0
259365,-1.260594,-1.224823,2.306027,-0.060491,0.8417709999999999,-0.264734,0.0,8.0,93.0,190.0,32.0,1.0
259366,-1.062589,-1.212533,2.503882,-0.148705,0.965425,-0.102789,0.0,8.0,93.0,190.0,32.0,1.0
259367,-0.874613,-1.18825,2.694159,-0.099675,0.4700180000000001,0.234183,0.0,8.0,93.0,190.0,32.0,1.0
259368,-0.742791,-1.151292,2.843413,-0.097013,0.216714,0.3797,0.0,8.0,93.0,190.0,32.0,1.0
259369,-0.669573,-1.111908,2.943557,-0.505166,0.032104,0.401683,0.0,8.0,93.0,190.0,32.0,1.0
259370,-0.632119,-1.086964,2.997456,-0.312193,-0.317943,0.01586,0.0,8.0,93.0,190.0,32.0,1.0
259371,-0.615007,-1.081892,3.018956,-0.207806,-0.326253,0.044145,0.0,8.0,93.0,190.0,32.0,1.0
259372,-0.613011,-1.088571,3.014997,-0.140194,-0.287271,0.179975,0.0,8.0,93.0,190.0,32.0,1.0
259373,-0.6285569999999999,-1.1069,2.987641,-0.11793800000000003,-0.4123520000000001,0.3632510000000001,0.0,8.0,93.0,190.0,32.0,1.0
259374,-0.665832,-1.132819,2.9389220000000003,-0.089015,-0.467577,0.376186,0.0,8.0,93.0,190.0,32.0,1.0
259375,-0.726813,-1.1610790000000002,2.869726,0.056786,-0.653241,0.383288,0.0,8.0,93.0,190.0,32.0,1.0
259376,-0.812137,-1.189159,2.776037,0.102164,-0.779756,0.28835500000000003,0.0,8.0,93.0,190.0,32.0,1.0
259377,-0.931425,-1.214392,2.649793,0.129942,-0.865289,0.195952,0.0,8.0,93.0,190.0,32.0,1.0
259378,-1.084976,-1.231164,2.494343,0.13334400000000002,-0.732367,0.142663,0.0,8.0,93.0,190.0,32.0,1.0
259379,-1.261121,-1.235334,2.322166,0.075343,-0.395384,-0.042506,0.0,8.0,93.0,190.0,32.0,1.0
259380,-1.423753,-1.223024,2.176352,0.06448200000000001,-0.122004,-0.22119,0.0,8.0,93.0,190.0,32.0,1.0
259381,-1.549649,-1.2035209999999998,2.093162,0.165801,0.492594,-0.619834,0.0,8.0,93.0,190.0,32.0,1.0
259382,-1.634329,-1.185358,2.061045,0.340249,0.320452,-0.146655,0.0,8.0,93.0,190.0,32.0,1.0
259383,-1.707614,-1.180356,2.02497,0.204554,0.365053,-0.048015,0.0,8.0,93.0,190.0,32.0,1.0
259384,-1.78285,-1.1866709999999998,1.963146,0.070883,0.376401,0.012504,0.0,8.0,93.0,190.0,32.0,1.0
259385,-1.817553,-1.195158,1.91588,-0.4752560000000001,0.186059,0.619046,0.0,8.0,93.0,190.0,32.0,1.0
259386,-1.795233,-1.197052,1.905464,-1.087642,0.179827,-0.687725,0.0,8.0,93.0,190.0,32.0,1.0
259387,-1.842608,-1.196881,1.885218,-1.126099,0.085636,-1.373645,0.0,8.0,93.0,190.0,32.0,1.0
259388,-1.840968,-1.195298,1.898595,0.183968,0.617359,0.513898,0.0,8.0,93.0,190.0,32.0,1.0
259389,-1.795565,-1.191317,1.899481,-0.244197,1.6975619999999998,-0.364707,0.0,8.0,93.0,190.0,32.0,1.0
259390,-1.824197,-1.189545,1.875911,0.213472,1.455132,-1.393199,0.0,8.0,93.0,190.0,32.0,1.0
259391,-1.7596619999999998,-1.203227,1.885735,-0.080545,-0.133139,0.581176,0.0,8.0,93.0,190.0,32.0,1.0
259392,-1.726937,-1.215335,1.909548,-0.008462,-0.279619,0.309655,0.0,8.0,93.0,190.0,32.0,1.0
259393,-1.7133509999999998,-1.221634,1.957213,0.066649,-0.308327,0.075653,0.0,8.0,93.0,190.0,32.0,1.0
259394,-1.714853,-1.2210530000000002,1.978847,0.202905,-0.240684,0.029564,0.0,8.0,93.0,190.0,32.0,1.0
259395,-1.7461950000000002,-1.217626,1.951801,0.129537,-0.364062,0.14561400000000002,0.0,8.0,93.0,190.0,32.0,1.0
259396,-1.782805,-1.213443,1.913999,0.100356,-0.396527,0.074763,0.0,8.0,93.0,190.0,32.0,1.0
259397,-1.812359,-1.20767,1.882703,0.079824,-0.159461,-0.488146,0.0,8.0,93.0,190.0,32.0,1.0
259398,-1.83607,-1.201234,1.856894,0.029115,0.08509299999999999,-0.569132,0.0,8.0,93.0,190.0,32.0,1.0
259399,-1.831568,-1.197101,1.848798,0.136759,-0.042328,-0.326627,0.0,8.0,93.0,190.0,32.0,1.0
259400,-1.7981029999999998,-1.196694,1.864934,0.220708,-0.285374,-0.073923,0.0,8.0,93.0,190.0,32.0,1.0
259401,-1.7547099999999998,-1.197841,1.901093,0.189355,-0.441448,-0.354761,0.0,8.0,93.0,190.0,32.0,1.0
259402,-1.7042540000000002,-1.195963,1.950185,0.03196,-0.488308,-0.189444,0.0,8.0,93.0,190.0,32.0,1.0
259403,-1.673057,-1.192284,1.980429,0.054957000000000006,-0.271516,-0.062179999999999985,0.0,8.0,93.0,190.0,32.0,1.0
259404,-1.636228,-1.1890690000000002,2.009486,0.08152100000000001,0.235338,-0.208056,0.0,8.0,93.0,190.0,32.0,1.0
259405,-1.571777,-1.188954,2.0517950000000003,0.112959,0.806762,-0.046844,0.0,8.0,93.0,190.0,32.0,1.0
259406,-1.465418,-1.194202,2.137959,0.169185,0.934549,-0.151095,0.0,8.0,93.0,190.0,32.0,1.0
259407,-1.317166,-1.201566,2.272512,-0.255624,0.81715,-0.318828,0.0,8.0,93.0,190.0,32.0,1.0
259408,-1.134087,-1.201826,2.4472240000000003,-0.501081,1.023279,-0.302088,0.0,8.0,93.0,190.0,32.0,1.0
259409,-0.940628,-1.183716,2.643232,-0.321837,0.671687,0.094548,0.0,8.0,93.0,190.0,32.0,1.0
259410,-0.789412,-1.149646,2.810385,-0.175007,0.160684,0.563059,0.0,8.0,93.0,190.0,32.0,1.0
259411,-0.703638,-1.108019,2.9214990000000003,-0.360598,-0.008173999999999999,0.478103,0.0,8.0,93.0,190.0,32.0,1.0
259412,-0.656566,-1.081091,2.98274,-0.413443,-0.174296,0.196202,0.0,8.0,93.0,190.0,32.0,1.0
259413,-0.6211270000000001,-1.072855,3.018142,-0.173336,-0.28057600000000005,0.17419600000000002,0.0,8.0,93.0,190.0,32.0,1.0
259414,-0.595163,-1.07253,3.036454,-0.140842,-0.306284,0.233306,0.0,8.0,93.0,190.0,32.0,1.0
259415,-0.584376,-1.079585,3.038828,-0.075538,-0.449664,0.370566,0.0,8.0,93.0,190.0,32.0,1.0
259416,-0.59451,-1.093307,3.02337,0.045748,-0.607466,0.457153,0.0,8.0,93.0,190.0,32.0,1.0
259417,-0.627355,-1.112784,2.988029,0.059899,-0.656744,0.420794,0.0,8.0,93.0,190.0,32.0,1.0
259418,-0.687126,-1.136978,2.927331,0.052796,-0.7054630000000001,0.350604,0.0,8.0,93.0,190.0,32.0,1.0
259419,-0.777593,-1.162759,2.837222,0.047005,-0.652337,0.221413,0.0,8.0,93.0,190.0,32.0,1.0
259420,-0.9003559999999999,-1.184674,2.717709,0.053428,-0.6140140000000001,0.143555,0.0,8.0,93.0,190.0,32.0,1.0
259421,-1.0549879999999998,-1.198382,2.571037,0.068746,-0.048288,0.001039,0.0,8.0,93.0,190.0,32.0,1.0
259422,-1.228984,-1.199685,2.412215,0.08279700000000001,0.125067,-0.047441,0.0,8.0,93.0,190.0,32.0,1.0
259423,-1.391467,-1.193944,2.279935,0.105506,0.22688000000000005,-0.155542,0.0,8.0,93.0,190.0,32.0,1.0
259424,-1.519709,-1.184742,2.190002,-0.064,0.22502600000000006,-0.487747,0.0,8.0,93.0,190.0,32.0,1.0
259425,-1.602688,-1.175473,2.142712,-0.092732,0.51359,-0.489864,0.0,8.0,93.0,190.0,32.0,1.0
259426,-1.665313,-1.175512,2.105378,-0.094765,0.6227060000000001,-0.458153,0.0,8.0,93.0,190.0,32.0,1.0
259427,-1.718735,-1.181136,2.061059,0.000833,0.363673,0.078472,0.0,8.0,93.0,190.0,32.0,1.0
259428,-1.744827,-1.190063,2.01163,-0.033868,0.13365,0.5074390000000001,0.0,8.0,93.0,190.0,32.0,1.0
259429,-1.731488,-1.198719,1.977501,-0.457173,-0.017054,0.370547,0.0,8.0,93.0,190.0,32.0,1.0
259430,-1.762341,-1.206524,1.972273,-0.395594,0.419041,-0.298913,0.0,8.0,93.0,190.0,32.0,1.0
259431,-1.721327,-1.204338,1.999674,0.225047,0.548194,0.34286300000000003,0.0,8.0,93.0,190.0,32.0,1.0
259432,-1.7107330000000005,-1.201415,1.984955,0.364559,0.384466,0.559113,0.0,8.0,93.0,190.0,32.0,1.0
259433,-1.7490560000000002,-1.203054,1.962537,-0.189689,0.6262310000000001,-0.326651,0.0,8.0,93.0,190.0,32.0,1.0
259434,-1.780301,-1.201904,1.928738,-0.190805,0.626645,-0.337895,0.0,8.0,93.0,190.0,32.0,1.0
259435,-1.778748,-1.199681,1.920273,-0.029923,0.5338970000000001,-0.162207,0.0,8.0,93.0,190.0,32.0,1.0
259436,-1.757108,-1.203223,1.935502,0.237212,-0.182317,0.032394,0.0,8.0,93.0,190.0,32.0,1.0
259437,-1.721121,-1.209103,1.966422,0.213988,-0.4154020000000001,-0.118007,0.0,8.0,93.0,190.0,32.0,1.0
259438,-1.701394,-1.211666,1.991204,0.18825,-0.547821,-0.171772,0.0,8.0,93.0,190.0,32.0,1.0
259439,-1.68152,-1.209229,2.013338,0.175137,-0.5542699999999999,-0.111807,0.0,8.0,93.0,190.0,32.0,1.0
259440,-1.6670490000000002,-1.20353,2.025002,0.110089,-0.399468,-0.17143699999999998,0.0,8.0,93.0,190.0,32.0,1.0
259441,-1.652752,-1.197887,2.026007,0.101081,-0.218015,-0.25251,0.0,8.0,93.0,190.0,32.0,1.0
259442,-1.63734,-1.192796,2.022267,0.059608,-0.135078,-0.4389520000000001,0.0,8.0,93.0,190.0,32.0,1.0
259443,-1.614822,-1.189119,2.021139,0.181871,-0.222246,-0.140049,0.0,8.0,93.0,190.0,32.0,1.0
259444,-1.597144,-1.187497,2.009081,0.222517,-0.112556,-0.199106,0.0,8.0,93.0,190.0,32.0,1.0
259445,-1.563311,-1.186021,2.019349,0.175254,-0.043063,-0.025862,0.0,8.0,93.0,190.0,32.0,1.0
259446,-1.492153,-1.183506,2.068212,0.002036,0.655211,-0.348077,0.0,8.0,93.0,190.0,32.0,1.0
259447,-1.390314,-1.184975,2.151937,-0.013424,0.941568,-0.378667,0.0,8.0,93.0,190.0,32.0,1.0
259448,-1.236687,-1.185464,2.302378,0.006503,1.005059,-0.111675,0.0,8.0,93.0,190.0,32.0,1.0
259449,-1.050434,-1.175092,2.489585,-0.34771,0.958378,-0.142852,0.0,8.0,93.0,190.0,32.0,1.0
259450,-0.879998,-1.15151,2.66077,-0.405281,0.554455,0.043466000000000005,0.0,8.0,93.0,190.0,32.0,1.0
259451,-0.7688649999999999,-1.110393,2.795064,-0.256855,0.112336,0.419197,0.0,8.0,93.0,190.0,32.0,1.0
259452,-0.725792,-1.056247,2.884773,-0.389989,-0.144456,0.558636,0.0,8.0,93.0,190.0,32.0,1.0
259453,-0.7169260000000001,-1.020309,2.925542,-0.422879,-0.246328,0.303576,0.0,8.0,93.0,190.0,32.0,1.0
259454,-0.710013,-1.012019,2.934774,-0.281371,-0.113224,0.03103,0.0,8.0,93.0,190.0,32.0,1.0
259455,-0.711598,-1.016793,2.9264,-0.035472000000000004,-0.199318,0.182684,0.0,8.0,93.0,190.0,32.0,1.0
259456,-0.727155,-1.0321049999999998,2.904012,-0.007633,-0.30676,0.234595,0.0,8.0,93.0,190.0,32.0,1.0
259457,-0.755846,-1.055657,2.865559,0.100799,-0.52237,0.322405,0.0,8.0,93.0,190.0,32.0,1.0
259458,-0.80419,-1.084524,2.808168,0.290163,-0.693407,0.357639,0.0,8.0,93.0,190.0,32.0,1.0
259459,-0.8802770000000001,-1.112549,2.728736,0.32045300000000004,-0.759454,0.33970900000000004,0.0,8.0,93.0,190.0,32.0,1.0
259460,-0.987431,-1.137623,2.625723,0.303289,-0.7517699999999999,0.295551,0.0,8.0,93.0,190.0,32.0,1.0
259461,-1.126594,-1.1566809999999998,2.498204,0.25198400000000004,-0.609808,0.274106,0.0,8.0,93.0,190.0,32.0,1.0
259462,-1.286583,-1.162374,2.358793,0.160443,-0.427743,0.13971,0.0,8.0,93.0,190.0,32.0,1.0
259463,-1.4433790000000002,-1.153286,2.238886,-0.035477,0.033927,0.001657,0.0,8.0,93.0,190.0,32.0,1.0
259464,-1.58512,-1.138157,2.153583,-0.219806,0.504934,-0.443307,0.0,8.0,93.0,190.0,32.0,1.0
259465,-1.697153,-1.123522,2.11017,-0.054209,0.74693,-0.940412,0.0,8.0,93.0,190.0,32.0,1.0
259466,-1.782082,-1.121227,2.076043,0.35088400000000003,-0.078766,-0.350395,0.0,8.0,93.0,190.0,32.0,1.0
259467,-1.832531,-1.126398,2.013517,0.067088,-0.09101,-0.267288,0.0,8.0,93.0,190.0,32.0,1.0
259468,-1.846516,-1.134459,1.955945,-0.654095,0.122015,-0.368603,0.0,8.0,93.0,190.0,32.0,1.0
259469,-1.831034,-1.139304,1.941537,-0.665262,-0.08784700000000001,0.279371,0.0,8.0,93.0,190.0,32.0,1.0
259470,-1.816836,-1.142442,1.935884,-0.655449,-0.133665,-0.486586,0.0,8.0,93.0,190.0,32.0,1.0
259471,-1.86176,-1.141723,1.926795,-0.276609,-0.08139500000000001,-0.587191,0.0,8.0,93.0,190.0,32.0,1.0
259472,-1.8363,-1.137713,1.93667,0.648518,1.118188,0.6027170000000001,0.0,8.0,93.0,190.0,32.0,1.0
259473,-1.790058,-1.141866,1.937258,0.401094,0.6855439999999999,-0.166674,0.0,8.0,93.0,190.0,32.0,1.0
259474,-1.823194,-1.14737,1.923852,0.26168800000000003,0.629451,-0.490389,0.0,8.0,93.0,190.0,32.0,1.0
259475,-1.812879,-1.153166,1.917977,0.04711,0.299586,0.383183,0.0,8.0,93.0,190.0,32.0,1.0
259476,-1.820038,-1.155924,1.917751,0.001691,-0.002708,0.074043,0.0,8.0,93.0,190.0,32.0,1.0
259477,-1.844704,-1.156256,1.922054,0.003023,-0.056033000000000006,-0.016227000000000002,0.0,8.0,93.0,190.0,32.0,1.0
259478,-1.860997,-1.153591,1.922791,0.002313,-0.134394,-0.171619,0.0,8.0,93.0,190.0,32.0,1.0
259479,-1.886651,-1.148042,1.911766,0.009413,-0.22753,-0.059121000000000014,0.0,8.0,93.0,190.0,32.0,1.0
259480,-1.916203,-1.137399,1.891956,0.077149,-0.254346,-0.076734,0.0,8.0,93.0,190.0,32.0,1.0
259481,-1.945542,-1.123022,1.872742,0.11735,-0.23436,-0.102225,0.0,8.0,93.0,190.0,32.0,1.0
259482,-1.966776,-1.107822,1.860538,0.148981,-0.26895,-0.192578,0.0,8.0,93.0,190.0,32.0,1.0
259483,-1.991575,-1.089499,1.84652,0.242716,-0.218319,-0.224071,0.0,8.0,93.0,190.0,32.0,1.0
259484,-2.012874,-1.068701,1.833944,0.288169,-0.1041,-0.194163,0.0,8.0,93.0,190.0,32.0,1.0
259485,-2.021157,-1.04732,1.830174,0.34217800000000004,-0.03906,-0.26991,0.0,8.0,93.0,190.0,32.0,1.0
259486,-2.013474,-1.027312,1.839934,0.380827,0.009216,-0.335014,0.0,8.0,93.0,190.0,32.0,1.0
259487,-1.995288,-1.011406,1.861279,0.358612,0.182084,-0.370605,0.0,8.0,93.0,190.0,32.0,1.0
259488,-1.972478,-1.000814,1.894751,0.5140859999999999,0.420754,-0.307155,0.0,8.0,93.0,190.0,32.0,1.0
259489,-1.946686,-1.000135,1.9457,0.5997279999999999,0.563821,-0.21389,0.0,8.0,93.0,190.0,32.0,1.0
259490,-1.896699,-1.011549,2.018085,0.15871400000000002,0.934679,-0.376445,0.0,8.0,93.0,190.0,32.0,1.0
259491,-1.828325,-1.033871,2.106717,-0.061742,0.780134,-0.486699,0.0,8.0,93.0,190.0,32.0,1.0
259492,-1.722718,-1.061657,2.231786,-0.049138,0.738378,-0.353273,0.0,8.0,93.0,190.0,32.0,1.0
259493,-1.593714,-1.0875709999999998,2.382206,0.055879999999999985,0.638135,0.306217,0.0,8.0,93.0,190.0,32.0,1.0
259494,-1.449782,-1.107333,2.556632,-0.235745,0.6640229999999999,0.663752,0.0,8.0,93.0,190.0,32.0,1.0
259495,-1.316528,-1.117503,2.72326,-0.517622,0.837929,0.681593,0.0,8.0,93.0,190.0,32.0,1.0
259496,-1.205682,-1.1186049999999998,2.856608,-0.08013200000000001,0.446516,0.422027,0.0,8.0,93.0,190.0,32.0,1.0
259497,-1.099791,-1.123101,2.963642,0.215571,0.518948,0.347827,0.0,8.0,93.0,190.0,32.0,1.0
259498,-0.989137,-1.139356,3.061846,0.362656,0.565604,0.430198,0.0,8.0,93.0,190.0,32.0,1.0
259499,-0.896156,-1.169449,-3.11999,0.24300700000000006,0.375134,0.276991,0.0,8.0,93.0,190.0,32.0,1.0
259500,-0.813762,-1.188774,-3.000789,-0.244325,-0.160304,0.376069,0.0,8.0,93.0,190.0,32.0,1.0
259501,-0.750745,-1.193711,-2.859142,-0.156951,-0.323495,0.543172,0.0,8.0,93.0,190.0,32.0,1.0
259502,-0.718254,-1.188122,-2.732516,-0.103957,-0.595882,0.655852,0.0,8.0,93.0,190.0,32.0,1.0
259503,-0.718013,-1.1794209999999998,-2.639436,-0.132125,-0.746529,0.577233,0.0,8.0,93.0,190.0,32.0,1.0
259504,-0.747988,-1.171902,-2.577248,-0.156063,-0.775525,0.569192,0.0,8.0,93.0,190.0,32.0,1.0
259505,-0.802848,-1.16964,-2.5474900000000003,-0.241172,-0.809968,0.435731,0.0,8.0,93.0,190.0,32.0,1.0
259506,-0.8835569999999999,-1.176464,-2.560978,-0.223847,-0.73824,0.310097,0.0,8.0,93.0,190.0,32.0,1.0
259507,-1.001298,-1.189875,-2.627483,-0.27760100000000004,-0.56321,0.364486,0.0,8.0,93.0,190.0,32.0,1.0
259508,-1.154074,-1.199943,-2.743941,-0.455581,-0.224499,0.181274,0.0,8.0,93.0,190.0,32.0,1.0
259509,-1.282568,-1.195606,-2.852391,-0.542076,0.298413,-0.341765,0.0,8.0,93.0,190.0,32.0,1.0
259510,-1.33008,-1.183552,-2.886438,-0.290285,0.907161,-1.428135,0.0,8.0,93.0,190.0,32.0,1.0
259511,-1.261775,-1.165653,-2.794497,0.601642,0.814642,-1.482124,0.0,8.0,93.0,190.0,32.0,1.0
259512,-1.196003,-1.156958,-2.712794,0.408237,0.233662,0.426988,0.0,8.0,93.0,190.0,32.0,1.0
259513,-1.168864,-1.1705020000000002,-2.689612,0.078037,0.313871,1.072833,0.0,8.0,93.0,190.0,32.0,1.0
259514,-1.19539,-1.201518,-2.716,-0.382919,0.552107,1.274238,0.0,8.0,93.0,190.0,32.0,1.0
259515,-1.213054,-1.220891,-2.745735,-0.34510100000000005,0.338091,-0.201473,0.0,8.0,93.0,190.0,32.0,1.0
259516,-1.085506,-1.211145,-2.656212,-0.443866,0.378678,-0.636041,0.0,8.0,93.0,190.0,32.0,1.0
259517,-1.053395,-1.188104,-2.57515,0.388198,-0.529576,1.4623549999999998,0.0,8.0,93.0,190.0,32.0,1.0
259518,-1.095515,-1.171552,-2.556702,0.359764,-0.39363,0.917413,0.0,8.0,93.0,190.0,32.0,1.0
259519,-1.165855,-1.16177,-2.578523,0.185341,-0.134794,0.758698,0.0,8.0,93.0,190.0,32.0,1.0
259520,-1.232049,-1.148983,-2.601494,0.055396,0.62145,0.360211,0.0,8.0,93.0,190.0,32.0,1.0
259521,-1.324082,-1.140233,-2.6152450000000003,0.017761000000000002,0.533728,0.284575,0.0,8.0,93.0,190.0,32.0,1.0
259522,-1.412223,-1.141314,-2.623579,-0.175349,-0.08326900000000001,0.201096,0.0,8.0,93.0,190.0,32.0,1.0
259523,-1.4872459999999998,-1.151065,-2.656141,-0.060667,-0.269796,0.113673,0.0,8.0,93.0,190.0,32.0,1.0
259524,-1.57992,-1.160147,-2.716804,-0.100594,-0.298103,-0.055537,0.0,8.0,93.0,190.0,32.0,1.0
259525,-1.667201,-1.164396,-2.781664,-0.069022,-0.198808,-0.034874,0.0,8.0,93.0,190.0,32.0,1.0
259526,-1.734166,-1.161907,-2.837987,0.03744,-0.224036,-0.027643,0.0,8.0,93.0,190.0,32.0,1.0
259527,-1.780788,-1.154791,-2.887746,-0.011121,-0.214301,-0.078479,0.0,8.0,93.0,190.0,32.0,1.0
259528,-1.820595,-1.142351,-2.9341310000000003,-0.011375,-0.033819,0.023447,0.0,8.0,93.0,190.0,32.0,1.0
259529,-1.861418,-1.127042,-2.968402,0.080537,0.086478,0.084427,0.0,8.0,93.0,190.0,32.0,1.0
259530,-1.903573,-1.1109950000000002,-2.988608,0.117793,0.16025599999999998,-0.015364,0.0,8.0,93.0,190.0,32.0,1.0
259531,-1.945004,-1.094145,-2.99225,0.342513,0.192534,-0.165274,0.0,8.0,93.0,190.0,32.0,1.0
259532,-1.986785,-1.080165,-2.987903,0.494467,0.140074,-0.064552,0.0,8.0,93.0,190.0,32.0,1.0
259533,-2.028935,-1.074345,-2.983225,0.5004390000000001,0.135736,0.018186,0.0,8.0,93.0,190.0,32.0,1.0
259534,-2.051068,-1.073434,-2.9717990000000003,0.065444,0.194459,-0.153252,0.0,8.0,93.0,190.0,32.0,1.0
259535,-2.051457,-1.0775290000000002,-2.952603,-0.4826220000000001,0.349373,-0.438799,0.0,8.0,93.0,190.0,32.0,1.0
259536,-2.039387,-1.0776139999999998,-2.921407,-0.366368,0.341581,-0.622449,0.0,8.0,93.0,190.0,32.0,1.0
259537,-2.008702,-1.072704,-2.860608,0.208434,0.547362,-0.275543,0.0,8.0,93.0,190.0,32.0,1.0
259538,-1.955123,-1.0729540000000002,-2.757925,0.452071,0.837465,-0.008883,0.0,8.0,93.0,190.0,32.0,1.0
259539,-1.870448,-1.084943,-2.6230740000000003,0.6719609999999999,0.891969,-0.1261,0.0,8.0,93.0,190.0,32.0,1.0
259540,-1.736464,-1.105801,-2.453191,0.711542,0.622976,-0.17653,0.0,8.0,93.0,190.0,32.0,1.0
259541,-1.519626,-1.122513,-2.22662,0.06777799999999999,0.565437,-0.067722,0.0,8.0,93.0,190.0,32.0,1.0
259542,-1.316629,-1.118843,-2.003935,-0.424587,-0.173751,1.186464,0.0,8.0,93.0,190.0,32.0,1.0
259543,-1.1920190000000002,-1.107962,-1.835523,-0.488683,-0.208023,1.257168,0.0,8.0,93.0,190.0,32.0,1.0
259544,-1.1014389999999998,-1.091912,-1.7162689999999998,-0.278494,-0.144468,0.431542,0.0,8.0,93.0,190.0,32.0,1.0
259545,-1.015584,-1.073026,-1.62975,0.226915,0.30401300000000003,-0.028308,0.0,8.0,93.0,190.0,32.0,1.0
259546,-0.917903,-1.065785,-1.553103,0.778509,0.607283,0.39391,0.0,8.0,93.0,190.0,32.0,1.0
259547,-0.8383229999999999,-1.067318,-1.459603,0.723817,0.395574,0.556071,0.0,8.0,93.0,190.0,32.0,1.0
259548,-0.765841,-1.06685,-1.356235,0.08176900000000001,0.187381,0.446488,0.0,8.0,93.0,190.0,32.0,1.0
259549,-0.699659,-1.064658,-1.247614,-0.016153999999999998,0.129924,0.4969020000000001,0.0,8.0,93.0,190.0,32.0,1.0
259550,-0.65008,-1.063016,-1.146772,-0.060249,0.073165,0.6199939999999999,0.0,8.0,93.0,190.0,32.0,1.0
259551,-0.6133430000000001,-1.06149,-1.0525520000000002,-0.077101,0.012476,0.62707,0.0,8.0,93.0,190.0,32.0,1.0
259552,-0.586468,-1.05855,-0.960823,-0.110147,-0.079608,0.553565,0.0,8.0,93.0,190.0,32.0,1.0
259553,-0.575202,-1.054712,-0.874977,-0.142258,-0.264427,0.472668,0.0,8.0,93.0,190.0,32.0,1.0
259554,-0.580231,-1.05592,-0.806393,-0.20678,-0.445183,0.374563,0.0,8.0,93.0,190.0,32.0,1.0
259555,-0.600511,-1.066869,-0.7618560000000001,-0.212889,-0.51084,0.323869,0.0,8.0,93.0,190.0,32.0,1.0
259556,-0.631732,-1.084451,-0.7424069999999999,-0.187551,-0.457716,0.35383600000000004,0.0,8.0,93.0,190.0,32.0,1.0
259557,-0.670744,-1.101842,-0.744841,-0.16598800000000002,-0.368421,0.287716,0.0,8.0,93.0,190.0,32.0,1.0
259558,-0.721037,-1.116445,-0.765307,-0.192273,-0.364259,0.227269,0.0,8.0,93.0,190.0,32.0,1.0
259559,-0.790515,-1.128926,-0.806913,-0.232541,-0.346672,0.152426,0.0,8.0,93.0,190.0,32.0,1.0
259560,-0.879581,-1.136786,-0.872509,-0.23595700000000006,0.046479,-0.169781,0.0,8.0,93.0,190.0,32.0,1.0
259561,-0.966819,-1.132015,-0.936942,-0.167032,0.29175100000000004,-0.333368,0.0,8.0,93.0,190.0,32.0,1.0
259562,-1.016168,-1.112091,-0.955792,0.087136,0.763896,-0.6365460000000001,0.0,8.0,93.0,190.0,32.0,1.0
259563,-1.026728,-1.089958,-0.925571,0.353275,0.6453899999999999,-0.397865,0.0,8.0,93.0,190.0,32.0,1.0
259564,-1.019272,-1.077448,-0.8756430000000001,0.287347,0.377549,-0.174636,0.0,8.0,93.0,190.0,32.0,1.0
259565,-1.002191,-1.077893,-0.8331719999999999,-0.06153400000000001,0.059253,0.31664000000000003,0.0,8.0,93.0,190.0,32.0,1.0
259566,-0.990132,-1.089352,-0.8195620000000001,-0.293225,0.089366,0.5835140000000001,0.0,8.0,93.0,190.0,32.0,1.0
