,attitude.roll,attitude.pitch,attitude.yaw,userAcceleration.x,userAcceleration.y,userAcceleration.z,act,id,weight,height,age,gender
0,1.528132,-0.733896,0.696372,0.294894,-0.184493,0.377542,0.0,0.0,102.0,188.0,46.0,1.0
1,1.527992,-0.716987,0.677762,0.219405,0.035846,0.114866,0.0,0.0,102.0,188.0,46.0,1.0
2,1.527765,-0.7069989999999999,0.6709510000000001,0.010714,0.134701,-0.16780799999999998,0.0,0.0,102.0,188.0,46.0,1.0
3,1.516768,-0.704678,0.6757350000000001,-0.008389,0.13678800000000002,0.094958,0.0,0.0,102.0,188.0,46.0,1.0
4,1.493941,-0.703918,0.672994,0.199441,0.353996,-0.044299,0.0,0.0,102.0,188.0,46.0,1.0
5,1.476302,-0.700807,0.669443,0.168241,0.145906,0.012455,0.0,0.0,102.0,188.0,46.0,1.0
6,1.455153,-0.694408,0.662593,0.07938200000000001,-0.026344,-0.19559,0.0,0.0,102.0,188.0,46.0,1.0
7,1.441702,-0.69071,0.656459,0.06936,0.07267799999999999,-0.10292,0.0,0.0,102.0,188.0,46.0,1.0
8,1.44344,-0.691905,0.651196,0.072889,0.079921,-0.075323,0.0,0.0,102.0,188.0,46.0,1.0
9,1.443071,-0.6930390000000001,0.6381979999999999,0.098347,-0.017021,-0.19731,0.0,0.0,102.0,188.0,46.0,1.0
10,1.434186,-0.693527,0.616938,-0.0176,-0.119279,-0.154231,0.0,0.0,102.0,188.0,46.0,1.0
11,1.412539,-0.69193,0.59224,-0.090762,-0.104989,-0.196168,0.0,0.0,102.0,188.0,46.0,1.0
12,1.366432,-0.6868350000000001,0.562806,-0.022256,-0.090728,-0.068734,0.0,0.0,102.0,188.0,46.0,1.0
13,1.298239,-0.6767029999999999,0.533675,-0.0050880000000000005,-0.097982,0.12550999999999998,0.0,0.0,102.0,188.0,46.0,1.0
14,1.2227629999999998,-0.660279,0.51297,0.058954,-0.040995,0.16553199999999998,0.0,0.0,102.0,188.0,46.0,1.0
15,1.137867,-0.639672,0.490227,0.083052,0.114295,0.123086,0.0,0.0,102.0,188.0,46.0,1.0
16,1.059596,-0.6237149999999999,0.476399,-0.021313,0.24472600000000005,0.370255,0.0,0.0,102.0,188.0,46.0,1.0
17,1.002833,-0.624159,0.478032,-0.269154,0.158627,0.45006,0.0,0.0,102.0,188.0,46.0,1.0
18,0.955538,-0.628684,0.480025,-0.437267,0.051949,0.252811,0.0,0.0,102.0,188.0,46.0,1.0
19,0.923844,-0.6406850000000001,0.484397,-0.383933,-0.0341,0.299583,0.0,0.0,102.0,188.0,46.0,1.0
20,0.916433,-0.6556420000000001,0.491873,-0.276871,-0.010044,0.368135,0.0,0.0,102.0,188.0,46.0,1.0
21,0.936385,-0.67165,0.504363,-0.207018,0.034551,0.142982,0.0,0.0,102.0,188.0,46.0,1.0
22,0.983451,-0.696289,0.52989,-0.24805700000000006,-0.071764,0.062476,0.0,0.0,102.0,188.0,46.0,1.0
23,1.04679,-0.725263,0.565948,-0.252744,-0.109881,0.048285,0.0,0.0,102.0,188.0,46.0,1.0
24,1.129694,-0.752479,0.604115,-0.202527,-0.056543,-0.139479,0.0,0.0,102.0,188.0,46.0,1.0
25,1.231014,-0.786512,0.649841,0.012835,0.131904,-0.321589,0.0,0.0,102.0,188.0,46.0,1.0
26,1.347834,-0.829441,0.717322,0.434857,0.520213,-0.468112,0.0,0.0,102.0,188.0,46.0,1.0
27,1.4465290000000002,-0.862922,0.799754,0.481304,0.394734,-0.54813,0.0,0.0,102.0,188.0,46.0,1.0
28,1.459509,-0.8672700000000001,0.852132,0.388906,-0.14135,-0.605554,0.0,0.0,102.0,188.0,46.0,1.0
29,1.42974,-0.853959,0.860604,0.012241,-0.56921,-0.6271760000000001,0.0,0.0,102.0,188.0,46.0,1.0
30,1.423932,-0.828491,0.849856,-0.260615,-0.703785,-0.042603,0.0,0.0,102.0,188.0,46.0,1.0
31,1.467277,-0.8078850000000001,0.8455790000000001,-0.390943,-0.381412,0.387172,0.0,0.0,102.0,188.0,46.0,1.0
32,1.528445,-0.817684,0.866158,-0.365612,0.43694,0.579142,0.0,0.0,102.0,188.0,46.0,1.0
33,1.585233,-0.833967,0.891543,-0.382505,1.362684,0.6573220000000001,0.0,0.0,102.0,188.0,46.0,1.0
34,1.602666,-0.832327,0.902315,-0.5068600000000001,0.825365,0.26305,0.0,0.0,102.0,188.0,46.0,1.0
35,1.579153,-0.828752,0.892049,-0.07064,-0.034559,-0.021043,0.0,0.0,102.0,188.0,46.0,1.0
36,1.556643,-0.8275879999999999,0.874238,0.185963,-0.041828,-0.012533,0.0,0.0,102.0,188.0,46.0,1.0
37,1.560414,-0.827148,0.863917,0.296493,-0.002269,0.073175,0.0,0.0,102.0,188.0,46.0,1.0
38,1.566605,-0.8216899999999999,0.858559,0.571417,0.151186,-0.229492,0.0,0.0,102.0,188.0,46.0,1.0
39,1.5709540000000002,-0.815059,0.852767,0.759838,0.371599,-0.109514,0.0,0.0,102.0,188.0,46.0,1.0
40,1.578406,-0.807213,0.843949,0.821887,0.381245,0.039904,0.0,0.0,102.0,188.0,46.0,1.0
41,1.58311,-0.798288,0.843982,0.041133,-0.190848,0.11868,0.0,0.0,102.0,188.0,46.0,1.0
42,1.586565,-0.790852,0.84331,-0.05856,-0.138427,-0.037807,0.0,0.0,102.0,188.0,46.0,1.0
43,1.599318,-0.790145,0.8518020000000001,-0.100154,-0.07488099999999999,-0.13245,0.0,0.0,102.0,188.0,46.0,1.0
44,1.609645,-0.797164,0.867218,0.060853,0.031845,0.013969,0.0,0.0,102.0,188.0,46.0,1.0
45,1.616584,-0.805405,0.8855700000000001,0.250656,-0.013393,-0.052646000000000005,0.0,0.0,102.0,188.0,46.0,1.0
46,1.622189,-0.8109810000000001,0.907495,0.24921,-0.158709,-0.034773,0.0,0.0,102.0,188.0,46.0,1.0
47,1.617452,-0.8035180000000001,0.920612,0.23245,-0.320358,-0.188397,0.0,0.0,102.0,188.0,46.0,1.0
48,1.61021,-0.803335,0.931939,0.204727,-0.397257,-0.443374,0.0,0.0,102.0,188.0,46.0,1.0
49,1.598267,-0.804383,0.941282,0.126149,-0.356252,-0.323829,0.0,0.0,102.0,188.0,46.0,1.0
50,1.583899,-0.8052819999999999,0.946705,0.040367,-0.299029,-0.045944,0.0,0.0,102.0,188.0,46.0,1.0
51,1.565382,-0.8060109999999999,0.949998,-0.029408,-0.257832,0.071864,0.0,0.0,102.0,188.0,46.0,1.0
52,1.548804,-0.80442,0.956486,-0.072603,-0.215256,0.04322,0.0,0.0,102.0,188.0,46.0,1.0
53,1.522246,-0.801376,0.962008,-0.119017,-0.26966,-0.007145,0.0,0.0,102.0,188.0,46.0,1.0
54,1.47832,-0.794111,0.96057,-0.14143599999999998,-0.268768,-0.034776999999999995,0.0,0.0,102.0,188.0,46.0,1.0
55,1.416839,-0.7815310000000001,0.953731,-0.14454,-0.123404,-0.028614,0.0,0.0,102.0,188.0,46.0,1.0
56,1.330097,-0.764008,0.93423,-0.106694,0.238294,-0.020652,0.0,0.0,102.0,188.0,46.0,1.0
57,1.228068,-0.74538,0.909263,-0.082367,0.500948,0.21835,0.0,0.0,102.0,188.0,46.0,1.0
58,1.137169,-0.731287,0.9001549999999999,-0.011563,0.4972720000000001,0.424079,0.0,0.0,102.0,188.0,46.0,1.0
59,1.061024,-0.724433,0.902038,-0.073216,0.414117,0.32757800000000004,0.0,0.0,102.0,188.0,46.0,1.0
60,0.990882,-0.7171770000000001,0.8906629999999999,-0.058319,0.323407,0.024468,0.0,0.0,102.0,188.0,46.0,1.0
61,0.936505,-0.714653,0.886415,-0.014182,0.165994,0.438147,0.0,0.0,102.0,188.0,46.0,1.0
62,0.914364,-0.708862,0.894209,-0.050393,-0.002777,0.445637,0.0,0.0,102.0,188.0,46.0,1.0
63,0.928834,-0.704344,0.909449,-0.243022,-0.056439,0.136352,0.0,0.0,102.0,188.0,46.0,1.0
64,0.962657,-0.709222,0.935901,-0.365703,-0.003035,0.108896,0.0,0.0,102.0,188.0,46.0,1.0
65,0.994619,-0.722852,0.971487,-0.402469,-0.100567,0.12598199999999998,0.0,0.0,102.0,188.0,46.0,1.0
66,1.0323870000000002,-0.744786,1.015217,-0.331396,-0.194187,0.004981,0.0,0.0,102.0,188.0,46.0,1.0
67,1.093644,-0.775014,1.070784,-0.251208,-0.195225,-0.14163199999999998,0.0,0.0,102.0,188.0,46.0,1.0
68,1.171037,-0.8105859999999999,1.131549,0.052253,-0.072149,-0.296084,0.0,0.0,102.0,188.0,46.0,1.0
69,1.251833,-0.845009,1.1919620000000002,0.442384,0.380701,-0.574979,0.0,0.0,102.0,188.0,46.0,1.0
70,1.302417,-0.855824,1.233109,0.6205729999999999,0.429764,-0.6940149999999999,0.0,0.0,102.0,188.0,46.0,1.0
71,1.279628,-0.845533,1.22882,0.469553,0.453427,-0.970602,0.0,0.0,102.0,188.0,46.0,1.0
72,1.256518,-0.827858,1.228694,0.173756,0.4507560000000001,-1.018579,0.0,0.0,102.0,188.0,46.0,1.0
73,1.256213,-0.809375,1.242856,-0.185969,-0.071787,-0.133851,0.0,0.0,102.0,188.0,46.0,1.0
74,1.255842,-0.80108,1.240967,-0.100023,-0.016585,0.229939,0.0,0.0,102.0,188.0,46.0,1.0
75,1.24478,-0.806294,1.218805,0.046904,0.498137,0.4502,0.0,0.0,102.0,188.0,46.0,1.0
76,1.243234,-0.8107270000000001,1.197761,0.020315,0.667484,0.668475,0.0,0.0,102.0,188.0,46.0,1.0
77,1.266007,-0.801499,1.206465,-0.30712399999999995,0.014053,0.885603,0.0,0.0,102.0,188.0,46.0,1.0
78,1.309301,-0.79185,1.224423,-0.152173,0.045334,0.6937220000000001,0.0,0.0,102.0,188.0,46.0,1.0
79,1.336014,-0.7863680000000001,1.2091889999999998,0.077319,0.29457300000000003,0.677016,0.0,0.0,102.0,188.0,46.0,1.0
80,1.344454,-0.776343,1.180287,0.752105,0.08013300000000001,0.019582,0.0,0.0,102.0,188.0,46.0,1.0
81,1.333899,-0.747851,1.161083,0.734712,0.100743,0.031528,0.0,0.0,102.0,188.0,46.0,1.0
82,1.327151,-0.726038,1.173891,0.449661,-0.397036,-0.50284,0.0,0.0,102.0,188.0,46.0,1.0
83,1.333551,-0.73256,1.214267,0.071687,-0.091657,0.467138,0.0,0.0,102.0,188.0,46.0,1.0
84,1.351241,-0.744215,1.255084,0.127132,0.068196,0.451642,0.0,0.0,102.0,188.0,46.0,1.0
85,1.3706459999999998,-0.759843,1.297211,0.239037,0.24883,0.216092,0.0,0.0,102.0,188.0,46.0,1.0
86,1.393456,-0.777849,1.348957,0.190671,0.12796300000000002,0.097894,0.0,0.0,102.0,188.0,46.0,1.0
87,1.417239,-0.794439,1.404555,0.106769,-0.022736000000000003,0.113582,0.0,0.0,102.0,188.0,46.0,1.0
88,1.44564,-0.8114020000000001,1.459657,-0.021568,-0.056414,0.123724,0.0,0.0,102.0,188.0,46.0,1.0
89,1.483298,-0.8287180000000001,1.521751,-0.104526,-0.057866,0.188254,0.0,0.0,102.0,188.0,46.0,1.0
90,1.533344,-0.843462,1.588264,-0.081102,-0.068788,0.253045,0.0,0.0,102.0,188.0,46.0,1.0
91,1.582809,-0.854924,1.6510189999999998,0.023215,-0.078084,0.113531,0.0,0.0,102.0,188.0,46.0,1.0
92,1.627649,-0.865503,1.710179,0.019233,-0.147972,-0.035111,0.0,0.0,102.0,188.0,46.0,1.0
93,1.6703169999999998,-0.873238,1.763469,-0.105936,-0.18989,-0.030451,0.0,0.0,102.0,188.0,46.0,1.0
94,1.706695,-0.878798,1.809687,-0.14160899999999998,-0.188109,0.041452,0.0,0.0,102.0,188.0,46.0,1.0
95,1.732957,-0.884972,1.845189,-0.018252,-0.15979200000000002,0.046021,0.0,0.0,102.0,188.0,46.0,1.0
96,1.747643,-0.892408,1.866475,0.13707,-0.110906,0.005048,0.0,0.0,102.0,188.0,46.0,1.0
97,1.669818,-0.839965,1.816442,0.132473,-0.161108,-0.172036,0.0,0.0,102.0,188.0,46.0,1.0
98,1.668462,-0.843037,1.82705,0.116139,-0.194268,-0.20236,0.0,0.0,102.0,188.0,46.0,1.0
99,1.657153,-0.842865,1.83408,0.134882,-0.207856,-0.10461,0.0,0.0,102.0,188.0,46.0,1.0
100,1.63249,-0.840201,1.834923,0.24895,-0.171123,-0.083547,0.0,0.0,102.0,188.0,46.0,1.0
101,1.588541,-0.8338899999999999,1.822689,0.312328,-0.046154,-0.094367,0.0,0.0,102.0,188.0,46.0,1.0
102,1.512851,-0.8200850000000001,1.779413,0.35627800000000004,0.199857,-0.042861,0.0,0.0,102.0,188.0,46.0,1.0
103,1.418395,-0.797883,1.714166,0.401895,0.372972,0.256786,0.0,0.0,102.0,188.0,46.0,1.0
104,1.339805,-0.773668,1.669254,0.234266,0.384885,0.474947,0.0,0.0,102.0,188.0,46.0,1.0
105,1.273195,-0.754888,1.646249,0.178699,0.371922,0.65449,0.0,0.0,102.0,188.0,46.0,1.0
106,1.202689,-0.7353109999999999,1.626043,0.321441,0.29483400000000004,0.611981,0.0,0.0,102.0,188.0,46.0,1.0
107,1.138182,-0.711884,1.617675,0.694746,0.178327,0.400386,0.0,0.0,102.0,188.0,46.0,1.0
108,1.105278,-0.6828850000000001,1.631917,0.820175,0.047968,0.387334,0.0,0.0,102.0,188.0,46.0,1.0
109,1.091153,-0.651293,1.656552,0.394783,0.015047,0.332456,0.0,0.0,102.0,188.0,46.0,1.0
110,1.071199,-0.623041,1.688101,0.060482000000000015,0.054448,0.278997,0.0,0.0,102.0,188.0,46.0,1.0
111,1.040809,-0.60146,1.729113,-0.135517,0.124934,0.309112,0.0,0.0,102.0,188.0,46.0,1.0
112,1.006191,-0.588787,1.781141,-0.187213,0.125586,0.432333,0.0,0.0,102.0,188.0,46.0,1.0
113,0.970806,-0.584432,1.837339,-0.228746,0.046892,0.5599850000000001,0.0,0.0,102.0,188.0,46.0,1.0
114,0.937327,-0.586712,1.892124,-0.274127,-0.018927,0.5538489999999999,0.0,0.0,102.0,188.0,46.0,1.0
115,0.906028,-0.594644,1.943572,-0.283139,-0.092776,0.536257,0.0,0.0,102.0,188.0,46.0,1.0
116,0.8782780000000001,-0.6061979999999999,1.989202,-0.260146,-0.094649,0.481898,0.0,0.0,102.0,188.0,46.0,1.0
117,0.857102,-0.62154,2.030436,-0.249674,-0.070645,0.493691,0.0,0.0,102.0,188.0,46.0,1.0
118,0.846291,-0.640044,2.069079,-0.248835,-0.026415,0.500624,0.0,0.0,102.0,188.0,46.0,1.0
119,0.848066,-0.661776,2.106973,-0.222523,0.02429,0.398013,0.0,0.0,102.0,188.0,46.0,1.0
120,0.858075,-0.687381,2.144419,-0.144541,0.05303,0.282319,0.0,0.0,102.0,188.0,46.0,1.0
121,0.8756430000000001,-0.715959,2.1793400000000003,-0.053684,0.04538,0.216864,0.0,0.0,102.0,188.0,46.0,1.0
122,0.8996959999999999,-0.747679,2.212082,0.041045,0.04667,0.016941,0.0,0.0,102.0,188.0,46.0,1.0
123,0.928464,-0.781327,2.247116,0.219635,0.008195000000000001,-0.184967,0.0,0.0,102.0,188.0,46.0,1.0
124,0.954615,-0.813852,2.284163,0.444745,-0.092004,-0.343007,0.0,0.0,102.0,188.0,46.0,1.0
125,0.967363,-0.8385100000000001,2.32108,0.813823,-0.277141,-0.243223,0.0,0.0,102.0,188.0,46.0,1.0
126,0.958961,-0.8411879999999999,2.352217,0.936719,-0.341474,-0.195033,0.0,0.0,102.0,188.0,46.0,1.0
127,0.953822,-0.824166,2.388248,0.868517,-0.380161,-0.058927,0.0,0.0,102.0,188.0,46.0,1.0
128,0.970913,-0.798849,2.435079,0.270814,-0.398896,0.151861,0.0,0.0,102.0,188.0,46.0,1.0
129,0.991398,-0.778053,2.483444,0.235237,-0.154637,0.247167,0.0,0.0,102.0,188.0,46.0,1.0
130,1.020123,-0.7804399999999999,2.522425,0.492542,0.200338,0.408727,0.0,0.0,102.0,188.0,46.0,1.0
131,1.059488,-0.795201,2.557982,-0.266908,0.504426,0.953478,0.0,0.0,102.0,188.0,46.0,1.0
132,1.068644,-0.775513,2.590339,-0.370112,0.349661,0.482497,0.0,0.0,102.0,188.0,46.0,1.0
133,1.0645950000000002,-0.749935,2.618778,-0.453948,0.22356,0.134023,0.0,0.0,102.0,188.0,46.0,1.0
134,1.063434,-0.749954,2.658491,-0.488208,-0.239512,0.481943,0.0,0.0,102.0,188.0,46.0,1.0
135,1.06776,-0.77632,2.676586,-0.538273,-0.215368,0.8274879999999999,0.0,0.0,102.0,188.0,46.0,1.0
136,1.090545,-0.807779,2.681721,-0.426937,-0.150855,0.951631,0.0,0.0,102.0,188.0,46.0,1.0
137,1.13551,-0.830043,2.6908990000000004,0.466485,0.242646,0.725266,0.0,0.0,102.0,188.0,46.0,1.0
138,1.192218,-0.841492,2.710979,0.6777380000000001,0.15965,0.447501,0.0,0.0,102.0,188.0,46.0,1.0
139,1.218076,-0.853964,2.72785,0.8645870000000001,-0.112762,-0.071622,0.0,0.0,102.0,188.0,46.0,1.0
140,1.218093,-0.875091,2.759334,0.5137609999999999,-0.154641,-0.138205,0.0,0.0,102.0,188.0,46.0,1.0
141,1.235109,-0.8981809999999999,2.827134,0.20857,-0.18727,0.322014,0.0,0.0,102.0,188.0,46.0,1.0
142,1.266552,-0.921899,2.9018650000000004,-0.100694,-0.083113,0.628666,0.0,0.0,102.0,188.0,46.0,1.0
143,1.298956,-0.941034,2.9712650000000003,-0.12032,-0.036835,0.5140779999999999,0.0,0.0,102.0,188.0,46.0,1.0
144,1.336541,-0.956603,3.035642,-0.082563,0.005302,0.324597,0.0,0.0,102.0,188.0,46.0,1.0
145,1.377062,-0.970232,3.088811,-0.006929,-0.000523,0.096957,0.0,0.0,102.0,188.0,46.0,1.0
146,1.411548,-0.982915,3.128814,0.041606,-0.028437,0.013208,0.0,0.0,102.0,188.0,46.0,1.0
147,1.4365059999999998,-0.996786,-3.122631,0.136034,-0.108941,-0.091056,0.0,0.0,102.0,188.0,46.0,1.0
148,1.453074,-1.009788,-3.091882,0.240105,-0.29848600000000003,-0.121914,0.0,0.0,102.0,188.0,46.0,1.0
149,1.461599,-1.019192,-3.064953,0.360369,-0.425873,-0.074785,0.0,0.0,102.0,188.0,46.0,1.0
150,1.463344,-1.024414,-3.045862,0.422041,-0.447061,-0.024781,0.0,0.0,102.0,188.0,46.0,1.0
151,1.463307,-1.02436,-3.030981,0.489289,-0.372097,0.061074,0.0,0.0,102.0,188.0,46.0,1.0
152,1.458528,-1.01826,-3.019404,0.405519,-0.34523000000000004,-0.004188,0.0,0.0,102.0,188.0,46.0,1.0
153,1.431509,-1.00714,-3.022244,0.33010100000000003,-0.212418,-0.09846,0.0,0.0,102.0,188.0,46.0,1.0
154,1.375108,-0.988332,-3.046409,0.278058,-0.059429,0.004832,0.0,0.0,102.0,188.0,46.0,1.0
155,1.281279,-0.95442,-3.103791,0.26667,0.35772800000000005,0.174207,0.0,0.0,102.0,188.0,46.0,1.0
156,1.167701,-0.913669,3.124611,-0.038128,0.539701,0.098059,0.0,0.0,102.0,188.0,46.0,1.0
157,1.091123,-0.8919600000000001,3.130721,-0.113882,0.383684,0.598418,0.0,0.0,102.0,188.0,46.0,1.0
158,1.053598,-0.8896370000000001,-3.104505,0.040205,0.426358,0.8927860000000001,0.0,0.0,102.0,188.0,46.0,1.0
159,1.002993,-0.861908,-3.08421,0.70531,0.079247,0.755532,0.0,0.0,102.0,188.0,46.0,1.0
160,0.953741,-0.7968390000000001,-3.0794490000000003,1.302701,0.118056,-0.577591,0.0,0.0,102.0,188.0,46.0,1.0
161,0.927039,-0.771275,-3.0179240000000003,0.87211,-0.013777,0.152803,0.0,0.0,102.0,188.0,46.0,1.0
162,0.89766,-0.765721,-2.963764,0.110634,0.015668,0.5174979999999999,0.0,0.0,102.0,188.0,46.0,1.0
163,0.869467,-0.7637,-2.924306,-0.544245,-0.1177,0.344856,0.0,0.0,102.0,188.0,46.0,1.0
164,0.8528309999999999,-0.767936,-2.886728,-0.615762,-0.335811,0.371296,0.0,0.0,102.0,188.0,46.0,1.0
165,0.853842,-0.778872,-2.857243,-0.656868,-0.556191,0.389608,0.0,0.0,102.0,188.0,46.0,1.0
166,0.872764,-0.792867,-2.83256,-0.569291,-0.537792,0.327981,0.0,0.0,102.0,188.0,46.0,1.0
167,0.904484,-0.807739,-2.811257,-0.454041,-0.5822689999999999,0.321502,0.0,0.0,102.0,188.0,46.0,1.0
168,0.93902,-0.8222520000000001,-2.791487,-0.425261,-0.5852350000000001,0.333832,0.0,0.0,102.0,188.0,46.0,1.0
169,0.990243,-0.838492,-2.7619290000000003,-0.409507,-0.570662,0.31440300000000004,0.0,0.0,102.0,188.0,46.0,1.0
170,1.065312,-0.859728,-2.722305,-0.360254,-0.403905,0.173605,0.0,0.0,102.0,188.0,46.0,1.0
171,1.146353,-0.8882540000000001,-2.690309,-0.227264,-0.264909,0.066903,0.0,0.0,102.0,188.0,46.0,1.0
172,1.212558,-0.927573,-2.680391,-0.113901,-0.218227,0.046005,0.0,0.0,102.0,188.0,46.0,1.0
173,1.251687,-0.969733,-2.68045,0.383456,0.26347600000000004,-0.109999,0.0,0.0,102.0,188.0,46.0,1.0
174,1.263005,-0.999218,-2.665764,0.59811,0.245622,-0.166329,0.0,0.0,102.0,188.0,46.0,1.0
175,1.286633,-1.018576,-2.607911,0.878843,-0.11279000000000003,-0.421871,0.0,0.0,102.0,188.0,46.0,1.0
176,1.323173,-1.028001,-2.5386990000000003,0.564959,-0.516333,-0.248871,0.0,0.0,102.0,188.0,46.0,1.0
177,1.353582,-1.022325,-2.5009080000000004,0.261376,-0.367711,-0.057116,0.0,0.0,102.0,188.0,46.0,1.0
178,1.375051,-1.005889,-2.491117,0.28171,0.044232,0.02029,0.0,0.0,102.0,188.0,46.0,1.0
179,1.386153,-0.989191,-2.504833,0.198436,0.212117,0.389848,0.0,0.0,102.0,188.0,46.0,1.0
180,1.407433,-0.978992,-2.521843,0.002851,0.460623,0.740967,0.0,0.0,102.0,188.0,46.0,1.0
181,1.449481,-0.970079,-2.503442,-0.270782,0.6743520000000001,0.811385,0.0,0.0,102.0,188.0,46.0,1.0
182,1.453762,-0.957625,-2.486277,0.043997,0.519209,0.292491,0.0,0.0,102.0,188.0,46.0,1.0
183,1.383804,-0.939311,-2.527002,0.7580819999999999,-0.011665,-0.710535,0.0,0.0,102.0,188.0,46.0,1.0
184,1.356927,-0.922422,-2.558766,0.457215,-0.438546,-0.291232,0.0,0.0,102.0,188.0,46.0,1.0
185,1.378332,-0.914389,-2.55083,-0.115638,-0.42897,0.8804799999999999,0.0,0.0,102.0,188.0,46.0,1.0
186,1.407021,-0.909674,-2.531076,0.010515,-0.244855,0.655148,0.0,0.0,102.0,188.0,46.0,1.0
187,1.438778,-0.909466,-2.511345,0.474384,-0.073676,-0.127605,0.0,0.0,102.0,188.0,46.0,1.0
188,1.479049,-0.915914,-2.4784900000000003,0.4466729999999999,-0.128279,-0.251312,0.0,0.0,102.0,188.0,46.0,1.0
189,1.501693,-0.924807,-2.453229,0.531574,-0.044613,0.111696,0.0,0.0,102.0,188.0,46.0,1.0
190,1.487009,-0.93163,-2.444401,0.31692800000000004,-0.13080999999999998,-0.181843,0.0,0.0,102.0,188.0,46.0,1.0
191,1.448776,-0.930847,-2.441589,0.245313,-0.203097,-0.28016,0.0,0.0,102.0,188.0,46.0,1.0
192,1.406672,-0.925152,-2.4474720000000003,0.075852,-0.294516,-0.024612,0.0,0.0,102.0,188.0,46.0,1.0
193,1.358846,-0.912096,-2.474639,-0.0817,-0.254625,-0.255209,0.0,0.0,102.0,188.0,46.0,1.0
194,1.295177,-0.8958299999999999,-2.515613,-0.094374,-0.201047,-0.243444,0.0,0.0,102.0,188.0,46.0,1.0
195,1.216057,-0.878969,-2.56088,-0.166523,-0.343812,0.25441,0.0,0.0,102.0,188.0,46.0,1.0
196,1.129616,-0.859981,-2.595346,-0.194623,-0.417666,0.34830300000000003,0.0,0.0,102.0,188.0,46.0,1.0
197,1.0432860000000002,-0.8379719999999999,-2.613268,-0.07180800000000001,-0.384447,0.332812,0.0,0.0,102.0,188.0,46.0,1.0
198,0.964098,-0.8203,-2.617212,0.019606,-0.237972,0.561167,0.0,0.0,102.0,188.0,46.0,1.0
199,0.891647,-0.807543,-2.624168,-0.020309,-0.011013,0.557686,0.0,0.0,102.0,188.0,46.0,1.0
200,0.8356979999999999,-0.798357,-2.6395060000000004,0.040836,0.377082,0.264201,0.0,0.0,102.0,188.0,46.0,1.0
201,0.811826,-0.7989850000000001,-2.647629,0.143577,0.403499,0.227012,0.0,0.0,102.0,188.0,46.0,1.0
202,0.8251069999999999,-0.806704,-2.64108,0.224807,0.0658,0.270223,0.0,0.0,102.0,188.0,46.0,1.0
203,0.8598620000000001,-0.8240139999999999,-2.6213580000000003,0.134352,-0.14388199999999998,0.074393,0.0,0.0,102.0,188.0,46.0,1.0
204,0.912882,-0.857245,-2.584923,0.006739,-0.118118,-0.196643,0.0,0.0,102.0,188.0,46.0,1.0
205,0.999277,-0.897444,-2.52382,0.041915,-0.166074,-0.31437,0.0,0.0,102.0,188.0,46.0,1.0
206,1.122912,-0.935093,-2.44206,-0.003518,-0.226544,-0.485946,0.0,0.0,102.0,188.0,46.0,1.0
207,1.251182,-0.964548,-2.36507,0.119621,-0.377333,-0.518543,0.0,0.0,102.0,188.0,46.0,1.0
208,1.351989,-0.982442,-2.313083,0.264698,-0.391578,-0.338789,0.0,0.0,102.0,188.0,46.0,1.0
209,1.419171,-0.991491,-2.294907,0.410651,-0.028814,-0.041137,0.0,0.0,102.0,188.0,46.0,1.0
210,1.460984,-0.99216,-2.308793,0.33121300000000004,0.431407,0.108625,0.0,0.0,102.0,188.0,46.0,1.0
211,1.4765620000000002,-0.98057,-2.329291,0.134152,0.452526,0.073426,0.0,0.0,102.0,188.0,46.0,1.0
212,1.46958,-0.961556,-2.340838,-0.203883,-0.136795,-0.238977,0.0,0.0,102.0,188.0,46.0,1.0
213,1.483593,-0.943567,-2.331427,-0.281085,-0.309748,-0.235506,0.0,0.0,102.0,188.0,46.0,1.0
214,1.504809,-0.934362,-2.318139,-0.263311,-0.333059,0.359991,0.0,0.0,102.0,188.0,46.0,1.0
215,1.5202950000000002,-0.933938,-2.300477,-0.000683,0.210772,0.313924,0.0,0.0,102.0,188.0,46.0,1.0
216,1.494455,-0.935743,-2.30558,0.864287,0.4388260000000001,0.051591,0.0,0.0,102.0,188.0,46.0,1.0
217,1.455034,-0.909582,-2.366032,1.760975,0.014159,-0.12726800000000002,0.0,0.0,102.0,188.0,46.0,1.0
218,1.452992,-0.8804040000000001,-2.395601,0.443395,0.011993,-0.17918,0.0,0.0,102.0,188.0,46.0,1.0
219,1.481589,-0.8769790000000001,-2.362566,-0.404954,-0.295163,0.524133,0.0,0.0,102.0,188.0,46.0,1.0
220,1.514839,-0.8815290000000001,-2.314934,-0.415524,-0.374557,0.278611,0.0,0.0,102.0,188.0,46.0,1.0
221,1.520333,-0.898381,-2.294691,0.474565,0.123534,-0.098723,0.0,0.0,102.0,188.0,46.0,1.0
222,1.511062,-0.913312,-2.3088740000000003,0.923791,0.333681,-0.332367,0.0,0.0,102.0,188.0,46.0,1.0
223,1.467945,-0.8977799999999999,-2.321952,0.8556860000000001,-0.198709,-0.018749,0.0,0.0,102.0,188.0,46.0,1.0
224,1.365585,-0.8616799999999999,-2.349483,0.480587,-0.17510599999999998,0.242447,0.0,0.0,102.0,188.0,46.0,1.0
225,1.219243,-0.818076,-2.385136,-0.29740900000000003,-0.160099,0.092269,0.0,0.0,102.0,188.0,46.0,1.0
226,1.098927,-0.776754,-2.400462,-0.627686,-0.070094,0.318247,0.0,0.0,102.0,188.0,46.0,1.0
227,1.0466959999999998,-0.7522939999999999,-2.407877,-0.952328,-0.136272,0.84449,0.0,0.0,102.0,188.0,46.0,1.0
228,0.989852,-0.741665,-2.4249110000000003,-1.3988200000000002,-0.519083,0.035036000000000005,0.0,0.0,102.0,188.0,46.0,1.0
229,0.950544,-0.7584529999999999,-2.450226,-0.811941,-0.616907,0.705248,0.0,0.0,102.0,188.0,46.0,1.0
230,0.939334,-0.7767189999999999,-2.501947,-0.436005,-0.305115,0.243876,0.0,0.0,102.0,188.0,46.0,1.0
231,0.986638,-0.794743,-2.536662,-0.268793,-0.22322,0.054626,0.0,0.0,102.0,188.0,46.0,1.0
232,1.070833,-0.818826,-2.537184,-0.021406,-0.14752,0.000208,0.0,0.0,102.0,188.0,46.0,1.0
233,1.202129,-0.857016,-2.487217,0.80087,0.10156,0.392246,0.0,0.0,102.0,188.0,46.0,1.0
234,1.321479,-0.897813,-2.43637,1.0154729999999998,0.607408,-0.056222,0.0,0.0,102.0,188.0,46.0,1.0
235,1.380067,-0.92078,-2.432651,0.660323,0.678962,-0.760178,0.0,0.0,102.0,188.0,46.0,1.0
236,1.365642,-0.931369,-2.457796,0.398566,0.114432,-0.856095,0.0,0.0,102.0,188.0,46.0,1.0
237,1.353028,-0.937649,-2.455173,0.264971,-0.1308,-0.565891,0.0,0.0,102.0,188.0,46.0,1.0
238,1.3767459999999998,-0.941785,-2.4218740000000003,0.365354,-0.08461,0.041249,0.0,0.0,102.0,188.0,46.0,1.0
239,1.410625,-0.939145,-2.412582,0.546764,0.265471,0.4491850000000001,0.0,0.0,102.0,188.0,46.0,1.0
240,1.420098,-0.935223,-2.433532,0.126209,0.516664,0.643291,0.0,0.0,102.0,188.0,46.0,1.0
241,1.443019,-0.925851,-2.419777,-0.498841,0.162491,0.482443,0.0,0.0,102.0,188.0,46.0,1.0
242,1.46601,-0.906395,-2.382733,-0.26117,-0.234293,0.169213,0.0,0.0,102.0,188.0,46.0,1.0
243,1.480982,-0.894202,-2.363489,-0.046499,-0.523423,-0.490729,0.0,0.0,102.0,188.0,46.0,1.0
244,1.482931,-0.8850889999999999,-2.385579,0.362752,-0.341934,-0.267858,0.0,0.0,102.0,188.0,46.0,1.0
245,1.490489,-0.878863,-2.422157,0.427811,0.104361,0.336752,0.0,0.0,102.0,188.0,46.0,1.0
246,1.5144030000000002,-0.874964,-2.436386,0.703943,0.314908,0.41316,0.0,0.0,102.0,188.0,46.0,1.0
247,1.5120129999999998,-0.867901,-2.443954,0.5639460000000001,-0.219013,0.035978,0.0,0.0,102.0,188.0,46.0,1.0
248,1.470923,-0.855284,-2.4540990000000003,0.327062,-0.475247,-0.246527,0.0,0.0,102.0,188.0,46.0,1.0
249,1.440171,-0.842852,-2.45893,0.013123,-0.4394,-0.108848,0.0,0.0,102.0,188.0,46.0,1.0
250,1.425561,-0.835202,-2.467289,0.0043100000000000005,-0.208122,0.197014,0.0,0.0,102.0,188.0,46.0,1.0
251,1.417869,-0.8363149999999999,-2.479683,0.224903,-0.03382,0.192379,0.0,0.0,102.0,188.0,46.0,1.0
252,1.410996,-0.8360719999999999,-2.494613,0.325845,-0.104061,0.155607,0.0,0.0,102.0,188.0,46.0,1.0
253,1.3887200000000002,-0.8274549999999999,-2.512634,0.424554,-0.25516300000000003,-0.214099,0.0,0.0,102.0,188.0,46.0,1.0
254,1.346221,-0.812457,-2.532692,0.226571,-0.139752,-0.264911,0.0,0.0,102.0,188.0,46.0,1.0
255,1.2794370000000002,-0.796784,-2.554548,0.039587,-0.030358,0.07570199999999999,0.0,0.0,102.0,188.0,46.0,1.0
256,1.203058,-0.778605,-2.58463,-0.14588099999999998,-0.017075999999999997,0.301584,0.0,0.0,102.0,188.0,46.0,1.0
257,1.117559,-0.758207,-2.619024,-0.082816,0.087251,0.305327,0.0,0.0,102.0,188.0,46.0,1.0
258,1.023793,-0.736065,-2.655594,0.046023,0.188319,0.272791,0.0,0.0,102.0,188.0,46.0,1.0
259,0.938087,-0.7185560000000001,-2.677099,0.331066,0.207241,0.161957,0.0,0.0,102.0,188.0,46.0,1.0
260,0.871973,-0.721321,-2.670312,0.279303,0.023903,0.639049,0.0,0.0,102.0,188.0,46.0,1.0
261,0.8232149999999999,-0.730066,-2.659585,0.14816500000000002,-0.155139,0.666365,0.0,0.0,102.0,188.0,46.0,1.0
262,0.794846,-0.735835,-2.651593,-0.13559200000000002,-0.14485399999999998,0.457399,0.0,0.0,102.0,188.0,46.0,1.0
263,0.805883,-0.742632,-2.635559,-0.22763200000000006,0.092326,0.148858,0.0,0.0,102.0,188.0,46.0,1.0
264,0.848082,-0.767096,-2.608935,-0.264627,0.180556,-0.083575,0.0,0.0,102.0,188.0,46.0,1.0
265,0.912025,-0.806972,-2.568028,-0.046125,-0.214445,-0.054598,0.0,0.0,102.0,188.0,46.0,1.0
266,1.000381,-0.8421719999999999,-2.519145,-0.146592,-0.370252,-0.103957,0.0,0.0,102.0,188.0,46.0,1.0
267,1.104801,-0.8627469999999999,-2.473986,-0.150833,-0.386402,-0.131144,0.0,0.0,102.0,188.0,46.0,1.0
268,1.2141110000000002,-0.877805,-2.437761,-0.139312,-0.373922,-0.180882,0.0,0.0,102.0,188.0,46.0,1.0
269,1.326327,-0.893757,-2.403551,0.226781,0.055133,-0.293447,0.0,0.0,102.0,188.0,46.0,1.0
270,1.423282,-0.915788,-2.366352,0.35413,0.192416,-0.315998,0.0,0.0,102.0,188.0,46.0,1.0
271,1.469327,-0.929165,-2.342854,0.399189,0.281002,-0.419477,0.0,0.0,102.0,188.0,46.0,1.0
272,1.483543,-0.92255,-2.338449,0.231225,-0.421838,-0.011532,0.0,0.0,102.0,188.0,46.0,1.0
273,1.497562,-0.905948,-2.351935,0.023005,-0.410942,0.098974,0.0,0.0,102.0,188.0,46.0,1.0
274,1.523508,-0.8950889999999999,-2.367117,-0.130427,-0.323386,0.161981,0.0,0.0,102.0,188.0,46.0,1.0
275,1.540679,-0.901648,-2.3757650000000003,-0.242275,0.6492439999999999,0.336047,0.0,0.0,102.0,188.0,46.0,1.0
276,1.54484,-0.905127,-2.377311,-0.243019,0.67184,0.289466,0.0,0.0,102.0,188.0,46.0,1.0
277,1.531406,-0.901173,-2.381314,-0.060135,0.49341,0.290297,0.0,0.0,102.0,188.0,46.0,1.0
278,1.528288,-0.89281,-2.387769,0.690372,-0.169462,0.137021,0.0,0.0,102.0,188.0,46.0,1.0
279,1.542433,-0.8750549999999999,-2.394545,0.75739,-0.246781,-0.189739,0.0,0.0,102.0,188.0,46.0,1.0
280,1.542538,-0.856351,-2.417472,0.245759,-0.165415,0.082889,0.0,0.0,102.0,188.0,46.0,1.0
281,1.549435,-0.8487120000000001,-2.426711,-0.169604,-0.007143000000000002,0.4886970000000001,0.0,0.0,102.0,188.0,46.0,1.0
282,1.563978,-0.849152,-2.421771,0.000376,0.036511,0.12041,0.0,0.0,102.0,188.0,46.0,1.0
283,1.566819,-0.855361,-2.416486,0.429859,-0.011705,-0.220627,0.0,0.0,102.0,188.0,46.0,1.0
284,1.567847,-0.865554,-2.412468,0.527733,-0.041255,0.118566,0.0,0.0,102.0,188.0,46.0,1.0
285,1.574699,-0.8736360000000001,-2.401031,0.451849,-0.104574,0.21478000000000005,0.0,0.0,102.0,188.0,46.0,1.0
286,1.571452,-0.8746889999999999,-2.392728,0.31955,-0.374034,-0.022729,0.0,0.0,102.0,188.0,46.0,1.0
287,1.556123,-0.869691,-2.394767,0.237987,-0.209793,-0.301952,0.0,0.0,102.0,188.0,46.0,1.0
288,1.532099,-0.864585,-2.408122,0.202268,-0.126289,-0.263208,0.0,0.0,102.0,188.0,46.0,1.0
289,1.500738,-0.859612,-2.433426,0.080956,-0.222143,0.079414,0.0,0.0,102.0,188.0,46.0,1.0
290,1.457472,-0.845292,-2.470011,-0.036362,-0.358379,0.059238,0.0,0.0,102.0,188.0,46.0,1.0
291,1.395128,-0.816056,-2.505593,-0.11497,-0.343715,-0.129245,0.0,0.0,102.0,188.0,46.0,1.0
292,1.305712,-0.783157,-2.527191,0.120157,-0.210846,-0.207244,0.0,0.0,102.0,188.0,46.0,1.0
293,1.205451,-0.757678,-2.551788,-0.066978,-0.24638,0.483152,0.0,0.0,102.0,188.0,46.0,1.0
294,1.100912,-0.746658,-2.573887,-0.305097,-0.218985,0.680836,0.0,0.0,102.0,188.0,46.0,1.0
295,1.006858,-0.743367,-2.589638,-0.224585,-0.1508,0.5784159999999999,0.0,0.0,102.0,188.0,46.0,1.0
296,0.951227,-0.739463,-2.606781,-0.16118,-0.010286,0.572674,0.0,0.0,102.0,188.0,46.0,1.0
297,0.934672,-0.7398020000000001,-2.619887,-0.215518,0.04798,0.490945,0.0,0.0,102.0,188.0,46.0,1.0
298,0.949426,-0.7454770000000001,-2.619035,-0.187008,0.0447,0.34501,0.0,0.0,102.0,188.0,46.0,1.0
299,0.985736,-0.763791,-2.597413,-0.124468,-0.010375,0.129649,0.0,0.0,102.0,188.0,46.0,1.0
300,1.031937,-0.790542,-2.561523,0.050002,-0.105922,0.098702,0.0,0.0,102.0,188.0,46.0,1.0
301,1.095822,-0.812708,-2.523505,0.279396,-0.13881,0.010191,0.0,0.0,102.0,188.0,46.0,1.0
302,1.190708,-0.842233,-2.478629,0.397511,0.302666,-0.039532,0.0,0.0,102.0,188.0,46.0,1.0
303,1.3152549999999998,-0.8717229999999999,-2.429669,0.489769,0.52132,-0.314285,0.0,0.0,102.0,188.0,46.0,1.0
304,1.432453,-0.890349,-2.37914,0.376962,0.424918,-0.894639,0.0,0.0,102.0,188.0,46.0,1.0
305,1.474401,-0.902808,-2.335183,0.086257,-0.12209,-0.925507,0.0,0.0,102.0,188.0,46.0,1.0
306,1.469039,-0.902017,-2.308661,0.297043,-0.637606,-0.299626,0.0,0.0,102.0,188.0,46.0,1.0
307,1.472558,-0.892337,-2.328249,0.189549,-0.648596,0.210053,0.0,0.0,102.0,188.0,46.0,1.0
308,1.49604,-0.885848,-2.3557810000000003,-0.11724,-0.13478800000000002,0.389153,0.0,0.0,102.0,188.0,46.0,1.0
309,1.527839,-0.8848010000000001,-2.367673,-0.219285,0.339248,0.362408,0.0,0.0,102.0,188.0,46.0,1.0
310,1.565916,-0.883582,-2.351157,-0.031458,0.6916439999999999,-0.103731,0.0,0.0,102.0,188.0,46.0,1.0
311,1.588484,-0.889376,-2.3169470000000003,0.171807,0.537866,-0.265459,0.0,0.0,102.0,188.0,46.0,1.0
312,1.570074,-0.8921979999999999,-2.326496,0.244307,0.221989,0.052867,0.0,0.0,102.0,188.0,46.0,1.0
313,1.53118,-0.8849440000000001,-2.37722,0.319649,0.11734,0.439039,0.0,0.0,102.0,188.0,46.0,1.0
314,1.538451,-0.8764799999999999,-2.382319,-0.004424,-0.0005009999999999999,0.857713,0.0,0.0,102.0,188.0,46.0,1.0
315,1.540842,-0.8604200000000001,-2.381441,-0.08371100000000001,-0.40808,0.32434,0.0,0.0,102.0,188.0,46.0,1.0
316,1.527102,-0.837367,-2.406548,0.186595,-0.572702,-0.628322,0.0,0.0,102.0,188.0,46.0,1.0
317,1.527339,-0.8198340000000001,-2.437044,0.491901,0.255356,0.17184000000000002,0.0,0.0,102.0,188.0,46.0,1.0
318,1.536243,-0.81519,-2.456775,0.608014,0.373112,0.380486,0.0,0.0,102.0,188.0,46.0,1.0
319,1.542132,-0.815689,-2.466827,0.649738,0.34837,0.34049,0.0,0.0,102.0,188.0,46.0,1.0
320,1.550982,-0.822931,-2.464487,0.232198,-0.10979,0.184632,0.0,0.0,102.0,188.0,46.0,1.0
321,1.563644,-0.8342229999999999,-2.455315,0.186632,-0.099661,0.220686,0.0,0.0,102.0,188.0,46.0,1.0
322,1.577909,-0.846491,-2.446389,0.214385,-0.08807100000000001,0.114825,0.0,0.0,102.0,188.0,46.0,1.0
323,1.5980370000000002,-0.858331,-2.430475,0.22105300000000006,-0.240258,0.087313,0.0,0.0,102.0,188.0,46.0,1.0
324,1.616084,-0.868956,-2.413875,0.22659,-0.257506,0.037025,0.0,0.0,102.0,188.0,46.0,1.0
325,1.630533,-0.877317,-2.402791,0.110382,-0.258361,-0.085449,0.0,0.0,102.0,188.0,46.0,1.0
326,1.641744,-0.881566,-2.396609,0.029734,-0.219444,-0.018561,0.0,0.0,102.0,188.0,46.0,1.0
327,1.637981,-0.8815290000000001,-2.402557,0.05805900000000001,-0.160826,-0.081758,0.0,0.0,102.0,188.0,46.0,1.0
328,1.611981,-0.8771,-2.425424,0.069121,-0.182844,-0.393208,0.0,0.0,102.0,188.0,46.0,1.0
329,1.561336,-0.871943,-2.460453,0.09854,-0.26642,-0.370242,0.0,0.0,102.0,188.0,46.0,1.0
330,1.510757,-0.8705629999999999,-2.496693,-0.049836,-0.325453,0.165482,0.0,0.0,102.0,188.0,46.0,1.0
331,1.469664,-0.870984,-2.520969,-0.192251,-0.393579,0.29557100000000003,0.0,0.0,102.0,188.0,46.0,1.0
332,1.4297959999999998,-0.865332,-2.533217,-0.241745,-0.549458,0.332408,0.0,0.0,102.0,188.0,46.0,1.0
333,1.369193,-0.8512870000000001,-2.550777,-0.085426,-0.401864,0.001713,0.0,0.0,102.0,188.0,46.0,1.0
334,1.271726,-0.8277549999999999,-2.573545,0.077285,-0.159556,-0.115507,0.0,0.0,102.0,188.0,46.0,1.0
335,1.170759,-0.802148,-2.578859,0.231212,0.219366,0.317425,0.0,0.0,102.0,188.0,46.0,1.0
336,1.079013,-0.782165,-2.5772150000000003,0.237563,0.313463,0.638608,0.0,0.0,102.0,188.0,46.0,1.0
337,1.009667,-0.765522,-2.58113,0.082461,0.309924,0.393543,0.0,0.0,102.0,188.0,46.0,1.0
338,0.965731,-0.75513,-2.584182,-0.14497100000000002,0.173198,-0.047178,0.0,0.0,102.0,188.0,46.0,1.0
339,0.939477,-0.754521,-2.57763,-0.15496400000000002,-0.017994,0.216633,0.0,0.0,102.0,188.0,46.0,1.0
340,0.935752,-0.762454,-2.563239,-0.2214,-0.276513,0.351082,0.0,0.0,102.0,188.0,46.0,1.0
341,0.954752,-0.777625,-2.545703,-0.174072,-0.280568,0.210611,0.0,0.0,102.0,188.0,46.0,1.0
342,0.99268,-0.796089,-2.531081,-0.208864,-0.247722,0.06931699999999999,0.0,0.0,102.0,188.0,46.0,1.0
343,1.055094,-0.818543,-2.509835,-0.182771,-0.274997,-0.04596,0.0,0.0,102.0,188.0,46.0,1.0
344,1.142333,-0.849943,-2.478994,-0.051168,-0.212562,-0.086998,0.0,0.0,102.0,188.0,46.0,1.0
345,1.248339,-0.892385,-2.439623,0.155657,-0.111304,-0.219829,0.0,0.0,102.0,188.0,46.0,1.0
346,1.35776,-0.935706,-2.385544,0.553004,0.14418599999999998,-0.491315,0.0,0.0,102.0,188.0,46.0,1.0
347,1.443077,-0.960689,-2.317593,0.631464,-0.136924,-0.39568,0.0,0.0,102.0,188.0,46.0,1.0
348,1.4677360000000002,-0.961259,-2.275378,0.590233,-0.398206,-0.316149,0.0,0.0,102.0,188.0,46.0,1.0
349,1.47155,-0.945969,-2.262767,0.395353,-0.462172,-0.326898,0.0,0.0,102.0,188.0,46.0,1.0
350,1.506938,-0.919949,-2.251586,-0.047054,-0.267098,0.079358,0.0,0.0,102.0,188.0,46.0,1.0
351,1.5671469999999998,-0.908256,-2.241489,-0.160222,0.235295,0.3911,0.0,0.0,102.0,188.0,46.0,1.0
352,1.626291,-0.909733,-2.227191,-0.294439,0.585904,0.368641,0.0,0.0,102.0,188.0,46.0,1.0
353,1.619448,-0.909363,-2.226154,-0.368283,0.40971,-0.176555,0.0,0.0,102.0,188.0,46.0,1.0
354,1.545586,-0.918608,-2.266699,-0.361495,0.404065,-0.131383,0.0,0.0,102.0,188.0,46.0,1.0
355,1.533243,-0.932975,-2.307777,0.39153,-0.060338,0.257097,0.0,0.0,102.0,188.0,46.0,1.0
356,1.5423950000000002,-0.942163,-2.330251,1.15466,0.349081,0.244146,0.0,0.0,102.0,188.0,46.0,1.0
357,1.527741,-0.93384,-2.375506,1.723915,-0.118958,-0.121145,0.0,0.0,102.0,188.0,46.0,1.0
358,1.53857,-0.916418,-2.3974330000000004,0.559283,-0.490586,0.203251,0.0,0.0,102.0,188.0,46.0,1.0
359,1.564124,-0.90917,-2.374222,0.01455,-0.207527,0.574473,0.0,0.0,102.0,188.0,46.0,1.0
360,1.56891,-0.904146,-2.355178,0.07398099999999999,-0.14669100000000002,0.340949,0.0,0.0,102.0,188.0,46.0,1.0
361,1.556078,-0.90236,-2.35438,0.270688,-0.075395,-0.205066,0.0,0.0,102.0,188.0,46.0,1.0
362,1.54918,-0.907585,-2.341638,0.18355,-0.092005,-0.329909,0.0,0.0,102.0,188.0,46.0,1.0
363,1.557901,-0.915627,-2.316798,0.064127,-0.23548,0.113936,0.0,0.0,102.0,188.0,46.0,1.0
364,1.565693,-0.922501,-2.302658,0.108414,-0.29336,0.009704,0.0,0.0,102.0,188.0,46.0,1.0
365,1.568547,-0.927271,-2.299966,0.251911,-0.29083000000000003,-0.295052,0.0,0.0,102.0,188.0,46.0,1.0
366,1.563283,-0.92925,-2.306839,0.285645,-0.306191,-0.27107800000000004,0.0,0.0,102.0,188.0,46.0,1.0
367,1.546912,-0.927108,-2.323269,0.210538,-0.364326,-0.037806,0.0,0.0,102.0,188.0,46.0,1.0
368,1.515382,-0.918282,-2.348328,0.092599,-0.483708,0.022582,0.0,0.0,102.0,188.0,46.0,1.0
369,1.458825,-0.902709,-2.374242,0.057841,-0.55367,-0.326685,0.0,0.0,102.0,188.0,46.0,1.0
370,1.368369,-0.882177,-2.403952,0.183122,-0.391784,-0.190569,0.0,0.0,102.0,188.0,46.0,1.0
371,1.269168,-0.865294,-2.431537,0.093564,-0.276911,0.113207,0.0,0.0,102.0,188.0,46.0,1.0
372,1.183836,-0.859722,-2.42623,-0.090811,-0.07157999999999999,0.575623,0.0,0.0,102.0,188.0,46.0,1.0
373,1.097059,-0.856008,-2.409672,0.06754600000000001,-0.016112,0.535983,0.0,0.0,102.0,188.0,46.0,1.0
374,1.024545,-0.849023,-2.3951860000000003,0.106635,0.003134,0.373172,0.0,0.0,102.0,188.0,46.0,1.0
375,0.967834,-0.844031,-2.380096,0.104616,0.042772,0.12628399999999998,0.0,0.0,102.0,188.0,46.0,1.0
376,0.923114,-0.845453,-2.366255,0.090279,0.076481,0.137876,0.0,0.0,102.0,188.0,46.0,1.0
377,0.903159,-0.848432,-2.33923,0.119167,0.012923,0.216292,0.0,0.0,102.0,188.0,46.0,1.0
378,0.913968,-0.849957,-2.308813,0.126512,-0.099183,0.253597,0.0,0.0,102.0,188.0,46.0,1.0
379,0.94496,-0.854284,-2.2793360000000003,-0.103803,-0.083126,0.218148,0.0,0.0,102.0,188.0,46.0,1.0
380,0.989327,-0.861316,-2.244896,-0.25486,-0.044589,0.226198,0.0,0.0,102.0,188.0,46.0,1.0
381,1.043412,-0.872416,-2.2012970000000003,-0.349697,-0.057251,0.13997,0.0,0.0,102.0,188.0,46.0,1.0
382,1.116434,-0.883257,-2.151577,-0.323834,-0.003981,-0.135466,0.0,0.0,102.0,188.0,46.0,1.0
383,1.21726,-0.897697,-2.092175,-0.152896,0.041181,-0.5698840000000001,0.0,0.0,102.0,188.0,46.0,1.0
384,1.330796,-0.924418,-2.022917,0.196672,-0.136711,-0.729863,0.0,0.0,102.0,188.0,46.0,1.0
385,1.399987,-0.956715,-1.976364,0.8326290000000001,0.004688,-0.7905760000000001,0.0,0.0,102.0,188.0,46.0,1.0
386,1.402179,-0.968434,-1.970564,1.028863,0.106069,-0.636437,0.0,0.0,102.0,188.0,46.0,1.0
387,1.379002,-0.95661,-1.973968,0.745201,-0.305615,-0.823649,0.0,0.0,102.0,188.0,46.0,1.0
388,1.37776,-0.929722,-1.977762,0.094646,-0.307893,-0.185394,0.0,0.0,102.0,188.0,46.0,1.0
389,1.367493,-0.903812,-1.996772,-0.188383,-0.184983,0.26446,0.0,0.0,102.0,188.0,46.0,1.0
390,1.348596,-0.899022,-2.019508,-0.231724,-0.005725,0.455089,0.0,0.0,102.0,188.0,46.0,1.0
391,1.360942,-0.912159,-2.034313,-0.417734,0.521124,0.57391,0.0,0.0,102.0,188.0,46.0,1.0
392,1.385122,-0.921313,-2.031642,-0.530034,0.60668,0.232924,0.0,0.0,102.0,188.0,46.0,1.0
393,1.376088,-0.925533,-2.030563,0.359586,0.414102,0.554334,0.0,0.0,102.0,188.0,46.0,1.0
394,1.374576,-0.925726,-2.045167,0.8997850000000001,0.264831,0.6121260000000001,0.0,0.0,102.0,188.0,46.0,1.0
395,1.362056,-0.898975,-2.0699560000000004,1.209199,-0.597967,0.261488,0.0,0.0,102.0,188.0,46.0,1.0
396,1.334119,-0.848675,-2.137243,0.801129,-0.471933,-0.215684,0.0,0.0,102.0,188.0,46.0,1.0
397,1.401266,-0.8490139999999999,-2.0966150000000003,0.563455,-0.140354,-0.078877,0.0,0.0,102.0,188.0,46.0,1.0
398,1.468531,-0.859135,-2.020007,0.779976,-0.110931,0.338218,0.0,0.0,102.0,188.0,46.0,1.0
399,1.4758,-0.873395,-1.983506,0.790325,-0.120167,0.332463,0.0,0.0,102.0,188.0,46.0,1.0
400,1.509357,-0.8904489999999999,-1.917536,0.388573,-0.001353,-0.039134,0.0,0.0,102.0,188.0,46.0,1.0
401,1.555257,-0.903381,-1.843015,0.055509,-0.057564,0.155629,0.0,0.0,102.0,188.0,46.0,1.0
402,1.591966,-0.916566,-1.785797,0.001863,-0.059187,0.127209,0.0,0.0,102.0,188.0,46.0,1.0
403,1.629911,-0.930704,-1.730264,-0.011296,-0.065606,0.085319,0.0,0.0,102.0,188.0,46.0,1.0
404,1.672148,-0.944891,-1.675196,0.145386,-0.005715,-0.030831,0.0,0.0,102.0,188.0,46.0,1.0
405,1.7154459999999998,-0.957533,-1.624874,0.21167600000000006,-0.06872,-0.182632,0.0,0.0,102.0,188.0,46.0,1.0
406,1.756329,-0.970158,-1.576043,0.26360700000000004,-0.235803,-0.285241,0.0,0.0,102.0,188.0,46.0,1.0
407,1.7996169999999998,-0.981876,-1.524805,0.239669,-0.313886,-0.276447,0.0,0.0,102.0,188.0,46.0,1.0
408,1.843254,-0.989805,-1.471499,0.195392,-0.39816,-0.144247,0.0,0.0,102.0,188.0,46.0,1.0
409,1.882778,-0.994267,-1.422858,0.210307,-0.461849,-0.08606799999999999,0.0,0.0,102.0,188.0,46.0,1.0
410,1.913105,-0.997031,-1.380715,0.246064,-0.509877,-0.224647,0.0,0.0,102.0,188.0,46.0,1.0
411,1.932867,-0.99866,-1.34162,0.264579,-0.5235920000000001,-0.301064,0.0,0.0,102.0,188.0,46.0,1.0
412,1.938031,-0.998774,-1.310231,0.27688,-0.511905,-0.361412,0.0,0.0,102.0,188.0,46.0,1.0
413,1.923099,-0.997902,-1.2935299999999998,0.393006,-0.23343200000000006,-0.168537,0.0,0.0,102.0,188.0,46.0,1.0
414,1.884036,-0.995588,-1.296631,0.434808,-0.150541,-0.14083800000000002,0.0,0.0,102.0,188.0,46.0,1.0
415,1.815181,-0.991565,-1.325964,0.5467489999999999,-0.01416,-0.032224,0.0,0.0,102.0,188.0,46.0,1.0
416,1.725232,-0.983685,-1.374367,0.525312,0.03443,-0.0353,0.0,0.0,102.0,188.0,46.0,1.0
417,1.628291,-0.969965,-1.427883,0.504438,0.054680999999999993,-0.015106,0.0,0.0,102.0,188.0,46.0,1.0
418,1.544013,-0.955945,-1.463934,0.441406,0.136494,0.242224,0.0,0.0,102.0,188.0,46.0,1.0
419,1.48027,-0.944866,-1.477285,0.378187,0.098349,0.368804,0.0,0.0,102.0,188.0,46.0,1.0
420,1.427955,-0.93564,-1.469367,0.4635510000000001,-0.038866000000000005,0.399188,0.0,0.0,102.0,188.0,46.0,1.0
421,1.393722,-0.922499,-1.4487,0.6475850000000001,-0.198907,0.275967,0.0,0.0,102.0,188.0,46.0,1.0
422,1.376626,-0.899425,-1.429268,0.619626,-0.1683,0.022143,0.0,0.0,102.0,188.0,46.0,1.0
423,1.359008,-0.8727959999999999,-1.395384,0.359268,-0.087952,-0.109088,0.0,0.0,102.0,188.0,46.0,1.0
424,1.331456,-0.8488389999999999,-1.339074,0.23074,-0.08459,0.060655,0.0,0.0,102.0,188.0,46.0,1.0
425,1.305942,-0.8276620000000001,-1.273647,0.105401,-0.086037,0.257892,0.0,0.0,102.0,188.0,46.0,1.0
426,1.290244,-0.807573,-1.205715,-0.011869,-0.124757,0.40197,0.0,0.0,102.0,188.0,46.0,1.0
427,1.276779,-0.7871239999999999,-1.14431,-0.10902,-0.159025,0.472174,0.0,0.0,102.0,188.0,46.0,1.0
428,1.2682790000000002,-0.769501,-1.083832,-0.180941,-0.164604,0.460508,0.0,0.0,102.0,188.0,46.0,1.0
429,1.260458,-0.757063,-1.021834,-0.28976,-0.131797,0.34770100000000004,0.0,0.0,102.0,188.0,46.0,1.0
430,1.253287,-0.750825,-0.958283,-0.36342,-0.107383,0.31177,0.0,0.0,102.0,188.0,46.0,1.0
431,1.253256,-0.749591,-0.8960819999999999,-0.392457,-0.104496,0.26713200000000004,0.0,0.0,102.0,188.0,46.0,1.0
432,1.266076,-0.753545,-0.8344590000000001,-0.399696,-0.102731,0.148502,0.0,0.0,102.0,188.0,46.0,1.0
433,1.29005,-0.762476,-0.772261,-0.324974,-0.04867,-0.048466,0.0,0.0,102.0,188.0,46.0,1.0
434,1.322724,-0.774867,-0.710392,-0.260268,-0.053229,-0.154304,0.0,0.0,102.0,188.0,46.0,1.0
435,1.365989,-0.790315,-0.650467,-0.184918,-0.037052,-0.232814,0.0,0.0,102.0,188.0,46.0,1.0
436,1.41828,-0.809663,-0.589418,0.158352,-0.036784,-0.480629,0.0,0.0,102.0,188.0,46.0,1.0
437,1.4637870000000002,-0.827152,-0.533507,0.460092,-0.140791,-0.4860600000000001,0.0,0.0,102.0,188.0,46.0,1.0
438,1.483511,-0.837211,-0.494359,0.659382,-0.069607,-0.492568,0.0,0.0,102.0,188.0,46.0,1.0
439,1.475046,-0.832642,-0.470564,0.40276,0.020633,-0.506985,0.0,0.0,102.0,188.0,46.0,1.0
440,1.456135,-0.814647,-0.454599,0.084005,-0.223913,-0.398642,0.0,0.0,102.0,188.0,46.0,1.0
441,1.445347,-0.792353,-0.444782,-0.041426,-0.166094,-0.141956,0.0,0.0,102.0,188.0,46.0,1.0
442,1.4373280000000002,-0.7793439999999999,-0.443732,0.371474,0.507011,0.019332,0.0,0.0,102.0,188.0,46.0,1.0
443,1.440957,-0.782543,-0.431859,0.260424,0.521111,0.439928,0.0,0.0,102.0,188.0,46.0,1.0
444,1.444302,-0.776163,-0.428734,-0.036717,0.177124,0.636154,0.0,0.0,102.0,188.0,46.0,1.0
445,1.458474,-0.764369,-0.426455,-0.27324,0.06627999999999999,0.191822,0.0,0.0,102.0,188.0,46.0,1.0
446,1.486964,-0.757137,-0.41939,-0.378916,-0.004623,-0.073251,0.0,0.0,102.0,188.0,46.0,1.0
447,1.522008,-0.7667189999999999,-0.39604,-0.427845,0.027537,0.192029,0.0,0.0,102.0,188.0,46.0,1.0
448,1.560936,-0.782816,-0.352582,-0.159,0.12277,0.350924,0.0,0.0,102.0,188.0,46.0,1.0
449,1.601834,-0.7953,-0.300688,0.262669,0.015785,0.121769,0.0,0.0,102.0,188.0,46.0,1.0
450,1.636482,-0.7999649999999999,-0.257558,0.453086,-0.114533,0.022108000000000003,0.0,0.0,102.0,188.0,46.0,1.0
451,1.658045,-0.798716,-0.232606,0.428134,-0.173248,-0.068694,0.0,0.0,102.0,188.0,46.0,1.0
452,1.690027,-0.793114,-0.204416,0.145774,-0.149034,-0.148949,0.0,0.0,102.0,188.0,46.0,1.0
453,1.731901,-0.7860159999999999,-0.160358,0.035071,-0.097558,-0.11769,0.0,0.0,102.0,188.0,46.0,1.0
454,1.763622,-0.782169,-0.113678,-0.07349800000000001,-0.015504,-0.061891,0.0,0.0,102.0,188.0,46.0,1.0
455,1.788938,-0.7800050000000001,-0.062953,-0.07647799999999999,-8.2e-05,-0.115796,0.0,0.0,102.0,188.0,46.0,1.0
456,1.814774,-0.778297,-0.010835,-0.071926,-0.004634,-0.082726,0.0,0.0,102.0,188.0,46.0,1.0
457,1.840384,-0.7765810000000001,0.037774,-0.070026,0.009055,-0.06339299999999999,0.0,0.0,102.0,188.0,46.0,1.0
458,1.864888,-0.775135,0.0815,-0.09827,-0.039839,-0.000306,0.0,0.0,102.0,188.0,46.0,1.0
459,1.888703,-0.7745479999999999,0.11663,-0.088027,-0.063498,-0.014441999999999997,0.0,0.0,102.0,188.0,46.0,1.0
460,1.91256,-0.7748079999999999,0.145582,-0.069713,-0.086313,-0.050975,0.0,0.0,102.0,188.0,46.0,1.0
461,1.933329,-0.774216,0.170733,0.108511,-0.12876700000000002,-0.200749,0.0,0.0,102.0,188.0,46.0,1.0
462,1.9563580000000005,-0.774188,0.197837,0.156272,-0.12625999999999998,-0.22983,0.0,0.0,102.0,188.0,46.0,1.0
463,1.976088,-0.773179,0.222979,0.229234,-0.113285,-0.267006,0.0,0.0,102.0,188.0,46.0,1.0
464,1.98933,-0.7712319999999999,0.245133,0.380545,-0.175458,-0.379056,0.0,0.0,102.0,188.0,46.0,1.0
465,1.991564,-0.7689779999999999,0.261845,0.382054,-0.192975,-0.369625,0.0,0.0,102.0,188.0,46.0,1.0
466,1.982122,-0.7665069999999999,0.270894,0.392906,-0.219121,-0.32254,0.0,0.0,102.0,188.0,46.0,1.0
467,1.962739,-0.762351,0.274566,0.188424,-0.280818,-0.37817,0.0,0.0,102.0,188.0,46.0,1.0
468,1.927607,-0.756455,0.27325,0.159796,-0.256096,-0.34915100000000004,0.0,0.0,102.0,188.0,46.0,1.0
469,1.870639,-0.744904,0.26092600000000005,0.23855,0.035127,-0.009775,0.0,0.0,102.0,188.0,46.0,1.0
470,1.796118,-0.727313,0.232448,0.300208,0.192404,0.179289,0.0,0.0,102.0,188.0,46.0,1.0
471,1.704425,-0.708394,0.17995899999999998,0.33799999999999997,0.220189,0.004108,0.0,0.0,102.0,188.0,46.0,1.0
472,1.615509,-0.6885760000000001,0.125197,0.16905,0.384734,-0.033354,0.0,0.0,102.0,188.0,46.0,1.0
473,1.538901,-0.669844,0.094523,0.068012,0.540208,0.10873900000000003,0.0,0.0,102.0,188.0,46.0,1.0
474,1.469094,-0.656208,0.097855,0.053808,0.620047,0.279095,0.0,0.0,102.0,188.0,46.0,1.0
475,1.4092209999999998,-0.6410020000000001,0.122985,0.282123,0.188424,0.593005,0.0,0.0,102.0,188.0,46.0,1.0
476,1.368113,-0.6087560000000001,0.12953199999999998,0.314628,0.041525,0.229835,0.0,0.0,102.0,188.0,46.0,1.0
477,1.337375,-0.564897,0.14094,0.171945,0.119456,0.001326,0.0,0.0,102.0,188.0,46.0,1.0
478,1.294993,-0.52893,0.168353,0.048996,0.165312,0.081298,0.0,0.0,102.0,188.0,46.0,1.0
479,1.254982,-0.501955,0.195255,-0.15473,0.238357,0.148239,0.0,0.0,102.0,188.0,46.0,1.0
480,1.230821,-0.480997,0.224386,-0.24993,0.289229,0.17288499999999998,0.0,0.0,102.0,188.0,46.0,1.0
481,1.2145780000000002,-0.465617,0.258736,-0.397493,0.249787,0.236977,0.0,0.0,102.0,188.0,46.0,1.0
482,1.20116,-0.456124,0.296111,-0.382098,0.122593,0.30900700000000003,0.0,0.0,102.0,188.0,46.0,1.0
483,1.189084,-0.451333,0.331249,-0.440433,0.009192,0.34,0.0,0.0,102.0,188.0,46.0,1.0
484,1.181895,-0.451709,0.362623,-0.574569,-0.052837,0.327333,0.0,0.0,102.0,188.0,46.0,1.0
485,1.186345,-0.458807,0.391026,-0.680363,-0.07523400000000001,0.21625300000000006,0.0,0.0,102.0,188.0,46.0,1.0
486,1.205067,-0.474539,0.419256,-0.652345,-0.15868,0.15498199999999998,0.0,0.0,102.0,188.0,46.0,1.0
487,1.238619,-0.497403,0.447601,-0.605197,-0.248889,0.103115,0.0,0.0,102.0,188.0,46.0,1.0
488,1.2814370000000002,-0.524741,0.473488,-0.521582,-0.249875,0.077925,0.0,0.0,102.0,188.0,46.0,1.0
489,1.331779,-0.556025,0.496028,-0.4244560000000001,-0.249235,0.020115,0.0,0.0,102.0,188.0,46.0,1.0
490,1.385105,-0.590333,0.514699,-0.265235,-0.162442,-0.0087,0.0,0.0,102.0,188.0,46.0,1.0
491,1.424316,-0.625923,0.5290100000000001,0.06935,0.088379,-0.169708,0.0,0.0,102.0,188.0,46.0,1.0
492,1.440244,-0.6514310000000001,0.5434359999999999,0.328372,0.27029200000000003,-0.231453,0.0,0.0,102.0,188.0,46.0,1.0
493,1.435085,-0.658959,0.563767,0.4520520000000001,0.210185,-0.263851,0.0,0.0,102.0,188.0,46.0,1.0
494,1.433079,-0.657038,0.584391,0.013284,-0.049632,-0.279544,0.0,0.0,102.0,188.0,46.0,1.0
495,1.44644,-0.6483869999999999,0.592483,-0.157466,-0.121037,-0.179029,0.0,0.0,102.0,188.0,46.0,1.0
496,1.461472,-0.637178,0.588672,-0.29666,-0.044468,-0.031015,0.0,0.0,102.0,188.0,46.0,1.0
497,1.477533,-0.628367,0.588587,-0.296928,0.031911,-0.039407,0.0,0.0,102.0,188.0,46.0,1.0
498,1.504443,-0.622737,0.599441,-0.27523400000000003,0.08518099999999999,-0.093343,0.0,0.0,102.0,188.0,46.0,1.0
499,1.542401,-0.6186189999999999,0.617863,0.029887,0.16297899999999998,-0.13286099999999998,0.0,0.0,102.0,188.0,46.0,1.0
500,1.571673,-0.615164,0.6268100000000001,0.234606,0.4891,0.049745,0.0,0.0,102.0,188.0,46.0,1.0
501,1.583709,-0.609055,0.619529,0.179162,0.7714439999999999,0.274611,0.0,0.0,102.0,188.0,46.0,1.0
502,1.591133,-0.598168,0.608703,-0.015391,0.8266870000000001,0.198253,0.0,0.0,102.0,188.0,46.0,1.0
503,1.5907639999999998,-0.588055,0.596617,-0.041954000000000005,0.4548390000000001,0.033254,0.0,0.0,102.0,188.0,46.0,1.0
504,1.588043,-0.5816520000000001,0.585232,0.001696,0.271899,0.07885199999999999,0.0,0.0,102.0,188.0,46.0,1.0
505,1.579192,-0.577295,0.573202,0.051309,0.256563,-0.156052,0.0,0.0,102.0,188.0,46.0,1.0
506,1.57544,-0.577357,0.567244,0.211372,0.184184,0.16542,0.0,0.0,102.0,188.0,46.0,1.0
507,1.584465,-0.578168,0.570652,0.235886,0.15390299999999998,0.336316,0.0,0.0,102.0,188.0,46.0,1.0
508,1.602378,-0.577338,0.5767369999999999,0.184472,0.044994,0.213044,0.0,0.0,102.0,188.0,46.0,1.0
509,1.622976,-0.576331,0.586935,0.111434,0.008333,-0.072448,0.0,0.0,102.0,188.0,46.0,1.0
510,1.642121,-0.576494,0.606927,0.065059,-0.010222,-0.055001,0.0,0.0,102.0,188.0,46.0,1.0
511,1.6560150000000002,-0.5782149999999999,0.633005,0.011119,-0.048132,-0.002325,0.0,0.0,102.0,188.0,46.0,1.0
512,1.6676669999999998,-0.581689,0.6610699999999999,-0.161697,-0.092161,-0.044633,0.0,0.0,102.0,188.0,46.0,1.0
513,1.677932,-0.586871,0.6904779999999999,-0.13178199999999998,-0.07126,-0.158833,0.0,0.0,102.0,188.0,46.0,1.0
514,1.687545,-0.5925239999999999,0.71809,-0.08380499999999999,-0.06366000000000001,-0.15703699999999998,0.0,0.0,102.0,188.0,46.0,1.0
515,1.696653,-0.596379,0.740657,0.012147,-0.027059,-0.185444,0.0,0.0,102.0,188.0,46.0,1.0
516,1.704168,-0.596464,0.7542439999999999,-0.089068,-0.095473,-0.192749,0.0,0.0,102.0,188.0,46.0,1.0
517,1.706632,-0.592622,0.754303,-0.230636,-0.14092000000000002,-0.052268,0.0,0.0,102.0,188.0,46.0,1.0
518,1.701366,-0.584083,0.742161,-0.317931,-0.106473,-0.093508,0.0,0.0,102.0,188.0,46.0,1.0
519,1.680584,-0.571978,0.718121,-0.33407600000000004,-0.032277999999999994,-0.286326,0.0,0.0,102.0,188.0,46.0,1.0
520,1.641579,-0.559258,0.6897300000000001,-0.26406,0.035238,-0.5612,0.0,0.0,102.0,188.0,46.0,1.0
521,1.587222,-0.550999,0.66506,-0.109532,-0.03457,-0.23218000000000005,0.0,0.0,102.0,188.0,46.0,1.0
522,1.540685,-0.546438,0.644532,-0.042882,-0.085001,0.142406,0.0,0.0,102.0,188.0,46.0,1.0
523,1.503181,-0.541441,0.621005,-0.126737,-0.178702,0.283379,0.0,0.0,102.0,188.0,46.0,1.0
524,1.455666,-0.530122,0.604305,-0.118966,-0.16683199999999998,0.2699,0.0,0.0,102.0,188.0,46.0,1.0
525,1.389308,-0.5118149999999999,0.598983,-0.096491,-0.111403,0.199342,0.0,0.0,102.0,188.0,46.0,1.0
526,1.293072,-0.482879,0.581926,0.309774,0.329675,-0.16668,0.0,0.0,102.0,188.0,46.0,1.0
527,1.195606,-0.4440770000000001,0.565851,0.555087,0.783937,-0.026316000000000003,0.0,0.0,102.0,188.0,46.0,1.0
528,1.12112,-0.417805,0.580177,0.36856,0.7297279999999999,0.475791,0.0,0.0,102.0,188.0,46.0,1.0
529,1.069695,-0.404991,0.602964,-0.113677,0.352525,0.523745,0.0,0.0,102.0,188.0,46.0,1.0
530,1.034527,-0.395849,0.613628,-0.283411,0.27194,0.213747,0.0,0.0,102.0,188.0,46.0,1.0
531,1.0211709999999998,-0.391607,0.619751,-0.321187,0.324517,0.176029,0.0,0.0,102.0,188.0,46.0,1.0
532,1.0307309999999998,-0.395446,0.6327020000000001,-0.206508,0.26010500000000003,0.051902,0.0,0.0,102.0,188.0,46.0,1.0
533,1.060354,-0.410678,0.655432,-0.365011,0.09465,0.039004,0.0,0.0,102.0,188.0,46.0,1.0
534,1.113664,-0.428578,0.684424,-0.600117,-0.034154000000000004,-0.073075,0.0,0.0,102.0,188.0,46.0,1.0
535,1.180348,-0.4468180000000001,0.713672,-0.6732020000000001,-0.211945,-0.115212,0.0,0.0,102.0,188.0,46.0,1.0
536,1.2501870000000002,-0.462054,0.731754,-0.541329,-0.283983,-0.075918,0.0,0.0,102.0,188.0,46.0,1.0
537,1.33099,-0.482936,0.736498,-0.285448,-0.120982,-0.054419,0.0,0.0,102.0,188.0,46.0,1.0
538,1.423149,-0.5216189999999999,0.738004,-0.105475,0.095405,-0.189149,0.0,0.0,102.0,188.0,46.0,1.0
539,1.517067,-0.559515,0.748532,0.4532100000000001,1.1332870000000002,-0.466082,0.0,0.0,102.0,188.0,46.0,1.0
540,1.54819,-0.56784,0.767371,0.268769,0.8824139999999999,-0.602342,0.0,0.0,102.0,188.0,46.0,1.0
541,1.540239,-0.56944,0.7684770000000001,0.134966,-0.533362,-0.305293,0.0,0.0,102.0,188.0,46.0,1.0
542,1.545845,-0.563449,0.750703,-0.297242,-0.505083,0.00095,0.0,0.0,102.0,188.0,46.0,1.0
543,1.579484,-0.55452,0.73542,-0.325616,-0.317963,0.259842,0.0,0.0,102.0,188.0,46.0,1.0
544,1.622801,-0.552529,0.742109,-0.443524,0.609008,0.455754,0.0,0.0,102.0,188.0,46.0,1.0
545,1.652245,-0.548913,0.760474,-0.401335,0.746154,0.21192,0.0,0.0,102.0,188.0,46.0,1.0
546,1.6507189999999998,-0.5521149999999999,0.7751060000000001,-0.270147,0.573457,-0.314633,0.0,0.0,102.0,188.0,46.0,1.0
547,1.638107,-0.5573140000000001,0.77491,0.08692899999999999,0.27735,-0.272979,0.0,0.0,102.0,188.0,46.0,1.0
548,1.647777,-0.556925,0.7579239999999999,0.013798,0.023317,0.15481,0.0,0.0,102.0,188.0,46.0,1.0
549,1.66643,-0.548646,0.739046,-0.121428,-0.266741,0.346933,0.0,0.0,102.0,188.0,46.0,1.0
550,1.6761150000000002,-0.539257,0.719055,0.060635,-0.182169,0.13034400000000002,0.0,0.0,102.0,188.0,46.0,1.0
551,1.676997,-0.530401,0.695126,0.887754,0.51646,-0.233924,0.0,0.0,102.0,188.0,46.0,1.0
552,1.697226,-0.513911,0.684168,0.822417,0.201269,-0.061206,0.0,0.0,102.0,188.0,46.0,1.0
553,1.679188,-0.506387,0.681759,0.172347,-0.192815,-0.147903,0.0,0.0,102.0,188.0,46.0,1.0
554,1.655372,-0.504849,0.686156,-0.123752,-0.11253599999999997,-0.074501,0.0,0.0,102.0,188.0,46.0,1.0
555,1.650711,-0.5032479999999999,0.693284,-0.195643,-0.06075,0.108992,0.0,0.0,102.0,188.0,46.0,1.0
556,1.650904,-0.501687,0.6933060000000001,-0.07435399999999999,-0.001246,-0.058595,0.0,0.0,102.0,188.0,46.0,1.0
557,1.6481990000000002,-0.497867,0.690419,0.120182,0.051851,-0.316153,0.0,0.0,102.0,188.0,46.0,1.0
558,1.633049,-0.490259,0.684005,0.10485,0.061189,-0.429716,0.0,0.0,102.0,188.0,46.0,1.0
559,1.598683,-0.478687,0.674619,0.051298,0.003619,-0.440597,0.0,0.0,102.0,188.0,46.0,1.0
560,1.5455290000000002,-0.466235,0.659694,0.018365,0.029645,-0.178771,0.0,0.0,102.0,188.0,46.0,1.0
561,1.497662,-0.450003,0.638304,-0.233396,-0.085573,-0.037859,0.0,0.0,102.0,188.0,46.0,1.0
562,1.4457950000000002,-0.431631,0.610372,-0.448134,0.021665,0.071219,0.0,0.0,102.0,188.0,46.0,1.0
563,1.384916,-0.41312,0.597308,-0.390254,0.154043,0.182585,0.0,0.0,102.0,188.0,46.0,1.0
564,1.305006,-0.395097,0.5895060000000001,-0.13614,0.320852,0.106022,0.0,0.0,102.0,188.0,46.0,1.0
565,1.209288,-0.371414,0.577695,0.234996,0.432859,0.154994,0.0,0.0,102.0,188.0,46.0,1.0
566,1.133019,-0.357235,0.5761609999999999,0.412408,0.516556,0.31295,0.0,0.0,102.0,188.0,46.0,1.0
567,1.08626,-0.357749,0.585546,0.11962,0.23272,0.428709,0.0,0.0,102.0,188.0,46.0,1.0
568,1.055145,-0.355434,0.586202,0.0031,0.246104,0.321121,0.0,0.0,102.0,188.0,46.0,1.0
569,1.040969,-0.353937,0.585908,-0.07691,0.303324,0.306883,0.0,0.0,102.0,188.0,46.0,1.0
570,1.050185,-0.356199,0.594903,-0.213238,0.334803,0.045869,0.0,0.0,102.0,188.0,46.0,1.0
571,1.080366,-0.371795,0.614957,-0.33812600000000004,0.217828,-0.12546,0.0,0.0,102.0,188.0,46.0,1.0
572,1.122858,-0.394877,0.645504,-0.418389,0.010447,-0.099794,0.0,0.0,102.0,188.0,46.0,1.0
573,1.178849,-0.418625,0.6783899999999999,-0.459278,-0.099956,-0.070399,0.0,0.0,102.0,188.0,46.0,1.0
574,1.248448,-0.439551,0.7084560000000001,-0.5333359999999999,-0.220562,-0.055864,0.0,0.0,102.0,188.0,46.0,1.0
575,1.32862,-0.457341,0.730386,-0.454345,-0.18958,-0.10615,0.0,0.0,102.0,188.0,46.0,1.0
576,1.412064,-0.483779,0.742214,-0.179977,0.036337,-0.207363,0.0,0.0,102.0,188.0,46.0,1.0
577,1.492347,-0.520985,0.749836,0.045998,0.35308,-0.25408000000000003,0.0,0.0,102.0,188.0,46.0,1.0
578,1.5527,-0.54652,0.753987,0.197132,0.535443,-0.246305,0.0,0.0,102.0,188.0,46.0,1.0
579,1.569701,-0.551095,0.750969,0.323281,0.10383599999999997,-0.241117,0.0,0.0,102.0,188.0,46.0,1.0
580,1.578423,-0.548599,0.748791,0.178843,-0.113472,-0.11489,0.0,0.0,102.0,188.0,46.0,1.0
581,1.596802,-0.5413819999999999,0.743162,-0.17319,-0.04654,0.07969,0.0,0.0,102.0,188.0,46.0,1.0
582,1.624356,-0.535101,0.7383029999999999,-0.308645,0.261205,0.237091,0.0,0.0,102.0,188.0,46.0,1.0
583,1.6414369999999998,-0.531529,0.741182,-0.467244,0.535369,0.112236,0.0,0.0,102.0,188.0,46.0,1.0
584,1.650216,-0.526619,0.757253,-0.259598,0.356685,-0.32102800000000004,0.0,0.0,102.0,188.0,46.0,1.0
585,1.649841,-0.526748,0.770465,-0.01815,0.30809699999999995,-0.228644,0.0,0.0,102.0,188.0,46.0,1.0
586,1.643084,-0.528961,0.751885,0.218192,0.24457,-0.064765,0.0,0.0,102.0,188.0,46.0,1.0
587,1.646712,-0.5242760000000001,0.7269260000000001,0.20715,-0.106071,0.352923,0.0,0.0,102.0,188.0,46.0,1.0
588,1.664837,-0.5136609999999999,0.7081729999999999,0.049859,-0.115499,0.289233,0.0,0.0,102.0,188.0,46.0,1.0
589,1.681793,-0.504067,0.691438,0.180392,0.049709,0.094872,0.0,0.0,102.0,188.0,46.0,1.0
590,1.704454,-0.491525,0.685322,0.435285,-0.017854,-0.085288,0.0,0.0,102.0,188.0,46.0,1.0
591,1.70638,-0.4728520000000001,0.693198,0.238808,-0.171202,-0.07508,0.0,0.0,102.0,188.0,46.0,1.0
592,1.674816,-0.460499,0.695315,-0.190473,-0.102186,-0.211592,0.0,0.0,102.0,188.0,46.0,1.0
593,1.652377,-0.45063,0.704471,-0.410424,0.03395,-0.105994,0.0,0.0,102.0,188.0,46.0,1.0
594,1.632327,-0.448958,0.70607,-0.295816,0.16001300000000002,-0.26432100000000003,0.0,0.0,102.0,188.0,46.0,1.0
595,1.618591,-0.453098,0.70085,-0.044782,0.038672000000000005,-0.161547,0.0,0.0,102.0,188.0,46.0,1.0
596,1.609218,-0.456029,0.682709,0.023112,-0.107485,-0.026003,0.0,0.0,102.0,188.0,46.0,1.0
597,1.599255,-0.4523390000000001,0.656876,0.062958,-0.124861,-0.14449,0.0,0.0,102.0,188.0,46.0,1.0
598,1.581862,-0.445915,0.6282270000000001,0.124344,0.013997999999999998,-0.275715,0.0,0.0,102.0,188.0,46.0,1.0
599,1.557412,-0.4386930000000001,0.603651,0.038285,-0.042402,-0.115859,0.0,0.0,102.0,188.0,46.0,1.0
600,1.522117,-0.427554,0.5801890000000001,-0.12326,-0.112034,0.052535000000000005,0.0,0.0,102.0,188.0,46.0,1.0
601,1.459676,-0.414119,0.560671,-0.197224,0.088415,-0.090559,0.0,0.0,102.0,188.0,46.0,1.0
602,1.351995,-0.401594,0.544747,0.104588,0.365202,-0.308435,0.0,0.0,102.0,188.0,46.0,1.0
603,1.2500639999999998,-0.384906,0.5459510000000001,0.464974,0.557146,-0.072811,0.0,0.0,102.0,188.0,46.0,1.0
604,1.175216,-0.372407,0.565563,0.476676,0.5740069999999999,0.423612,0.0,0.0,102.0,188.0,46.0,1.0
605,1.121455,-0.37313,0.58835,-0.173624,0.193222,0.6220439999999999,0.0,0.0,102.0,188.0,46.0,1.0
606,1.07439,-0.379531,0.603554,-0.311906,0.07748200000000001,0.578973,0.0,0.0,102.0,188.0,46.0,1.0
607,1.05046,-0.385855,0.6091489999999999,-0.396358,0.215369,0.261995,0.0,0.0,102.0,188.0,46.0,1.0
608,1.059925,-0.399557,0.619971,-0.354741,0.242993,0.228715,0.0,0.0,102.0,188.0,46.0,1.0
609,1.093049,-0.420785,0.643011,-0.343695,0.129959,0.248423,0.0,0.0,102.0,188.0,46.0,1.0
610,1.144687,-0.442812,0.671037,-0.417162,0.085678,0.177329,0.0,0.0,102.0,188.0,46.0,1.0
611,1.209978,-0.461837,0.694863,-0.4480020000000001,0.056771,0.06840299999999999,0.0,0.0,102.0,188.0,46.0,1.0
612,1.289665,-0.48166,0.7137819999999999,-0.34765100000000004,0.06188,-0.062396000000000014,0.0,0.0,102.0,188.0,46.0,1.0
613,1.390364,-0.5111829999999999,0.734582,0.034692,0.294528,-0.252971,0.0,0.0,102.0,188.0,46.0,1.0
614,1.503545,-0.542826,0.762302,0.211235,0.412016,-0.513505,0.0,0.0,102.0,188.0,46.0,1.0
615,1.582239,-0.558623,0.786489,0.223298,0.348765,-0.607695,0.0,0.0,102.0,188.0,46.0,1.0
616,1.599999,-0.558854,0.805517,0.208468,-0.188418,-0.562476,0.0,0.0,102.0,188.0,46.0,1.0
617,1.612275,-0.5524939999999999,0.810188,-0.09925,-0.457597,-0.319508,0.0,0.0,102.0,188.0,46.0,1.0
618,1.638061,-0.538643,0.801434,-0.204014,-0.355165,-0.18584,0.0,0.0,102.0,188.0,46.0,1.0
619,1.6534349999999998,-0.528805,0.788438,-0.620703,-0.054673,0.08907000000000001,0.0,0.0,102.0,188.0,46.0,1.0
620,1.657732,-0.523534,0.777057,-0.550974,0.287212,0.05609,0.0,0.0,102.0,188.0,46.0,1.0
621,1.656981,-0.524422,0.773934,-0.272542,0.62415,-0.016115,0.0,0.0,102.0,188.0,46.0,1.0
622,1.656941,-0.525945,0.779032,-0.108255,0.5606979999999999,-0.029061,0.0,0.0,102.0,188.0,46.0,1.0
623,1.650975,-0.526686,0.7690899999999999,0.22507600000000005,0.485488,0.132589,0.0,0.0,102.0,188.0,46.0,1.0
624,1.654698,-0.52559,0.757347,0.377181,0.427979,0.432788,0.0,0.0,102.0,188.0,46.0,1.0
625,1.659984,-0.510579,0.74016,0.3444,-0.213857,0.229236,0.0,0.0,102.0,188.0,46.0,1.0
626,1.63867,-0.487078,0.705677,0.06523,-0.484723,-0.22907800000000006,0.0,0.0,102.0,188.0,46.0,1.0
627,1.624663,-0.467048,0.687695,-0.103932,-0.266873,-0.182901,0.0,0.0,102.0,188.0,46.0,1.0
628,1.637604,-0.460954,0.690902,0.196823,0.334922,0.241845,0.0,0.0,102.0,188.0,46.0,1.0
629,1.666116,-0.467613,0.713846,0.45456,0.6739229999999999,0.293277,0.0,0.0,102.0,188.0,46.0,1.0
630,1.678957,-0.464372,0.735661,0.620109,0.180343,0.026284,0.0,0.0,102.0,188.0,46.0,1.0
631,1.6542580000000002,-0.458542,0.7501869999999999,0.290962,-0.101302,-0.501328,0.0,0.0,102.0,188.0,46.0,1.0
632,1.629826,-0.454391,0.764088,-0.108756,0.108006,-0.168213,0.0,0.0,102.0,188.0,46.0,1.0
633,1.618746,-0.453333,0.768418,-0.435725,0.111596,-0.100341,0.0,0.0,102.0,188.0,46.0,1.0
634,1.608208,-0.455859,0.754795,-0.34658,0.014859,-0.279052,0.0,0.0,102.0,188.0,46.0,1.0
635,1.591493,-0.456828,0.731243,-0.086076,-0.04175,-0.305667,0.0,0.0,102.0,188.0,46.0,1.0
636,1.555945,-0.451019,0.703083,0.030104,-0.049027,-0.325227,0.0,0.0,102.0,188.0,46.0,1.0
637,1.4949940000000002,-0.4371640000000001,0.6764819999999999,0.059230999999999985,0.020262,-0.248196,0.0,0.0,102.0,188.0,46.0,1.0
638,1.408637,-0.420812,0.6623680000000001,-0.071056,0.093268,-0.153661,0.0,0.0,102.0,188.0,46.0,1.0
639,1.30347,-0.404745,0.650941,-0.031893,0.28028800000000004,0.037137,0.0,0.0,102.0,188.0,46.0,1.0
640,1.206394,-0.393295,0.6508189999999999,0.13486199999999998,0.491598,0.407886,0.0,0.0,102.0,188.0,46.0,1.0
641,1.135925,-0.394253,0.663239,-0.034065,0.444678,0.7121390000000001,0.0,0.0,102.0,188.0,46.0,1.0
642,1.08404,-0.401362,0.672933,-0.434754,0.148832,0.516312,0.0,0.0,102.0,188.0,46.0,1.0
643,1.050708,-0.407606,0.675443,-0.479374,0.128734,0.347982,0.0,0.0,102.0,188.0,46.0,1.0
644,1.047259,-0.4157770000000001,0.680091,-0.421238,0.114211,0.417832,0.0,0.0,102.0,188.0,46.0,1.0
645,1.071986,-0.426266,0.6870350000000001,-0.330257,-0.024451,0.491635,0.0,0.0,102.0,188.0,46.0,1.0
646,1.1163,-0.439373,0.695144,-0.25426,-0.008777,0.287708,0.0,0.0,102.0,188.0,46.0,1.0
647,1.178282,-0.458325,0.713245,-0.167812,0.078061,-0.052107000000000014,0.0,0.0,102.0,188.0,46.0,1.0
648,1.2611370000000002,-0.483995,0.746251,-0.110133,0.09477,-0.105496,0.0,0.0,102.0,188.0,46.0,1.0
649,1.3601450000000002,-0.518658,0.784728,-0.052504,0.12853699999999998,-0.164258,0.0,0.0,102.0,188.0,46.0,1.0
650,1.467084,-0.547216,0.8234440000000001,0.263344,0.323667,-0.7284390000000001,0.0,0.0,102.0,188.0,46.0,1.0
651,1.544448,-0.559138,0.8526819999999999,0.157937,0.266114,-0.638113,0.0,0.0,102.0,188.0,46.0,1.0
652,1.576615,-0.557872,0.8610909999999999,-0.070964,0.020071,-0.384941,0.0,0.0,102.0,188.0,46.0,1.0
653,1.599493,-0.546826,0.8602690000000001,-0.272925,-0.041296,-0.302325,0.0,0.0,102.0,188.0,46.0,1.0
654,1.632423,-0.531808,0.85913,-0.402339,0.011295,-0.279202,0.0,0.0,102.0,188.0,46.0,1.0
655,1.6553400000000005,-0.526172,0.8430620000000001,-0.32762,0.16351400000000002,0.079842,0.0,0.0,102.0,188.0,46.0,1.0
656,1.648147,-0.529142,0.807976,-0.454516,0.478178,0.195685,0.0,0.0,102.0,188.0,46.0,1.0
657,1.6385869999999998,-0.525997,0.796242,-0.303191,0.350144,-0.07227,0.0,0.0,102.0,188.0,46.0,1.0
658,1.627282,-0.526273,0.795251,0.015676,0.140966,-0.06763,0.0,0.0,102.0,188.0,46.0,1.0
659,1.603848,-0.530327,0.764243,0.31658600000000003,0.247435,0.4107020000000001,0.0,0.0,102.0,188.0,46.0,1.0
660,1.630034,-0.526409,0.759197,0.09094,0.114984,0.7400720000000001,0.0,0.0,102.0,188.0,46.0,1.0
661,1.6698380000000002,-0.514798,0.7728010000000001,0.35247,0.072262,0.19453,0.0,0.0,102.0,188.0,46.0,1.0
662,1.656407,-0.496348,0.744367,1.312614,0.423151,-0.6008680000000001,0.0,0.0,102.0,188.0,46.0,1.0
663,1.660527,-0.479059,0.738999,0.4154270000000001,-0.032264,-0.063273,0.0,0.0,102.0,188.0,46.0,1.0
664,1.633329,-0.468014,0.7532770000000001,-0.081335,-0.07925800000000001,-0.058686,0.0,0.0,102.0,188.0,46.0,1.0
665,1.593198,-0.459609,0.757826,-0.194677,0.14293499999999998,-0.30633,0.0,0.0,102.0,188.0,46.0,1.0
666,1.570692,-0.456738,0.75766,-0.158192,0.23015,-0.27920300000000003,0.0,0.0,102.0,188.0,46.0,1.0
667,1.555052,-0.462794,0.7491369999999999,0.015733,0.163139,-0.19241,0.0,0.0,102.0,188.0,46.0,1.0
668,1.542209,-0.467513,0.73234,0.176887,-0.007217,-0.110668,0.0,0.0,102.0,188.0,46.0,1.0
669,1.5249549999999998,-0.461636,0.710849,0.018427,-0.206065,-0.06032000000000001,0.0,0.0,102.0,188.0,46.0,1.0
670,1.487523,-0.446444,0.690203,-0.116728,-0.224287,-0.309252,0.0,0.0,102.0,188.0,46.0,1.0
671,1.426965,-0.428265,0.673149,-0.131724,-0.044749,-0.212886,0.0,0.0,102.0,188.0,46.0,1.0
672,1.350607,-0.4123600000000001,0.6630689999999999,-0.249252,0.04216,0.125781,0.0,0.0,102.0,188.0,46.0,1.0
673,1.264032,-0.401973,0.66085,-0.268487,0.178254,0.443616,0.0,0.0,102.0,188.0,46.0,1.0
674,1.187973,-0.394725,0.66804,-0.201665,0.221998,0.529433,0.0,0.0,102.0,188.0,46.0,1.0
675,1.136699,-0.390258,0.671658,-0.25859,0.256688,0.464133,0.0,0.0,102.0,188.0,46.0,1.0
676,1.109587,-0.396472,0.678906,-0.28994699999999995,0.248279,0.384265,0.0,0.0,102.0,188.0,46.0,1.0
677,1.102929,-0.407679,0.684199,-0.271318,0.10826600000000003,0.4704350000000001,0.0,0.0,102.0,188.0,46.0,1.0
678,1.121451,-0.4192010000000001,0.693624,-0.220492,0.111981,0.502112,0.0,0.0,102.0,188.0,46.0,1.0
679,1.153292,-0.4345890000000001,0.710913,-0.200195,0.08145,0.480123,0.0,0.0,102.0,188.0,46.0,1.0
680,1.193632,-0.454841,0.7386010000000001,-0.130447,0.15971,0.161577,0.0,0.0,102.0,188.0,46.0,1.0
681,1.248587,-0.480733,0.781043,-0.106897,0.156452,0.023767,0.0,0.0,102.0,188.0,46.0,1.0
682,1.329552,-0.51574,0.837146,0.216436,0.384141,-0.176396,0.0,0.0,102.0,188.0,46.0,1.0
683,1.432454,-0.5494100000000001,0.8960030000000001,0.238964,0.54381,-0.7747569999999999,0.0,0.0,102.0,188.0,46.0,1.0
684,1.512016,-0.564257,0.952072,0.08150700000000001,0.282671,-1.114514,0.0,0.0,102.0,188.0,46.0,1.0
685,1.542191,-0.565112,0.973906,-0.123404,-0.379855,-0.395371,0.0,0.0,102.0,188.0,46.0,1.0
686,1.560475,-0.550215,0.954288,-0.246349,-0.295591,-0.021567,0.0,0.0,102.0,188.0,46.0,1.0
687,1.598637,-0.529346,0.927585,-0.478999,0.051657000000000015,-0.003915999999999999,0.0,0.0,102.0,188.0,46.0,1.0
688,1.632379,-0.51949,0.923426,-0.524279,0.492149,0.041363,0.0,0.0,102.0,188.0,46.0,1.0
689,1.628057,-0.513997,0.920367,-0.441228,0.592308,0.088608,0.0,0.0,102.0,188.0,46.0,1.0
690,1.61867,-0.514789,0.919728,-0.331878,0.583591,0.035038,0.0,0.0,102.0,188.0,46.0,1.0
691,1.582296,-0.525695,0.915271,-0.10912,0.655275,-0.8325790000000001,0.0,0.0,102.0,188.0,46.0,1.0
692,1.528275,-0.539475,0.8705430000000001,0.698812,0.206865,-0.180417,0.0,0.0,102.0,188.0,46.0,1.0
693,1.536966,-0.544285,0.827125,0.609164,0.220581,0.718847,0.0,0.0,102.0,188.0,46.0,1.0
694,1.591917,-0.538748,0.846617,0.125391,0.091598,0.8885799999999999,0.0,0.0,102.0,188.0,46.0,1.0
695,1.619445,-0.528798,0.864034,0.045994,-0.201365,0.364613,0.0,0.0,102.0,188.0,46.0,1.0
696,1.586261,-0.514768,0.819376,0.7340369999999999,-0.081581,-0.1084,0.0,0.0,102.0,188.0,46.0,1.0
697,1.605466,-0.509412,0.829995,0.147269,0.126838,-0.301441,0.0,0.0,102.0,188.0,46.0,1.0
698,1.607446,-0.509043,0.869577,-0.058980999999999985,-0.120734,0.174898,0.0,0.0,102.0,188.0,46.0,1.0
699,1.588539,-0.511684,0.888101,-0.078815,0.011376,-0.287777,0.0,0.0,102.0,188.0,46.0,1.0
700,1.582965,-0.5166890000000001,0.902677,-0.053432000000000014,0.138061,-0.216238,0.0,0.0,102.0,188.0,46.0,1.0
701,1.581479,-0.522309,0.906403,0.06590599999999999,0.019916,-0.223568,0.0,0.0,102.0,188.0,46.0,1.0
702,1.578309,-0.523342,0.8984040000000001,0.154394,-0.202399,-0.228675,0.0,0.0,102.0,188.0,46.0,1.0
703,1.5599610000000002,-0.515822,0.882099,0.13330699999999998,-0.374857,-0.422612,0.0,0.0,102.0,188.0,46.0,1.0
704,1.520515,-0.502378,0.866553,0.07356599999999999,-0.326604,-0.379625,0.0,0.0,102.0,188.0,46.0,1.0
705,1.463704,-0.488528,0.85885,-0.13681600000000002,-0.126904,-0.011755,0.0,0.0,102.0,188.0,46.0,1.0
706,1.400256,-0.475554,0.8607809999999999,-0.381651,-0.0044,0.298466,0.0,0.0,102.0,188.0,46.0,1.0
707,1.337669,-0.464758,0.870901,-0.380719,0.182394,0.485371,0.0,0.0,102.0,188.0,46.0,1.0
708,1.281182,-0.460674,0.8847659999999999,-0.345418,0.270521,0.535856,0.0,0.0,102.0,188.0,46.0,1.0
709,1.227769,-0.459328,0.8952979999999999,-0.18228,0.465543,0.421168,0.0,0.0,102.0,188.0,46.0,1.0
710,1.178918,-0.458434,0.903159,-0.032182,0.538458,0.222983,0.0,0.0,102.0,188.0,46.0,1.0
711,1.143299,-0.459914,0.914861,0.052365,0.38752,0.102349,0.0,0.0,102.0,188.0,46.0,1.0
712,1.131795,-0.460099,0.938661,0.02007,0.121148,0.307136,0.0,0.0,102.0,188.0,46.0,1.0
713,1.1316959999999998,-0.463027,0.959984,-0.13308499999999998,-0.132053,0.473334,0.0,0.0,102.0,188.0,46.0,1.0
714,1.137781,-0.470528,0.975832,-0.283169,-0.141971,0.368135,0.0,0.0,102.0,188.0,46.0,1.0
715,1.158526,-0.484832,0.996914,-0.397293,0.089055,0.236226,0.0,0.0,102.0,188.0,46.0,1.0
716,1.187727,-0.509092,1.024814,-0.33179699999999995,0.28561,0.14389100000000002,0.0,0.0,102.0,188.0,46.0,1.0
717,1.236151,-0.547141,1.0647879999999998,0.005843999999999999,0.598863,-0.239624,0.0,0.0,102.0,188.0,46.0,1.0
718,1.317042,-0.593118,1.136252,0.417322,0.755336,-0.631971,0.0,0.0,102.0,188.0,46.0,1.0
719,1.389035,-0.62236,1.2154280000000002,0.358732,0.332359,-0.750728,0.0,0.0,102.0,188.0,46.0,1.0
720,1.396853,-0.635497,1.2548549999999998,0.229401,-0.127773,-0.8124560000000001,0.0,0.0,102.0,188.0,46.0,1.0
721,1.36899,-0.636319,1.25409,0.01991,-0.426286,-0.635893,0.0,0.0,102.0,188.0,46.0,1.0
722,1.363627,-0.619554,1.2355040000000002,-0.17139300000000002,-0.497344,-0.182088,0.0,0.0,102.0,188.0,46.0,1.0
723,1.383234,-0.59563,1.208828,-0.4366600000000001,-0.413783,0.14463399999999998,0.0,0.0,102.0,188.0,46.0,1.0
724,1.391408,-0.5812579999999999,1.184107,-0.4034,-0.050007,0.295106,0.0,0.0,102.0,188.0,46.0,1.0
725,1.379972,-0.581198,1.16237,-0.19893,0.746293,0.378817,0.0,0.0,102.0,188.0,46.0,1.0
726,1.377753,-0.57796,1.163094,-0.182998,1.075144,0.5391199999999999,0.0,0.0,102.0,188.0,46.0,1.0
727,1.382676,-0.568117,1.177159,-0.38435,0.360178,0.560895,0.0,0.0,102.0,188.0,46.0,1.0
728,1.358899,-0.563441,1.172928,-0.439779,0.080999,0.432963,0.0,0.0,102.0,188.0,46.0,1.0
729,1.361315,-0.561412,1.165548,0.286045,0.275937,0.520668,0.0,0.0,102.0,188.0,46.0,1.0
730,1.376388,-0.547497,1.15384,1.046913,0.446413,0.196549,0.0,0.0,102.0,188.0,46.0,1.0
731,1.3928459999999998,-0.512284,1.12856,1.351579,-0.06069500000000001,-0.26078,0.0,0.0,102.0,188.0,46.0,1.0
732,1.4196540000000002,-0.5008670000000001,1.138078,0.87113,-0.147285,-0.106697,0.0,0.0,102.0,188.0,46.0,1.0
733,1.443141,-0.503953,1.17763,0.043921,0.192325,0.427308,0.0,0.0,102.0,188.0,46.0,1.0
734,1.4536440000000002,-0.513351,1.221936,0.155909,0.304494,0.196468,0.0,0.0,102.0,188.0,46.0,1.0
735,1.46071,-0.528312,1.266617,0.094358,0.315961,0.014181,0.0,0.0,102.0,188.0,46.0,1.0
736,1.473546,-0.546034,1.3102280000000002,0.052768,0.276245,0.032685000000000006,0.0,0.0,102.0,188.0,46.0,1.0
737,1.489794,-0.565492,1.349086,0.037288,0.093502,0.16074000000000002,0.0,0.0,102.0,188.0,46.0,1.0
738,1.512604,-0.584757,1.383427,0.089883,0.052816,0.093113,0.0,0.0,102.0,188.0,46.0,1.0
739,1.543381,-0.6004430000000001,1.412156,0.128838,0.010004,-0.05035,0.0,0.0,102.0,188.0,46.0,1.0
740,1.5723200000000002,-0.613585,1.439067,0.093453,-0.178722,-0.212306,0.0,0.0,102.0,188.0,46.0,1.0
741,1.592474,-0.6259859999999999,1.471248,0.057679,-0.250676,-0.161395,0.0,0.0,102.0,188.0,46.0,1.0
742,1.605776,-0.6364029999999999,1.510081,0.019999,-0.32100700000000004,-0.105625,0.0,0.0,102.0,188.0,46.0,1.0
743,1.616306,-0.643103,1.548122,-0.003329,-0.395748,0.008745000000000001,0.0,0.0,102.0,188.0,46.0,1.0
744,1.62271,-0.647,1.577278,0.032082,-0.39375,-0.194937,0.0,0.0,102.0,188.0,46.0,1.0
745,1.615572,-0.649856,1.597821,0.084739,-0.331909,-0.261177,0.0,0.0,102.0,188.0,46.0,1.0
746,1.5919020000000002,-0.650071,1.609605,0.19402,-0.123676,-0.218064,0.0,0.0,102.0,188.0,46.0,1.0
747,1.549109,-0.646934,1.609966,0.280362,0.063593,-0.095367,0.0,0.0,102.0,188.0,46.0,1.0
748,1.488322,-0.641845,1.5974469999999998,0.364129,0.273899,0.244056,0.0,0.0,102.0,188.0,46.0,1.0
749,1.425117,-0.633505,1.584886,0.27220500000000003,0.264441,0.524361,0.0,0.0,102.0,188.0,46.0,1.0
750,1.37044,-0.622089,1.585464,0.242382,0.181029,0.659614,0.0,0.0,102.0,188.0,46.0,1.0
751,1.322857,-0.609401,1.594175,0.28327,0.149135,0.609206,0.0,0.0,102.0,188.0,46.0,1.0
752,1.280375,-0.596004,1.605013,0.288904,0.049088,0.516021,0.0,0.0,102.0,188.0,46.0,1.0
753,1.248065,-0.582778,1.623293,0.329766,-0.009483,0.443182,0.0,0.0,102.0,188.0,46.0,1.0
754,1.228301,-0.564307,1.6543,0.459106,-0.100809,0.5017119999999999,0.0,0.0,102.0,188.0,46.0,1.0
755,1.214037,-0.538954,1.688222,0.30105,-0.029291,0.4208270000000001,0.0,0.0,102.0,188.0,46.0,1.0
756,1.1964629999999998,-0.511419,1.720234,0.15728599999999998,0.029704,0.289875,0.0,0.0,102.0,188.0,46.0,1.0
757,1.164275,-0.488673,1.7631689999999998,-0.055366999999999986,0.233915,0.1492,0.0,0.0,102.0,188.0,46.0,1.0
758,1.12605,-0.474521,1.825131,-0.062364,0.257489,0.323963,0.0,0.0,102.0,188.0,46.0,1.0
759,1.100081,-0.474531,1.895318,-0.184217,0.252597,0.501221,0.0,0.0,102.0,188.0,46.0,1.0
760,1.069531,-0.4728189999999999,1.958564,-0.312331,0.113206,0.532994,0.0,0.0,102.0,188.0,46.0,1.0
761,1.046125,-0.474836,2.015755,-0.263176,0.086844,0.495787,0.0,0.0,102.0,188.0,46.0,1.0
762,1.033941,-0.481531,2.066098,-0.223153,0.13639600000000002,0.422975,0.0,0.0,102.0,188.0,46.0,1.0
763,1.034612,-0.493474,2.112126,-0.222325,0.149313,0.34406,0.0,0.0,102.0,188.0,46.0,1.0
764,1.046814,-0.511315,2.155223,-0.211882,0.171595,0.277649,0.0,0.0,102.0,188.0,46.0,1.0
765,1.067776,-0.5351239999999999,2.194816,-0.182454,0.159379,0.163294,0.0,0.0,102.0,188.0,46.0,1.0
766,1.097371,-0.5647449999999999,2.230552,-0.12506,0.028245,0.111171,0.0,0.0,102.0,188.0,46.0,1.0
767,1.132609,-0.5981770000000001,2.261672,0.020172,-0.139415,0.066949,0.0,0.0,102.0,188.0,46.0,1.0
768,1.167527,-0.631596,2.286455,0.16836099999999998,-0.190256,-0.120899,0.0,0.0,102.0,188.0,46.0,1.0
769,1.194766,-0.6606449999999999,2.308722,0.220727,-0.274118,-0.32405,0.0,0.0,102.0,188.0,46.0,1.0
770,1.202349,-0.6775220000000001,2.328579,0.4168520000000001,-0.364611,-0.42112,0.0,0.0,102.0,188.0,46.0,1.0
771,1.191167,-0.678138,2.342751,0.302704,-0.527674,0.047464,0.0,0.0,102.0,188.0,46.0,1.0
772,1.182692,-0.664574,2.344015,0.615847,0.046957,0.464705,0.0,0.0,102.0,188.0,46.0,1.0
773,1.17897,-0.648343,2.329356,0.823794,0.805741,0.73638,0.0,0.0,102.0,188.0,46.0,1.0
774,1.18514,-0.631316,2.328533,-0.013188,0.296602,0.6645770000000001,0.0,0.0,102.0,188.0,46.0,1.0
775,1.199987,-0.610812,2.356437,-0.254259,-0.110017,0.6633020000000001,0.0,0.0,102.0,188.0,46.0,1.0
776,1.24475,-0.6055590000000001,2.401789,-0.477614,-0.033532,0.388102,0.0,0.0,102.0,188.0,46.0,1.0
777,1.270791,-0.613347,2.430193,-0.425138,0.035904000000000005,0.158621,0.0,0.0,102.0,188.0,46.0,1.0
778,1.269427,-0.6351899999999999,2.443408,-0.094547,0.246788,0.274853,0.0,0.0,102.0,188.0,46.0,1.0
779,1.280872,-0.665568,2.474815,0.13961700000000002,0.26703000000000005,0.619608,0.0,0.0,102.0,188.0,46.0,1.0
780,1.307273,-0.6955399999999999,2.522113,0.353231,0.095772,0.6559229999999999,0.0,0.0,102.0,188.0,46.0,1.0
781,1.329805,-0.7165090000000001,2.577264,0.461857,-0.162676,0.463792,0.0,0.0,102.0,188.0,46.0,1.0
782,1.350697,-0.7287600000000001,2.631119,0.17061600000000002,-0.155737,0.11145,0.0,0.0,102.0,188.0,46.0,1.0
783,1.376675,-0.736305,2.673469,0.097303,-0.083878,-0.019329,0.0,0.0,102.0,188.0,46.0,1.0
784,1.401589,-0.743853,2.718323,0.030565,-0.062718,-0.06615800000000001,0.0,0.0,102.0,188.0,46.0,1.0
785,1.421686,-0.755286,2.769341,-0.199565,-0.151897,0.339622,0.0,0.0,102.0,188.0,46.0,1.0
786,1.440693,-0.767496,2.821718,-0.220695,-0.193939,0.419262,0.0,0.0,102.0,188.0,46.0,1.0
787,1.46626,-0.777266,2.872555,-0.189014,-0.206491,0.481165,0.0,0.0,102.0,188.0,46.0,1.0
788,1.498615,-0.7865300000000001,2.9194150000000003,-0.03694,-0.050879,0.074238,0.0,0.0,102.0,188.0,46.0,1.0
789,1.529624,-0.796327,2.961936,0.037187,-0.086863,-0.059914,0.0,0.0,102.0,188.0,46.0,1.0
790,1.56037,-0.8050229999999999,2.998742,0.088483,-0.136588,-0.12856199999999998,0.0,0.0,102.0,188.0,46.0,1.0
791,1.588081,-0.8121550000000001,3.030358,0.26665,-0.296862,0.009808,0.0,0.0,102.0,188.0,46.0,1.0
792,1.609931,-0.818804,3.059974,0.345885,-0.297025,0.044258,0.0,0.0,102.0,188.0,46.0,1.0
793,1.623784,-0.823902,3.088638,0.439083,-0.284355,0.066497,0.0,0.0,102.0,188.0,46.0,1.0
794,1.629234,-0.824931,3.108012,0.291637,-0.28336,-0.026908,0.0,0.0,102.0,188.0,46.0,1.0
795,1.620552,-0.821717,3.115564,0.209648,-0.29541100000000003,-0.105523,0.0,0.0,102.0,188.0,46.0,1.0
796,1.598409,-0.816297,3.120529,0.15429600000000002,-0.308601,-0.20798200000000006,0.0,0.0,102.0,188.0,46.0,1.0
797,1.555927,-0.807629,3.119046,0.214502,-0.238001,-0.146751,0.0,0.0,102.0,188.0,46.0,1.0
798,1.487344,-0.791676,3.103141,0.339602,-0.081298,0.024482,0.0,0.0,102.0,188.0,46.0,1.0
799,1.403023,-0.766636,3.071875,0.466134,0.088449,0.008563,0.0,0.0,102.0,188.0,46.0,1.0
800,1.307197,-0.735751,3.02621,0.384316,0.232451,0.162717,0.0,0.0,102.0,188.0,46.0,1.0
801,1.2158,-0.706537,2.989873,0.318413,0.358868,0.324911,0.0,0.0,102.0,188.0,46.0,1.0
802,1.134405,-0.689484,2.9932380000000003,0.372055,0.447983,0.704098,0.0,0.0,102.0,188.0,46.0,1.0
803,1.067034,-0.685384,3.037294,0.598594,0.06968099999999999,0.844676,0.0,0.0,102.0,188.0,46.0,1.0
804,1.032813,-0.666235,3.081891,0.697072,-0.084827,0.767271,0.0,0.0,102.0,188.0,46.0,1.0
805,1.030109,-0.622892,3.122778,0.462962,-0.14518499999999998,0.193478,0.0,0.0,102.0,188.0,46.0,1.0
806,1.018658,-0.582544,-3.122954,0.156361,0.0053,0.070965,0.0,0.0,102.0,188.0,46.0,1.0
807,0.98232,-0.561121,-3.084362,0.018034,0.144577,0.208608,0.0,0.0,102.0,188.0,46.0,1.0
808,0.951371,-0.5552010000000001,-3.043529,-0.254734,0.13971,0.399063,0.0,0.0,102.0,188.0,46.0,1.0
809,0.935468,-0.551938,-3.001624,-0.308118,0.061004,0.348827,0.0,0.0,102.0,188.0,46.0,1.0
810,0.932113,-0.552802,-2.956554,-0.2474,-0.094059,0.363122,0.0,0.0,102.0,188.0,46.0,1.0
811,0.938886,-0.558888,-2.913407,-0.247222,-0.19629,0.418201,0.0,0.0,102.0,188.0,46.0,1.0
812,0.949921,-0.568557,-2.875263,-0.342758,-0.26298,0.396751,0.0,0.0,102.0,188.0,46.0,1.0
813,0.963402,-0.583287,-2.842229,-0.4116260000000001,-0.293584,0.382216,0.0,0.0,102.0,188.0,46.0,1.0
814,0.98518,-0.603144,-2.8136330000000003,-0.450229,-0.341588,0.317205,0.0,0.0,102.0,188.0,46.0,1.0
815,1.016632,-0.6264109999999999,-2.788712,-0.439121,-0.372817,0.277318,0.0,0.0,102.0,188.0,46.0,1.0
816,1.05958,-0.6535270000000001,-2.765316,-0.423487,-0.39362,0.149018,0.0,0.0,102.0,188.0,46.0,1.0
817,1.114511,-0.684113,-2.74271,-0.288424,-0.400388,0.069588,0.0,0.0,102.0,188.0,46.0,1.0
818,1.174844,-0.719092,-2.725524,-0.048286,-0.381526,-0.023909,0.0,0.0,102.0,188.0,46.0,1.0
819,1.222251,-0.756142,-2.719298,0.284715,-0.228097,-0.043303,0.0,0.0,102.0,188.0,46.0,1.0
820,1.2458870000000002,-0.783151,-2.722082,0.424515,-0.057948,0.015203,0.0,0.0,102.0,188.0,46.0,1.0
821,1.255205,-0.789712,-2.724606,0.297854,-0.168738,-0.103774,0.0,0.0,102.0,188.0,46.0,1.0
822,1.26841,-0.786628,-2.712487,0.14010699999999998,-0.28472800000000004,-0.113735,0.0,0.0,102.0,188.0,46.0,1.0
823,1.303481,-0.780227,-2.6889990000000004,-0.008158,-0.38322,-0.087527,0.0,0.0,102.0,188.0,46.0,1.0
824,1.3410879999999998,-0.770404,-2.676537,-0.115695,-0.276366,0.063912,0.0,0.0,102.0,188.0,46.0,1.0
825,1.363082,-0.760677,-2.675223,-0.085142,-0.173421,0.050917,0.0,0.0,102.0,188.0,46.0,1.0
826,1.387969,-0.756358,-2.664695,0.05265,0.16658299999999998,0.07187400000000001,0.0,0.0,102.0,188.0,46.0,1.0
827,1.423743,-0.760182,-2.642065,0.082992,0.433093,0.502367,0.0,0.0,102.0,188.0,46.0,1.0
828,1.458321,-0.76471,-2.617177,0.056017,0.477274,0.607402,0.0,0.0,102.0,188.0,46.0,1.0
829,1.474785,-0.762818,-2.599221,0.06627999999999999,0.513796,0.604471,0.0,0.0,102.0,188.0,46.0,1.0
830,1.46689,-0.761758,-2.587723,0.450765,0.226157,-0.25952600000000003,0.0,0.0,102.0,188.0,46.0,1.0
831,1.444343,-0.758529,-2.59469,0.377466,-0.09914,-0.085354,0.0,0.0,102.0,188.0,46.0,1.0
832,1.432282,-0.744745,-2.623535,0.322181,-0.300541,0.027712,0.0,0.0,102.0,188.0,46.0,1.0
833,1.432458,-0.725643,-2.650655,0.591075,-0.121426,0.310601,0.0,0.0,102.0,188.0,46.0,1.0
834,1.439813,-0.707025,-2.664986,0.578216,-0.107384,0.306745,0.0,0.0,102.0,188.0,46.0,1.0
835,1.450374,-0.693149,-2.659385,0.12276199999999997,-0.308595,0.152087,0.0,0.0,102.0,188.0,46.0,1.0
836,1.457408,-0.687551,-2.63997,-0.061403999999999986,-0.209765,0.139472,0.0,0.0,102.0,188.0,46.0,1.0
837,1.459323,-0.690555,-2.61398,-0.078348,-0.169009,0.173983,0.0,0.0,102.0,188.0,46.0,1.0
838,1.4590040000000002,-0.6998260000000001,-2.588419,-0.07477,-0.134411,0.17795899999999998,0.0,0.0,102.0,188.0,46.0,1.0
839,1.463158,-0.713142,-2.563635,0.117467,-0.124794,0.091444,0.0,0.0,102.0,188.0,46.0,1.0
840,1.469084,-0.724978,-2.544337,0.424437,-0.105914,0.063093,0.0,0.0,102.0,188.0,46.0,1.0
841,1.470053,-0.72911,-2.529677,0.424365,-0.272728,-0.121819,0.0,0.0,102.0,188.0,46.0,1.0
842,1.458351,-0.726902,-2.520519,0.191015,-0.221519,-0.233186,0.0,0.0,102.0,188.0,46.0,1.0
843,1.439176,-0.724146,-2.519162,0.009855,-0.138525,0.001567,0.0,0.0,102.0,188.0,46.0,1.0
844,1.422007,-0.721533,-2.5253490000000003,-0.072043,-0.214919,-0.02838,0.0,0.0,102.0,188.0,46.0,1.0
845,1.404205,-0.719934,-2.537269,0.012786,-0.303958,-0.13051500000000002,0.0,0.0,102.0,188.0,46.0,1.0
846,1.37173,-0.716011,-2.558297,0.12021,-0.360115,-0.08744199999999999,0.0,0.0,102.0,188.0,46.0,1.0
847,1.321519,-0.705208,-2.583112,0.067678,-0.313277,0.060006,0.0,0.0,102.0,188.0,46.0,1.0
848,1.25469,-0.69071,-2.591591,0.112993,-0.210602,0.07366,0.0,0.0,102.0,188.0,46.0,1.0
849,1.160785,-0.672912,-2.595817,0.346816,0.029429000000000007,0.034793,0.0,0.0,102.0,188.0,46.0,1.0
850,1.072016,-0.650188,-2.589372,0.456645,0.301722,0.412982,0.0,0.0,102.0,188.0,46.0,1.0
851,1.012969,-0.639886,-2.555453,0.417659,0.271243,0.683563,0.0,0.0,102.0,188.0,46.0,1.0
852,0.972736,-0.639075,-2.523425,-0.025209,0.050947000000000006,0.661076,0.0,0.0,102.0,188.0,46.0,1.0
853,0.931074,-0.634575,-2.510527,-0.16481800000000002,0.102569,0.314634,0.0,0.0,102.0,188.0,46.0,1.0
854,0.916295,-0.6367079999999999,-2.49768,-0.207587,0.045005,0.466105,0.0,0.0,102.0,188.0,46.0,1.0
855,0.932847,-0.640896,-2.48361,-0.402118,-0.09654,0.429441,0.0,0.0,102.0,188.0,46.0,1.0
856,0.976829,-0.6465270000000001,-2.467688,-0.323278,-0.064439,0.190052,0.0,0.0,102.0,188.0,46.0,1.0
857,1.042857,-0.661084,-2.445128,-0.149998,-0.045903,0.092833,0.0,0.0,102.0,188.0,46.0,1.0
858,1.128967,-0.68488,-2.414474,-0.024492,-0.116848,0.029961,0.0,0.0,102.0,188.0,46.0,1.0
859,1.231544,-0.715086,-2.381333,0.034426,-0.257351,-0.161518,0.0,0.0,102.0,188.0,46.0,1.0
860,1.336808,-0.746375,-2.353845,0.17466099999999998,-0.185238,-0.231116,0.0,0.0,102.0,188.0,46.0,1.0
861,1.434874,-0.7715770000000001,-2.334351,0.162389,-0.055848,-0.244666,0.0,0.0,102.0,188.0,46.0,1.0
862,1.501133,-0.7823180000000001,-2.321603,0.173192,0.01001,-0.353247,0.0,0.0,102.0,188.0,46.0,1.0
863,1.522293,-0.7823939999999999,-2.308848,0.201274,-0.185585,-0.563178,0.0,0.0,102.0,188.0,46.0,1.0
864,1.530803,-0.778748,-2.301976,-0.117642,-0.310711,-0.246656,0.0,0.0,102.0,188.0,46.0,1.0
865,1.537518,-0.766451,-2.32192,-0.145606,-0.152659,0.032269,0.0,0.0,102.0,188.0,46.0,1.0
866,1.533087,-0.758238,-2.36403,-0.107109,0.174905,0.16003199999999998,0.0,0.0,102.0,188.0,46.0,1.0
867,1.518825,-0.758378,-2.401132,-0.02908,0.435973,0.316353,0.0,0.0,102.0,188.0,46.0,1.0
868,1.5227700000000002,-0.759706,-2.407118,0.097102,0.34863,0.48688,0.0,0.0,102.0,188.0,46.0,1.0
869,1.537942,-0.760851,-2.397834,0.266803,0.228537,0.418795,0.0,0.0,102.0,188.0,46.0,1.0
870,1.561724,-0.761702,-2.387061,0.625229,-0.045912,0.118672,0.0,0.0,102.0,188.0,46.0,1.0
871,1.566432,-0.754043,-2.405212,1.362267,0.154687,-0.544091,0.0,0.0,102.0,188.0,46.0,1.0
872,1.553586,-0.73514,-2.454075,0.662624,-0.258185,0.116021,0.0,0.0,102.0,188.0,46.0,1.0
873,1.548377,-0.713094,-2.468786,0.019529,-0.289919,0.192935,0.0,0.0,102.0,188.0,46.0,1.0
874,1.532613,-0.703191,-2.460478,-0.0817,-0.038134,0.288213,0.0,0.0,102.0,188.0,46.0,1.0
875,1.546633,-0.701311,-2.434543,0.006063000000000001,-0.314883,-0.104878,0.0,0.0,102.0,188.0,46.0,1.0
876,1.556432,-0.700599,-2.423206,0.146725,-0.369407,-0.28095,0.0,0.0,102.0,188.0,46.0,1.0
877,1.554268,-0.6994630000000001,-2.426226,0.135231,-0.289559,-0.117328,0.0,0.0,102.0,188.0,46.0,1.0
878,1.550846,-0.698261,-2.432328,0.050673,-0.120715,0.088537,0.0,0.0,102.0,188.0,46.0,1.0
879,1.545745,-0.696112,-2.446799,0.021779,-0.15243900000000002,0.017527,0.0,0.0,102.0,188.0,46.0,1.0
880,1.53509,-0.6922590000000001,-2.468881,0.004244,-0.206332,-0.061676,0.0,0.0,102.0,188.0,46.0,1.0
881,1.512525,-0.687962,-2.491577,0.248117,-0.326523,-0.08759199999999999,0.0,0.0,102.0,188.0,46.0,1.0
882,1.480577,-0.6841109999999999,-2.511588,0.247519,-0.323543,-0.06276,0.0,0.0,102.0,188.0,46.0,1.0
883,1.441927,-0.6773239999999999,-2.528833,0.185827,-0.384736,-0.016021,0.0,0.0,102.0,188.0,46.0,1.0
884,1.39215,-0.665194,-2.542434,-0.173629,-0.186669,-0.025365,0.0,0.0,102.0,188.0,46.0,1.0
885,1.317738,-0.651014,-2.544969,-0.119592,-0.058508,-0.099456,0.0,0.0,102.0,188.0,46.0,1.0
886,1.204978,-0.6386149999999999,-2.553951,-0.004433,0.07194600000000001,-0.039536,0.0,0.0,102.0,188.0,46.0,1.0
887,1.098598,-0.6275310000000001,-2.554734,0.438357,0.41009,0.377389,0.0,0.0,102.0,188.0,46.0,1.0
888,1.027532,-0.62153,-2.535705,0.413878,0.318187,0.5256529999999999,0.0,0.0,102.0,188.0,46.0,1.0
889,0.979546,-0.622119,-2.516513,0.300342,0.220724,0.52354,0.0,0.0,102.0,188.0,46.0,1.0
890,0.943876,-0.6223420000000001,-2.511943,-0.119126,0.096717,0.470821,0.0,0.0,102.0,188.0,46.0,1.0
891,0.928624,-0.621686,-2.515544,-0.085551,0.159948,0.48927,0.0,0.0,102.0,188.0,46.0,1.0
892,0.944669,-0.622092,-2.517533,-0.158548,0.09988,0.29146,0.0,0.0,102.0,188.0,46.0,1.0
893,0.977026,-0.631739,-2.508189,-0.156101,-0.032764,0.245088,0.0,0.0,102.0,188.0,46.0,1.0
894,1.018084,-0.651297,-2.490721,-0.207475,-0.192171,0.116901,0.0,0.0,102.0,188.0,46.0,1.0
895,1.073338,-0.675513,-2.464932,-0.269268,-0.38337,0.029072000000000008,0.0,0.0,102.0,188.0,46.0,1.0
896,1.143923,-0.700114,-2.434981,-0.278906,-0.503664,-0.069763,0.0,0.0,102.0,188.0,46.0,1.0
897,1.228921,-0.725791,-2.4117610000000003,-0.172965,-0.483811,-0.08072,0.0,0.0,102.0,188.0,46.0,1.0
898,1.324551,-0.756767,-2.401019,0.451718,0.257715,-0.337235,0.0,0.0,102.0,188.0,46.0,1.0
899,1.424341,-0.788039,-2.393307,0.392996,0.514951,-0.368366,0.0,0.0,102.0,188.0,46.0,1.0
900,1.482085,-0.797188,-2.38184,0.439937,0.351668,-0.283052,0.0,0.0,102.0,188.0,46.0,1.0
901,1.4836280000000002,-0.797277,-2.373954,0.14893499999999998,-0.332796,-0.340116,0.0,0.0,102.0,188.0,46.0,1.0
902,1.494808,-0.787845,-2.372845,-0.058747,-0.34184499999999995,-0.201853,0.0,0.0,102.0,188.0,46.0,1.0
903,1.522745,-0.772324,-2.382335,-0.120661,-0.300509,0.08236399999999999,0.0,0.0,102.0,188.0,46.0,1.0
904,1.533048,-0.764681,-2.409583,-0.411076,0.23233,0.449062,0.0,0.0,102.0,188.0,46.0,1.0
905,1.539902,-0.754232,-2.422278,-0.409327,0.21441,0.33823200000000003,0.0,0.0,102.0,188.0,46.0,1.0
906,1.530366,-0.750638,-2.426859,-0.024922,0.242791,-0.087417,0.0,0.0,102.0,188.0,46.0,1.0
907,1.508687,-0.7533270000000001,-2.449903,0.570878,0.018858,0.325029,0.0,0.0,102.0,188.0,46.0,1.0
908,1.508991,-0.74516,-2.4835580000000004,0.586279,-0.22202,0.323229,0.0,0.0,102.0,188.0,46.0,1.0
909,1.5115809999999998,-0.726629,-2.51895,0.452699,-0.151232,0.002058,0.0,0.0,102.0,188.0,46.0,1.0
910,1.503865,-0.712525,-2.5536060000000003,0.5965590000000001,0.196992,0.06997300000000001,0.0,0.0,102.0,188.0,46.0,1.0
911,1.506017,-0.6996020000000001,-2.560644,0.349086,-0.295052,0.108686,0.0,0.0,102.0,188.0,46.0,1.0
912,1.474227,-0.682369,-2.5691080000000004,0.298214,-0.300433,-0.101181,0.0,0.0,102.0,188.0,46.0,1.0
913,1.450034,-0.6696300000000001,-2.571716,0.090052,-0.161956,0.241503,0.0,0.0,102.0,188.0,46.0,1.0
914,1.445881,-0.661898,-2.574045,0.037037,-0.153342,-0.098985,0.0,0.0,102.0,188.0,46.0,1.0
915,1.440005,-0.659035,-2.584811,0.12438699999999997,-0.180866,-0.156064,0.0,0.0,102.0,188.0,46.0,1.0
916,1.433539,-0.658307,-2.597729,0.181758,-0.115318,-0.038144,0.0,0.0,102.0,188.0,46.0,1.0
917,1.42156,-0.657971,-2.614147,0.10791,-0.196138,-0.042726,0.0,0.0,102.0,188.0,46.0,1.0
918,1.400707,-0.656245,-2.631928,0.086698,-0.265114,-0.123564,0.0,0.0,102.0,188.0,46.0,1.0
919,1.370464,-0.652122,-2.648747,0.026594,-0.364748,0.027805,0.0,0.0,102.0,188.0,46.0,1.0
920,1.32891,-0.644199,-2.664279,-0.007291,-0.2952,0.204589,0.0,0.0,102.0,188.0,46.0,1.0
921,1.266582,-0.63443,-2.674775,-0.0077,-0.116797,0.195631,0.0,0.0,102.0,188.0,46.0,1.0
922,1.174332,-0.6216189999999999,-2.679134,0.29798800000000003,0.154617,-0.078029,0.0,0.0,102.0,188.0,46.0,1.0
923,1.076991,-0.6019180000000001,-2.675271,0.516786,0.320235,0.024895,0.0,0.0,102.0,188.0,46.0,1.0
924,1.00183,-0.5837829999999999,-2.659381,0.570489,0.343927,0.2718,0.0,0.0,102.0,188.0,46.0,1.0
925,0.946308,-0.5847640000000001,-2.630962,0.12572,0.13883900000000002,0.585693,0.0,0.0,102.0,188.0,46.0,1.0
926,0.901031,-0.593737,-2.609754,-0.195221,-0.002242,0.320662,0.0,0.0,102.0,188.0,46.0,1.0
927,0.872002,-0.5991449999999999,-2.604657,-0.178816,0.026762,0.358867,0.0,0.0,102.0,188.0,46.0,1.0
928,0.870123,-0.606402,-2.602049,-0.18755,0.012666,0.448877,0.0,0.0,102.0,188.0,46.0,1.0
929,0.8976459999999999,-0.614976,-2.5958650000000003,-0.233189,-0.061344,0.288296,0.0,0.0,102.0,188.0,46.0,1.0
930,0.943059,-0.6289939999999999,-2.582667,-0.233443,-0.079466,0.207092,0.0,0.0,102.0,188.0,46.0,1.0
931,1.0030940000000002,-0.647803,-2.563323,-0.236064,-0.108471,0.111123,0.0,0.0,102.0,188.0,46.0,1.0
932,1.078837,-0.673439,-2.536403,-0.057313,-0.27710500000000005,-0.119494,0.0,0.0,102.0,188.0,46.0,1.0
933,1.172069,-0.70626,-2.503019,-0.050861,-0.330054,-0.20464,0.0,0.0,102.0,188.0,46.0,1.0
934,1.273574,-0.7393649999999999,-2.472018,0.035994,-0.340765,-0.364444,0.0,0.0,102.0,188.0,46.0,1.0
935,1.367237,-0.762636,-2.450432,0.292948,-0.147754,-0.27168400000000004,0.0,0.0,102.0,188.0,46.0,1.0
936,1.429756,-0.771097,-2.445435,0.286725,-0.06704,-0.194629,0.0,0.0,102.0,188.0,46.0,1.0
937,1.468209,-0.768691,-2.455446,0.268906,-0.015691,-0.204372,0.0,0.0,102.0,188.0,46.0,1.0
938,1.5037969999999998,-0.758749,-2.467949,-0.035684,-0.13673,-0.050445,0.0,0.0,102.0,188.0,46.0,1.0
939,1.534613,-0.75037,-2.4746490000000003,-0.142823,-0.116464,0.053528999999999986,0.0,0.0,102.0,188.0,46.0,1.0
940,1.557468,-0.747791,-2.479153,-0.249302,-0.055174,0.068381,0.0,0.0,102.0,188.0,46.0,1.0
941,1.560822,-0.752356,-2.487069,-0.143466,0.526829,-0.059979,0.0,0.0,102.0,188.0,46.0,1.0
942,1.547302,-0.760517,-2.497055,-0.149115,0.452061,0.027609,0.0,0.0,102.0,188.0,46.0,1.0
943,1.539146,-0.763411,-2.50783,-0.036299,-0.168883,0.219488,0.0,0.0,102.0,188.0,46.0,1.0
944,1.53249,-0.759112,-2.531842,0.223983,-0.2937,0.618054,0.0,0.0,102.0,188.0,46.0,1.0
945,1.541578,-0.752786,-2.555036,0.339082,-0.202367,0.708225,0.0,0.0,102.0,188.0,46.0,1.0
946,1.558971,-0.74675,-2.571026,0.5380020000000001,-0.17869300000000002,0.138714,0.0,0.0,102.0,188.0,46.0,1.0
947,1.550351,-0.733711,-2.60473,0.976729,-0.05937000000000001,-0.483718,0.0,0.0,102.0,188.0,46.0,1.0
948,1.528022,-0.713745,-2.641512,1.103587,0.071573,-0.498148,0.0,0.0,102.0,188.0,46.0,1.0
949,1.519118,-0.696959,-2.650697,0.06251799999999999,-0.116467,0.393217,0.0,0.0,102.0,188.0,46.0,1.0
950,1.505748,-0.689074,-2.636127,-0.099442,-0.236805,0.308289,0.0,0.0,102.0,188.0,46.0,1.0
951,1.495593,-0.686344,-2.617249,-0.050312,-0.22488400000000006,0.18341,0.0,0.0,102.0,188.0,46.0,1.0
952,1.479094,-0.6850390000000001,-2.614361,0.191567,-0.149366,-0.345772,0.0,0.0,102.0,188.0,46.0,1.0
953,1.453458,-0.682808,-2.623555,0.17719300000000002,-0.246514,-0.011884,0.0,0.0,102.0,188.0,46.0,1.0
954,1.426649,-0.677481,-2.636508,0.12239,-0.282045,0.133852,0.0,0.0,102.0,188.0,46.0,1.0
955,1.395994,-0.665043,-2.656392,0.091083,-0.37016,-0.090673,0.0,0.0,102.0,188.0,46.0,1.0
956,1.357335,-0.642124,-2.681274,0.14539000000000002,-0.360739,-0.273694,0.0,0.0,102.0,188.0,46.0,1.0
957,1.306787,-0.6150760000000001,-2.702842,0.106817,-0.229792,-0.154563,0.0,0.0,102.0,188.0,46.0,1.0
958,1.242386,-0.594666,-2.712335,0.038703,-0.196752,0.142735,0.0,0.0,102.0,188.0,46.0,1.0
959,1.160784,-0.575963,-2.721217,0.043603,-0.045055,0.240209,0.0,0.0,102.0,188.0,46.0,1.0
960,1.066851,-0.5588,-2.726175,0.22689,0.191618,0.282587,0.0,0.0,102.0,188.0,46.0,1.0
961,0.992347,-0.5472779999999999,-2.714245,0.25326,0.17536,0.380295,0.0,0.0,102.0,188.0,46.0,1.0
962,0.955177,-0.543825,-2.6893,-0.081647,0.042325,0.425447,0.0,0.0,102.0,188.0,46.0,1.0
963,0.920608,-0.5507380000000001,-2.67129,-0.237892,-0.083604,0.415733,0.0,0.0,102.0,188.0,46.0,1.0
964,0.8915120000000001,-0.564793,-2.661051,-0.192687,-0.034112,0.402039,0.0,0.0,102.0,188.0,46.0,1.0
965,0.888739,-0.5786399999999999,-2.65678,-0.097796,0.05019,0.407514,0.0,0.0,102.0,188.0,46.0,1.0
966,0.918996,-0.592252,-2.648837,-0.063968,0.137188,0.267523,0.0,0.0,102.0,188.0,46.0,1.0
967,0.966865,-0.612905,-2.633743,-0.080026,0.162272,0.158685,0.0,0.0,102.0,188.0,46.0,1.0
968,1.023776,-0.63963,-2.608091,0.13794,0.225046,-0.016731,0.0,0.0,102.0,188.0,46.0,1.0
969,1.102286,-0.66967,-2.571656,0.329954,0.23735100000000006,-0.202805,0.0,0.0,102.0,188.0,46.0,1.0
970,1.207449,-0.702375,-2.527966,0.295283,0.177255,-0.33331500000000003,0.0,0.0,102.0,188.0,46.0,1.0
971,1.31497,-0.7245520000000001,-2.491547,0.104172,-0.55106,-0.239659,0.0,0.0,102.0,188.0,46.0,1.0
972,1.407126,-0.736101,-2.47056,0.09741,-0.559664,-0.308384,0.0,0.0,102.0,188.0,46.0,1.0
973,1.474511,-0.741111,-2.466223,0.092267,-0.227735,-0.043015,0.0,0.0,102.0,188.0,46.0,1.0
974,1.518783,-0.7390680000000001,-2.4730990000000004,-0.005492,-0.044418,-0.139782,0.0,0.0,102.0,188.0,46.0,1.0
975,1.551501,-0.730721,-2.476024,-0.098818,-0.14589100000000002,-0.113927,0.0,0.0,102.0,188.0,46.0,1.0
976,1.572766,-0.7248479999999999,-2.47392,-0.21535,-0.23165500000000006,-0.0469,0.0,0.0,102.0,188.0,46.0,1.0
977,1.586077,-0.7218479999999999,-2.470988,-0.287135,0.064691,0.14313299999999998,0.0,0.0,102.0,188.0,46.0,1.0
978,1.589566,-0.725488,-2.467312,-0.269482,0.30116,-0.02213,0.0,0.0,102.0,188.0,46.0,1.0
979,1.578703,-0.730781,-2.452787,-0.256715,0.458449,-0.230177,0.0,0.0,102.0,188.0,46.0,1.0
980,1.552892,-0.736797,-2.4380900000000003,0.250842,0.273989,0.414413,0.0,0.0,102.0,188.0,46.0,1.0
981,1.523985,-0.738896,-2.467781,0.170579,0.039861,0.696227,0.0,0.0,102.0,188.0,46.0,1.0
982,1.532026,-0.7322390000000001,-2.504387,0.057813,-0.500156,0.722642,0.0,0.0,102.0,188.0,46.0,1.0
983,1.547136,-0.7183510000000001,-2.535358,0.50034,-0.437212,0.06281,0.0,0.0,102.0,188.0,46.0,1.0
984,1.5186540000000002,-0.6904640000000001,-2.60229,1.620402,-0.146096,-0.674953,0.0,0.0,102.0,188.0,46.0,1.0
985,1.522944,-0.659913,-2.637005,0.722608,-0.028255,-0.022161,0.0,0.0,102.0,188.0,46.0,1.0
986,1.505667,-0.6467069999999999,-2.62193,0.267249,0.019203,0.25521900000000003,0.0,0.0,102.0,188.0,46.0,1.0
987,1.486404,-0.644968,-2.597452,0.029515,-0.147483,0.334434,0.0,0.0,102.0,188.0,46.0,1.0
988,1.47974,-0.648153,-2.58286,0.030168,-0.142869,-0.24001,0.0,0.0,102.0,188.0,46.0,1.0
989,1.478981,-0.6567810000000001,-2.580836,0.15709800000000002,-0.042058,-0.056966,0.0,0.0,102.0,188.0,46.0,1.0
990,1.488005,-0.665632,-2.583167,0.348202,-0.086993,0.147761,0.0,0.0,102.0,188.0,46.0,1.0
991,1.497375,-0.668566,-2.59055,0.183956,-0.365131,-0.019601,0.0,0.0,102.0,188.0,46.0,1.0
992,1.493432,-0.6624909999999999,-2.601219,0.098967,-0.390809,-0.0743,0.0,0.0,102.0,188.0,46.0,1.0
993,1.468795,-0.646524,-2.614234,0.028643,-0.309599,-0.5012449999999999,0.0,0.0,102.0,188.0,46.0,1.0
994,1.420569,-0.629707,-2.628563,0.101064,-0.081721,-0.043807,0.0,0.0,102.0,188.0,46.0,1.0
995,1.366078,-0.619224,-2.647943,-0.046943,-0.057149,0.181858,0.0,0.0,102.0,188.0,46.0,1.0
996,1.308713,-0.611871,-2.66806,-0.344242,-0.054991,0.233297,0.0,0.0,102.0,188.0,46.0,1.0
997,1.242636,-0.6067279999999999,-2.673003,-0.178695,0.007637,0.353873,0.0,0.0,102.0,188.0,46.0,1.0
998,1.172438,-0.604834,-2.664214,0.016807,0.077783,0.264784,0.0,0.0,102.0,188.0,46.0,1.0
999,1.088215,-0.590965,-2.658315,0.549265,0.142422,-0.060651,0.0,0.0,102.0,188.0,46.0,1.0
1000,1.021036,-0.579345,-2.645052,0.437806,0.230539,0.3264,0.0,0.0,102.0,188.0,46.0,1.0
1001,0.980339,-0.5842729999999999,-2.616854,0.007935,-0.038288,0.600722,0.0,0.0,102.0,188.0,46.0,1.0
1002,0.949851,-0.58934,-2.601956,-0.270746,-0.055248,0.333481,0.0,0.0,102.0,188.0,46.0,1.0
1003,0.932258,-0.5963579999999999,-2.59843,-0.245191,0.05807200000000001,0.290611,0.0,0.0,102.0,188.0,46.0,1.0
1004,0.938832,-0.608054,-2.595583,-0.186828,0.028857,0.292527,0.0,0.0,102.0,188.0,46.0,1.0
1005,0.969868,-0.623675,-2.588423,-0.217382,-0.093757,0.21300700000000006,0.0,0.0,102.0,188.0,46.0,1.0
1006,1.013273,-0.645624,-2.574748,-0.180809,-0.131482,0.098375,0.0,0.0,102.0,188.0,46.0,1.0
1007,1.066626,-0.675221,-2.5557540000000003,-0.223989,-0.244363,-0.06628099999999999,0.0,0.0,102.0,188.0,46.0,1.0
1008,1.137002,-0.709263,-2.526554,-0.243046,-0.338072,-0.110337,0.0,0.0,102.0,188.0,46.0,1.0
1009,1.223256,-0.741338,-2.490904,-0.101901,-0.289457,-0.20929,0.0,0.0,102.0,188.0,46.0,1.0
1010,1.318863,-0.771844,-2.454536,0.286236,-0.038233,-0.322399,0.0,0.0,102.0,188.0,46.0,1.0
1011,1.415442,-0.799195,-2.418499,0.4386310000000001,0.093447,-0.400333,0.0,0.0,102.0,188.0,46.0,1.0
1012,1.480138,-0.8125979999999999,-2.386413,0.418588,-0.106356,-0.31586,0.0,0.0,102.0,188.0,46.0,1.0
1013,1.505789,-0.8106270000000001,-2.3662490000000003,0.043841000000000005,-0.287997,-0.360176,0.0,0.0,102.0,188.0,46.0,1.0
1014,1.527883,-0.795863,-2.359752,0.003704,-0.239965,-0.217863,0.0,0.0,102.0,188.0,46.0,1.0
1015,1.547887,-0.778245,-2.374188,-0.022873,-0.217183,0.062258,0.0,0.0,102.0,188.0,46.0,1.0
1016,1.558396,-0.771537,-2.406022,-0.206012,0.69293,0.410195,0.0,0.0,102.0,188.0,46.0,1.0
1017,1.570755,-0.7662399999999999,-2.421584,-0.27917800000000004,0.64565,0.263671,0.0,0.0,102.0,188.0,46.0,1.0
1018,1.5650309999999998,-0.7580979999999999,-2.430623,-0.097974,0.145405,-0.245371,0.0,0.0,102.0,188.0,46.0,1.0
1019,1.5369270000000002,-0.757047,-2.452386,0.447149,-0.038951,-0.150176,0.0,0.0,102.0,188.0,46.0,1.0
1020,1.512559,-0.755089,-2.494309,0.669127,0.042354,0.37759,0.0,0.0,102.0,188.0,46.0,1.0
1021,1.520334,-0.752313,-2.51906,0.425818,0.038762,0.572716,0.0,0.0,102.0,188.0,46.0,1.0
1022,1.518888,-0.745637,-2.5333810000000003,0.367408,-0.217243,0.030946,0.0,0.0,102.0,188.0,46.0,1.0
1023,1.487996,-0.7362390000000001,-2.555399,0.429691,-0.324246,-0.201288,0.0,0.0,102.0,188.0,46.0,1.0
1024,1.48782,-0.7313069999999999,-2.558312,0.239795,-0.221142,0.258786,0.0,0.0,102.0,188.0,46.0,1.0
1025,1.499016,-0.729796,-2.547241,0.102541,-0.254715,0.223955,0.0,0.0,102.0,188.0,46.0,1.0
1026,1.505877,-0.727796,-2.536133,0.20093,-0.336048,-0.08152100000000001,0.0,0.0,102.0,188.0,46.0,1.0
1027,1.505622,-0.725881,-2.529806,0.255382,-0.265723,-0.247279,0.0,0.0,102.0,188.0,46.0,1.0
1028,1.49814,-0.724541,-2.52427,0.182234,-0.239452,-0.074366,0.0,0.0,102.0,188.0,46.0,1.0
1029,1.479119,-0.71902,-2.524632,0.161017,-0.311068,-0.11895,0.0,0.0,102.0,188.0,46.0,1.0
1030,1.443827,-0.7041649999999999,-2.540536,0.124674,-0.34065,-0.323427,0.0,0.0,102.0,188.0,46.0,1.0
1031,1.389352,-0.680804,-2.566135,0.07939299999999999,-0.285729,-0.491812,0.0,0.0,102.0,188.0,46.0,1.0
1032,1.321587,-0.6574909999999999,-2.593209,-0.03824,-0.25545100000000004,-0.14488299999999998,0.0,0.0,102.0,188.0,46.0,1.0
1033,1.245206,-0.640729,-2.617792,-0.170264,-0.108019,0.136461,0.0,0.0,102.0,188.0,46.0,1.0
1034,1.159541,-0.628911,-2.635312,-0.091568,0.042701,0.277772,0.0,0.0,102.0,188.0,46.0,1.0
1035,1.076602,-0.61927,-2.6407,0.112718,0.142841,0.411861,0.0,0.0,102.0,188.0,46.0,1.0
1036,1.007476,-0.615185,-2.633837,0.149561,0.11528800000000003,0.531144,0.0,0.0,102.0,188.0,46.0,1.0
1037,0.960649,-0.6197550000000001,-2.617699,-0.029843,-0.045145,0.486276,0.0,0.0,102.0,188.0,46.0,1.0
1038,0.930551,-0.622271,-2.605688,-0.054888,-0.023785,0.4498470000000001,0.0,0.0,102.0,188.0,46.0,1.0
1039,0.92269,-0.625979,-2.59683,-0.077737,-0.003386,0.416766,0.0,0.0,102.0,188.0,46.0,1.0
1040,0.942173,-0.633977,-2.587028,-0.041815,-0.006309,0.222971,0.0,0.0,102.0,188.0,46.0,1.0
1041,0.983632,-0.650547,-2.5682810000000003,0.017135,-0.048966,0.026939,0.0,0.0,102.0,188.0,46.0,1.0
1042,1.040816,-0.6785770000000001,-2.537689,0.069339,-0.118211,-0.076687,0.0,0.0,102.0,188.0,46.0,1.0
1043,1.108422,-0.712734,-2.498296,0.239584,-0.0826,-0.062169,0.0,0.0,102.0,188.0,46.0,1.0
1044,1.195275,-0.749875,-2.456945,0.383488,0.057878999999999986,-0.202914,0.0,0.0,102.0,188.0,46.0,1.0
1045,1.298032,-0.780051,-2.416179,0.393254,0.024788,-0.494559,0.0,0.0,102.0,188.0,46.0,1.0
1046,1.38526,-0.791204,-2.381333,0.375573,-0.005512,-0.551103,0.0,0.0,102.0,188.0,46.0,1.0
1047,1.442564,-0.794351,-2.355211,0.166913,-0.1091,-0.447436,0.0,0.0,102.0,188.0,46.0,1.0
1048,1.483273,-0.791736,-2.334993,0.016158000000000002,-0.214138,-0.229538,0.0,0.0,102.0,188.0,46.0,1.0
1049,1.505072,-0.787007,-2.329582,-0.219077,-0.346168,0.07049,0.0,0.0,102.0,188.0,46.0,1.0
1050,1.50689,-0.7821100000000001,-2.352655,-0.439776,-0.280385,0.19379,0.0,0.0,102.0,188.0,46.0,1.0
1051,1.513688,-0.784355,-2.370247,-0.4628390000000001,0.026313,0.126614,0.0,0.0,102.0,188.0,46.0,1.0
1052,1.533362,-0.794307,-2.359836,-0.268403,0.35980300000000004,-0.01108,0.0,0.0,102.0,188.0,46.0,1.0
1053,1.548232,-0.808146,-2.328521,-0.128134,-0.016022,0.133995,0.0,0.0,102.0,188.0,46.0,1.0
1054,1.558128,-0.8181390000000001,-2.309942,0.020439,-0.36014,0.290749,0.0,0.0,102.0,188.0,46.0,1.0
1055,1.585598,-0.817876,-2.298641,0.38866,-0.379155,0.402645,0.0,0.0,102.0,188.0,46.0,1.0
1056,1.619784,-0.8123630000000001,-2.288074,0.533972,-0.372063,0.300824,0.0,0.0,102.0,188.0,46.0,1.0
1057,1.6250870000000002,-0.800829,-2.312061,0.684766,-0.150673,-0.171044,0.0,0.0,102.0,188.0,46.0,1.0
1058,1.614586,-0.788247,-2.343984,0.80935,0.14523699999999998,-0.7741680000000001,0.0,0.0,102.0,188.0,46.0,1.0
1059,1.590313,-0.779566,-2.368104,0.65586,0.042376,-0.58877,0.0,0.0,102.0,188.0,46.0,1.0
1060,1.559768,-0.776558,-2.388625,0.102524,-0.200309,0.185265,0.0,0.0,102.0,188.0,46.0,1.0
1061,1.549097,-0.780366,-2.386847,0.015082,-0.261004,0.260247,0.0,0.0,102.0,188.0,46.0,1.0
1062,1.5446030000000002,-0.789122,-2.370773,0.13386199999999998,-0.31245700000000004,0.179293,0.0,0.0,102.0,188.0,46.0,1.0
1063,1.550497,-0.797231,-2.360285,0.414308,-0.517792,0.103018,0.0,0.0,102.0,188.0,46.0,1.0
1064,1.567591,-0.8020930000000001,-2.350433,0.500616,-0.69301,0.159394,0.0,0.0,102.0,188.0,46.0,1.0
1065,1.584879,-0.805298,-2.336018,0.552747,-0.722761,0.07184700000000001,0.0,0.0,102.0,188.0,46.0,1.0
1066,1.587402,-0.802525,-2.32583,0.524166,-0.662762,-0.28139000000000003,0.0,0.0,102.0,188.0,46.0,1.0
1067,1.5716629999999998,-0.7965479999999999,-2.322346,0.359003,-0.509472,-0.5579029999999999,0.0,0.0,102.0,188.0,46.0,1.0
1068,1.54796,-0.794763,-2.301993,0.201401,-0.4223770000000001,-0.048092,0.0,0.0,102.0,188.0,46.0,1.0
1069,1.512954,-0.792463,-2.27018,0.206963,-0.129321,0.212432,0.0,0.0,102.0,188.0,46.0,1.0
1070,1.460782,-0.782698,-2.234479,0.269119,0.12412,0.103891,0.0,0.0,102.0,188.0,46.0,1.0
1071,1.397416,-0.76757,-2.211877,0.332342,0.290932,0.089625,0.0,0.0,102.0,188.0,46.0,1.0
1072,1.339925,-0.756352,-2.190625,0.219871,0.33373200000000003,0.350837,0.0,0.0,102.0,188.0,46.0,1.0
1073,1.290986,-0.752777,-2.160494,0.345175,0.529604,0.491603,0.0,0.0,102.0,188.0,46.0,1.0
1074,1.238507,-0.746896,-2.13153,0.54874,0.515918,0.365165,0.0,0.0,102.0,188.0,46.0,1.0
1075,1.1898799999999998,-0.719862,-2.115533,0.7947930000000001,0.370382,0.164467,0.0,0.0,102.0,188.0,46.0,1.0
1076,1.174722,-0.680789,-2.085698,0.5813619999999999,-0.095181,0.073706,0.0,0.0,102.0,188.0,46.0,1.0
1077,1.178344,-0.651999,-2.030461,0.420267,-0.052623,0.154177,0.0,0.0,102.0,188.0,46.0,1.0
1078,1.175504,-0.637142,-1.971483,0.252342,0.005381,0.20604,0.0,0.0,102.0,188.0,46.0,1.0
1079,1.179767,-0.630523,-1.907798,-0.176606,0.302889,0.221642,0.0,0.0,102.0,188.0,46.0,1.0
1080,1.194452,-0.633642,-1.841976,-0.395076,0.249835,0.189077,0.0,0.0,102.0,188.0,46.0,1.0
1081,1.214381,-0.646069,-1.774555,-0.457993,-0.03557,0.108322,0.0,0.0,102.0,188.0,46.0,1.0
1082,1.239298,-0.664966,-1.7101830000000002,-0.353774,-0.299619,-0.03113,0.0,0.0,102.0,188.0,46.0,1.0
1083,1.27793,-0.691063,-1.64976,-0.173534,-0.432294,-0.106564,0.0,0.0,102.0,188.0,46.0,1.0
1084,1.333493,-0.7222,-1.58875,0.043777,-0.514079,-0.248257,0.0,0.0,102.0,188.0,46.0,1.0
1085,1.392724,-0.755793,-1.522775,0.212399,-0.6074970000000001,-0.487658,0.0,0.0,102.0,188.0,46.0,1.0
1086,1.420709,-0.7821520000000001,-1.468496,0.544655,-0.4408,-0.519736,0.0,0.0,102.0,188.0,46.0,1.0
1087,1.409525,-0.784918,-1.438566,0.290457,-0.41566,-0.358525,0.0,0.0,102.0,188.0,46.0,1.0
1088,1.388205,-0.774541,-1.421359,0.059438,-0.4376390000000001,-0.114481,0.0,0.0,102.0,188.0,46.0,1.0
1089,1.357481,-0.76031,-1.424311,0.025368,-0.109022,0.28841300000000003,0.0,0.0,102.0,188.0,46.0,1.0
1090,1.334422,-0.747049,-1.438151,0.054313,0.37753,0.790377,0.0,0.0,102.0,188.0,46.0,1.0
1091,1.345357,-0.7416189999999999,-1.443015,-0.097196,0.621087,0.755405,0.0,0.0,102.0,188.0,46.0,1.0
1092,1.387988,-0.74127,-1.426167,-0.214472,0.596839,0.59387,0.0,0.0,102.0,188.0,46.0,1.0
1093,1.4269969999999998,-0.744959,-1.393656,-0.06653300000000001,0.149649,0.32617,0.0,0.0,102.0,188.0,46.0,1.0
1094,1.451143,-0.757166,-1.361407,0.507522,-0.102179,0.218896,0.0,0.0,102.0,188.0,46.0,1.0
1095,1.463062,-0.76558,-1.335264,0.7555810000000001,-0.29998,-0.059302,0.0,0.0,102.0,188.0,46.0,1.0
1096,1.481057,-0.769134,-1.299847,0.6175390000000001,-0.320514,0.007447,0.0,0.0,102.0,188.0,46.0,1.0
1097,1.511501,-0.767302,-1.255023,0.4481810000000001,-0.14513800000000002,0.168799,0.0,0.0,102.0,188.0,46.0,1.0
1098,1.552918,-0.7659090000000001,-1.192576,0.281743,-0.062638,0.302726,0.0,0.0,102.0,188.0,46.0,1.0
1099,1.598891,-0.764644,-1.116127,0.200882,-0.00745,0.263649,0.0,0.0,102.0,188.0,46.0,1.0
1100,1.636983,-0.762785,-1.040164,0.143719,0.018749,0.07381499999999999,0.0,0.0,102.0,188.0,46.0,1.0
1101,1.666598,-0.760976,-0.968936,0.005215999999999999,0.01014,-0.121669,0.0,0.0,102.0,188.0,46.0,1.0
1102,1.6942700000000002,-0.758746,-0.901911,-0.100011,-0.051095,-0.12844,0.0,0.0,102.0,188.0,46.0,1.0
1103,1.724861,-0.756741,-0.838618,-0.175771,-0.200228,0.078352,0.0,0.0,102.0,188.0,46.0,1.0
1104,1.7573439999999998,-0.758293,-0.784885,-0.166891,-0.249954,0.128563,0.0,0.0,102.0,188.0,46.0,1.0
1105,1.781854,-0.762927,-0.746881,-0.142568,-0.264038,0.090823,0.0,0.0,102.0,188.0,46.0,1.0
1106,1.808412,-0.768083,-0.7113470000000001,0.007875,-0.224253,-0.100742,0.0,0.0,102.0,188.0,46.0,1.0
1107,1.838716,-0.772405,-0.67257,0.016228,-0.22735500000000006,-0.121048,0.0,0.0,102.0,188.0,46.0,1.0
1108,1.869472,-0.775874,-0.634062,0.180693,-0.312828,-0.265171,0.0,0.0,102.0,188.0,46.0,1.0
1109,1.882644,-0.7660319999999999,-0.6104350000000001,0.270177,-0.350797,-0.331358,0.0,0.0,102.0,188.0,46.0,1.0
1110,1.908514,-0.765941,-0.577224,0.343999,-0.381417,-0.366672,0.0,0.0,102.0,188.0,46.0,1.0
1111,1.924238,-0.76505,-0.547534,0.43254,-0.359611,-0.36615,0.0,0.0,102.0,188.0,46.0,1.0
1112,1.92564,-0.764347,-0.5234409999999999,0.409042,-0.363254,-0.296237,0.0,0.0,102.0,188.0,46.0,1.0
1113,1.909266,-0.762446,-0.504551,0.34649,-0.361011,-0.316549,0.0,0.0,102.0,188.0,46.0,1.0
1114,1.870362,-0.756475,-0.492439,0.489455,-0.157615,-0.159381,0.0,0.0,102.0,188.0,46.0,1.0
1115,1.806709,-0.743017,-0.4898,0.4232800000000001,-0.127013,-0.115059,0.0,0.0,102.0,188.0,46.0,1.0
1116,1.722306,-0.725584,-0.506745,0.403402,-0.129652,-0.364653,0.0,0.0,102.0,188.0,46.0,1.0
1117,1.62176,-0.7052930000000001,-0.548237,0.421268,0.029371,-0.091294,0.0,0.0,102.0,188.0,46.0,1.0
1118,1.537009,-0.684107,-0.585784,0.359065,0.35288200000000003,0.402995,0.0,0.0,102.0,188.0,46.0,1.0
1119,1.478075,-0.663872,-0.603266,0.321118,0.440118,0.55469,0.0,0.0,102.0,188.0,46.0,1.0
1120,1.4330040000000002,-0.645945,-0.597585,0.242973,0.463187,0.402302,0.0,0.0,102.0,188.0,46.0,1.0
1121,1.40091,-0.629725,-0.56717,0.261871,0.081686,0.217833,0.0,0.0,102.0,188.0,46.0,1.0
1122,1.374041,-0.602952,-0.538758,0.412213,-0.25950500000000004,-0.025537,0.0,0.0,102.0,188.0,46.0,1.0
1123,1.349556,-0.564483,-0.513072,0.458351,-0.158392,-0.047315,0.0,0.0,102.0,188.0,46.0,1.0
1124,1.320773,-0.528997,-0.482775,0.201967,-0.05664,0.150604,0.0,0.0,102.0,188.0,46.0,1.0
1125,1.287827,-0.49886,-0.4438,-0.099447,0.198592,0.092989,0.0,0.0,102.0,188.0,46.0,1.0
1126,1.258424,-0.4728060000000001,-0.391554,-0.221569,0.255353,0.311048,0.0,0.0,102.0,188.0,46.0,1.0
1127,1.234294,-0.453463,-0.331277,-0.277321,0.105818,0.4143560000000001,0.0,0.0,102.0,188.0,46.0,1.0
1128,1.215352,-0.438265,-0.270583,-0.326489,0.016884,0.413062,0.0,0.0,102.0,188.0,46.0,1.0
1129,1.201653,-0.428119,-0.213458,-0.422928,0.036637,0.349889,0.0,0.0,102.0,188.0,46.0,1.0
1130,1.198207,-0.425221,-0.159429,-0.535259,0.036392,0.28411,0.0,0.0,102.0,188.0,46.0,1.0
1131,1.2083700000000002,-0.429022,-0.108176,-0.53635,0.040088,0.167597,0.0,0.0,102.0,188.0,46.0,1.0
1132,1.231292,-0.439922,-0.059861,-0.473181,0.019734,0.03709,0.0,0.0,102.0,188.0,46.0,1.0
1133,1.265685,-0.456883,-0.0164,-0.365916,-0.01647,-0.079853,0.0,0.0,102.0,188.0,46.0,1.0
1134,1.310505,-0.480022,0.022326,-0.180273,0.016137000000000002,-0.182795,0.0,0.0,102.0,188.0,46.0,1.0
1135,1.358537,-0.510012,0.056485,0.132322,0.095689,-0.252131,0.0,0.0,102.0,188.0,46.0,1.0
1136,1.402389,-0.542107,0.087739,0.383569,0.27521,-0.307622,0.0,0.0,102.0,188.0,46.0,1.0
1137,1.425403,-0.561469,0.116142,0.543042,0.254878,-0.436657,0.0,0.0,102.0,188.0,46.0,1.0
1138,1.413804,-0.560715,0.13714400000000002,0.49194,-0.11277,-0.63363,0.0,0.0,102.0,188.0,46.0,1.0
1139,1.392024,-0.547345,0.155747,0.228044,-0.421011,-0.082989,0.0,0.0,102.0,188.0,46.0,1.0
1140,1.381243,-0.52478,0.16284400000000002,0.322079,0.048279,0.319911,0.0,0.0,102.0,188.0,46.0,1.0
1141,1.380054,-0.507567,0.15684800000000002,0.425032,0.793458,0.5498109999999999,0.0,0.0,102.0,188.0,46.0,1.0
1142,1.386939,-0.502757,0.15749000000000002,-0.220467,0.7424609999999999,0.6753979999999999,0.0,0.0,102.0,188.0,46.0,1.0
1143,1.396555,-0.48357,0.170444,-0.500979,0.15798199999999998,0.297374,0.0,0.0,102.0,188.0,46.0,1.0
1144,1.41572,-0.466015,0.196993,-0.491181,-0.063481,-0.434128,0.0,0.0,102.0,188.0,46.0,1.0
1145,1.422779,-0.464263,0.219669,-0.432745,0.056279,-0.123183,0.0,0.0,102.0,188.0,46.0,1.0
1146,1.425341,-0.480321,0.248365,-0.186472,0.150225,0.593202,0.0,0.0,102.0,188.0,46.0,1.0
1147,1.443464,-0.496169,0.279978,0.096533,0.239837,0.521435,0.0,0.0,102.0,188.0,46.0,1.0
1148,1.467282,-0.502907,0.294653,0.26113400000000003,0.191044,0.053335,0.0,0.0,102.0,188.0,46.0,1.0
1149,1.491957,-0.506167,0.293642,0.184168,0.039616000000000005,-0.217953,0.0,0.0,102.0,188.0,46.0,1.0
1150,1.52139,-0.508931,0.299814,0.050682,-0.047501,-0.155969,0.0,0.0,102.0,188.0,46.0,1.0
1151,1.549349,-0.5133770000000001,0.319991,-0.047221,-0.13258599999999998,0.180775,0.0,0.0,102.0,188.0,46.0,1.0
1152,1.570419,-0.519184,0.34407,-0.069091,-0.138186,0.090431,0.0,0.0,102.0,188.0,46.0,1.0
1153,1.586092,-0.525105,0.372471,-0.084866,-0.135017,0.040797,0.0,0.0,102.0,188.0,46.0,1.0
1154,1.59858,-0.528629,0.407442,-0.074866,-0.058153,0.102828,0.0,0.0,102.0,188.0,46.0,1.0
1155,1.608639,-0.529718,0.440097,-0.074032,-0.059092,0.094167,0.0,0.0,102.0,188.0,46.0,1.0
1156,1.618186,-0.529222,0.463348,-0.09418,0.009268,-0.0032630000000000003,0.0,0.0,102.0,188.0,46.0,1.0
1157,1.62693,-0.5279590000000001,0.477871,-0.093861,-0.01694,-0.156832,0.0,0.0,102.0,188.0,46.0,1.0
1158,1.632915,-0.526576,0.486707,-0.060986,-0.041058,-0.191013,0.0,0.0,102.0,188.0,46.0,1.0
1159,1.636772,-0.524212,0.491835,1.1e-05,-0.076901,-0.185935,0.0,0.0,102.0,188.0,46.0,1.0
1160,1.6386,-0.520389,0.494404,-0.024019,-0.117136,-0.048392,0.0,0.0,102.0,188.0,46.0,1.0
1161,1.63933,-0.515015,0.495464,-0.08066,-0.139536,0.05962000000000001,0.0,0.0,102.0,188.0,46.0,1.0
1162,1.637647,-0.508016,0.493953,-0.15821300000000002,-0.169657,0.084915,0.0,0.0,102.0,188.0,46.0,1.0
1163,1.633897,-0.499252,0.492681,-0.223484,-0.173868,0.014889,0.0,0.0,102.0,188.0,46.0,1.0
1164,1.623667,-0.4914810000000001,0.494669,-0.223527,-0.07943,-0.126135,0.0,0.0,102.0,188.0,46.0,1.0
1165,1.606195,-0.487512,0.500909,-0.197599,-0.045853,-0.029818,0.0,0.0,102.0,188.0,46.0,1.0
1166,1.587817,-0.487021,0.514151,-0.13577,-0.03431,0.108952,0.0,0.0,102.0,188.0,46.0,1.0
1167,1.5673,-0.486785,0.528938,-0.026155,-0.008131000000000001,0.156395,0.0,0.0,102.0,188.0,46.0,1.0
1168,1.541424,-0.485497,0.5392779999999999,0.053377,0.000927,0.010365,0.0,0.0,102.0,188.0,46.0,1.0
1169,1.509412,-0.482888,0.54252,0.091154,-0.066832,-0.197759,0.0,0.0,102.0,188.0,46.0,1.0
1170,1.474862,-0.482008,0.543429,0.105985,-0.10478,-0.206096,0.0,0.0,102.0,188.0,46.0,1.0
1171,1.440802,-0.482951,0.54311,0.103304,-0.059670000000000015,0.148845,0.0,0.0,102.0,188.0,46.0,1.0
1172,1.408519,-0.4799810000000001,0.545099,0.109177,-0.045655,0.263366,0.0,0.0,102.0,188.0,46.0,1.0
1173,1.367116,-0.470375,0.555409,0.118788,0.00964,0.263758,0.0,0.0,102.0,188.0,46.0,1.0
1174,1.303356,-0.456454,0.571973,0.222683,0.16328199999999998,-0.194905,0.0,0.0,102.0,188.0,46.0,1.0
1175,1.21665,-0.43543,0.5867220000000001,0.286342,0.254973,-0.188896,0.0,0.0,102.0,188.0,46.0,1.0
1176,1.122552,-0.414566,0.611916,0.307195,0.547601,0.225957,0.0,0.0,102.0,188.0,46.0,1.0
1177,1.040634,-0.403333,0.654452,0.17790699999999998,0.498063,0.709787,0.0,0.0,102.0,188.0,46.0,1.0
1178,0.983685,-0.394211,0.692909,0.039936,0.405135,0.740275,0.0,0.0,102.0,188.0,46.0,1.0
1179,0.947108,-0.380772,0.709675,-0.087073,0.403723,-0.053744000000000014,0.0,0.0,102.0,188.0,46.0,1.0
1180,0.934418,-0.377009,0.718913,-0.097975,0.446037,0.109388,0.0,0.0,102.0,188.0,46.0,1.0
1181,0.943516,-0.381502,0.7328640000000001,-0.093049,0.325332,0.274102,0.0,0.0,102.0,188.0,46.0,1.0
1182,0.966018,-0.388148,0.749134,-0.254751,0.176228,0.35502,0.0,0.0,102.0,188.0,46.0,1.0
1183,1.00149,-0.393885,0.764893,-0.442558,0.063899,0.338057,0.0,0.0,102.0,188.0,46.0,1.0
1184,1.053808,-0.400165,0.780921,-0.5621229999999999,-0.001661,0.228028,0.0,0.0,102.0,188.0,46.0,1.0
1185,1.116369,-0.410615,0.797168,-0.5688350000000001,-0.088825,0.165262,0.0,0.0,102.0,188.0,46.0,1.0
1186,1.180665,-0.428158,0.810032,-0.452535,-0.121586,0.062624,0.0,0.0,102.0,188.0,46.0,1.0
1187,1.2450450000000002,-0.456592,0.8204450000000001,-0.186707,0.009807,-0.115716,0.0,0.0,102.0,188.0,46.0,1.0
1188,1.312396,-0.491884,0.8371649999999999,0.044228,0.18944,-0.080898,0.0,0.0,102.0,188.0,46.0,1.0
1189,1.388726,-0.516042,0.864642,0.038503,0.222668,-0.264342,0.0,0.0,102.0,188.0,46.0,1.0
1190,1.446796,-0.526875,0.900669,0.128826,0.048939,-0.510126,0.0,0.0,102.0,188.0,46.0,1.0
1191,1.466317,-0.533176,0.931122,-0.024012,-0.07747000000000001,-0.401565,0.0,0.0,102.0,188.0,46.0,1.0
1192,1.4666629999999998,-0.530072,0.946299,-0.108936,-0.14323,-0.10702,0.0,0.0,102.0,188.0,46.0,1.0
1193,1.4779639999999998,-0.517324,0.944273,-0.28941500000000003,0.105939,-0.075056,0.0,0.0,102.0,188.0,46.0,1.0
1194,1.500593,-0.505322,0.928088,-0.351852,0.25436,-0.154304,0.0,0.0,102.0,188.0,46.0,1.0
1195,1.520967,-0.501732,0.90808,-0.19538,0.384503,0.084517,0.0,0.0,102.0,188.0,46.0,1.0
1196,1.535542,-0.502201,0.8875649999999999,-0.037648,0.5689529999999999,0.585918,0.0,0.0,102.0,188.0,46.0,1.0
1197,1.551161,-0.499054,0.884015,0.047213,0.441296,0.5292640000000001,0.0,0.0,102.0,188.0,46.0,1.0
1198,1.564047,-0.497347,0.891373,0.128722,0.386124,0.287853,0.0,0.0,102.0,188.0,46.0,1.0
1199,1.55479,-0.492448,0.878575,0.438728,0.0017640000000000004,-0.31305900000000003,0.0,0.0,102.0,188.0,46.0,1.0
1200,1.543666,-0.478243,0.8421350000000001,0.171924,-0.06224,-0.144541,0.0,0.0,102.0,188.0,46.0,1.0
1201,1.531205,-0.463006,0.8148989999999999,-0.023072,-0.125335,0.06851,0.0,0.0,102.0,188.0,46.0,1.0
1202,1.52357,-0.450124,0.7924859999999999,0.25033,0.360333,0.380977,0.0,0.0,102.0,188.0,46.0,1.0
1203,1.5345030000000002,-0.4456850000000001,0.782385,0.211148,0.264282,0.268749,0.0,0.0,102.0,188.0,46.0,1.0
1204,1.549668,-0.446324,0.7825439999999999,0.269441,0.128467,0.083999,0.0,0.0,102.0,188.0,46.0,1.0
1205,1.566001,-0.448225,0.794562,0.131813,-0.092348,0.0676,0.0,0.0,102.0,188.0,46.0,1.0
1206,1.577297,-0.447816,0.8133729999999999,-0.012323,-0.067748,-0.002533,0.0,0.0,102.0,188.0,46.0,1.0
1207,1.582796,-0.44601,0.830158,-0.119014,-0.0405,-0.107673,0.0,0.0,102.0,188.0,46.0,1.0
1208,1.585526,-0.445383,0.841548,-0.228413,-0.073686,-0.253038,0.0,0.0,102.0,188.0,46.0,1.0
1209,1.5859999999999999,-0.445479,0.8478600000000001,-0.240481,-0.114285,-0.214434,0.0,0.0,102.0,188.0,46.0,1.0
1210,1.583982,-0.44451,0.847823,-0.25458000000000003,-0.150795,-0.153581,0.0,0.0,102.0,188.0,46.0,1.0
1211,1.582507,-0.442908,0.8416469999999999,-0.07355199999999999,0.065816,0.013574,0.0,0.0,102.0,188.0,46.0,1.0
1212,1.584067,-0.4431350000000001,0.8317889999999999,0.015094,0.146147,0.075612,0.0,0.0,102.0,188.0,46.0,1.0
1213,1.58356,-0.444184,0.820257,0.15065499999999998,0.092282,-0.093358,0.0,0.0,102.0,188.0,46.0,1.0
1214,1.571612,-0.441914,0.804775,0.125958,-0.187116,-0.099386,0.0,0.0,102.0,188.0,46.0,1.0
1215,1.5435450000000002,-0.434978,0.789299,-0.025515,-0.25301,-0.244576,0.0,0.0,102.0,188.0,46.0,1.0
1216,1.497278,-0.421749,0.775467,-0.204664,-0.094476,-0.25692800000000005,0.0,0.0,102.0,188.0,46.0,1.0
1217,1.439132,-0.40666,0.759894,-0.34223000000000003,0.027613,-0.025006,0.0,0.0,102.0,188.0,46.0,1.0
1218,1.373211,-0.394935,0.7393489999999999,-0.360583,0.227587,0.138954,0.0,0.0,102.0,188.0,46.0,1.0
1219,1.295345,-0.402932,0.742769,0.086535,0.360965,0.255617,0.0,0.0,102.0,188.0,46.0,1.0
1220,1.206795,-0.395943,0.749919,0.454316,0.47977,0.182187,0.0,0.0,102.0,188.0,46.0,1.0
1221,1.133475,-0.388419,0.75669,0.5198520000000001,0.530576,0.24771,0.0,0.0,102.0,188.0,46.0,1.0
1222,1.0878290000000002,-0.389052,0.773191,0.222433,0.51702,0.427644,0.0,0.0,102.0,188.0,46.0,1.0
1223,1.059447,-0.386416,0.779964,0.145541,0.52941,0.330683,0.0,0.0,102.0,188.0,46.0,1.0
1224,1.052445,-0.385414,0.787802,-0.035279000000000005,0.489063,-0.109179,0.0,0.0,102.0,188.0,46.0,1.0
1225,1.061018,-0.392811,0.808582,-0.356514,0.021937,0.31702800000000003,0.0,0.0,102.0,188.0,46.0,1.0
1226,1.086678,-0.398987,0.8255469999999999,-0.506149,-0.015194999999999997,0.358757,0.0,0.0,102.0,188.0,46.0,1.0
1227,1.130885,-0.400636,0.8316100000000001,-0.700604,-0.043919,0.225343,0.0,0.0,102.0,188.0,46.0,1.0
1228,1.188465,-0.403357,0.8282889999999999,-0.6455609999999999,-0.02558,-0.025768,0.0,0.0,102.0,188.0,46.0,1.0
1229,1.257243,-0.416148,0.820592,-0.528505,0.030468,-0.07660299999999999,0.0,0.0,102.0,188.0,46.0,1.0
1230,1.338974,-0.450538,0.81379,-0.009783,0.58785,-0.151756,0.0,0.0,102.0,188.0,46.0,1.0
1231,1.436574,-0.492059,0.818558,0.157479,0.470521,-0.377372,0.0,0.0,102.0,188.0,46.0,1.0
1232,1.510018,-0.5173989999999999,0.8319110000000001,0.5313,0.030754000000000007,-0.712834,0.0,0.0,102.0,188.0,46.0,1.0
1233,1.514721,-0.534987,0.846249,0.35033600000000004,-0.487674,-0.466342,0.0,0.0,102.0,188.0,46.0,1.0
1234,1.5009290000000002,-0.53708,0.838814,-0.0682,-0.539659,0.033828,0.0,0.0,102.0,188.0,46.0,1.0
1235,1.511248,-0.523804,0.810355,-0.382165,-0.350672,0.42307,0.0,0.0,102.0,188.0,46.0,1.0
1236,1.535923,-0.5092270000000001,0.786931,-0.507646,0.128602,0.639192,0.0,0.0,102.0,188.0,46.0,1.0
1237,1.584279,-0.5043489999999999,0.789752,-0.442594,0.657845,0.451636,0.0,0.0,102.0,188.0,46.0,1.0
1238,1.631927,-0.499733,0.81818,-0.378696,0.6509050000000001,-0.12424,0.0,0.0,102.0,188.0,46.0,1.0
1239,1.631732,-0.504525,0.844657,0.123169,0.355033,-0.431759,0.0,0.0,102.0,188.0,46.0,1.0
