,attitude.roll,attitude.pitch,attitude.yaw,userAcceleration.x,userAcceleration.y,userAcceleration.z,act,id,weight,height,age,gender
406004,2.889062,-1.031227,-1.691213,-0.031062,-0.180715,-0.540668,0.0,13.0,70.0,180.0,35.0,1.0
406005,2.833155,-1.072516,-1.753095,-0.069733,-0.263278,-0.448236,0.0,13.0,70.0,180.0,35.0,1.0
406006,2.757064,-1.117211,-1.821333,-0.212471,-0.32368600000000003,-0.364582,0.0,13.0,70.0,180.0,35.0,1.0
406007,2.663619,-1.16943,-1.90073,-0.405869,-0.607921,-0.289993,0.0,13.0,70.0,180.0,35.0,1.0
406008,2.528713,-1.2185549999999998,-2.012861,-0.279708,-0.8336520000000001,-0.287063,0.0,13.0,70.0,180.0,35.0,1.0
406009,2.346066,-1.2534299999999998,-2.139819,-0.221605,-0.820407,-0.41582,0.0,13.0,70.0,180.0,35.0,1.0
406010,2.178617,-1.275377,-2.229043,-0.553037,-0.644516,-0.243489,0.0,13.0,70.0,180.0,35.0,1.0
406011,2.169101,-1.305304,-2.200192,-0.775095,-0.34094,0.672862,0.0,13.0,70.0,180.0,35.0,1.0
406012,2.439007,-1.332303,-2.027706,-0.812766,-0.24983200000000005,1.878257,0.0,13.0,70.0,180.0,35.0,1.0
406013,2.496736,-1.343821,-1.992325,0.06565,-0.866289,-0.664262,0.0,13.0,70.0,180.0,35.0,1.0
406014,2.416258,-1.354932,-2.063321,0.307753,-0.5878909999999999,-0.430157,0.0,13.0,70.0,180.0,35.0,1.0
406015,2.357479,-1.279906,-2.053383,0.994526,1.7026709999999998,0.735857,0.0,13.0,70.0,180.0,35.0,1.0
406016,2.348224,-1.182642,-1.98725,1.027628,2.068959,1.6898369999999998,0.0,13.0,70.0,180.0,35.0,1.0
406017,2.4972,-1.178597,-1.899701,-0.032492,-0.338865,0.140167,0.0,13.0,70.0,180.0,35.0,1.0
406018,2.653451,-1.166051,-1.821227,-0.334612,0.332323,0.16456800000000002,0.0,13.0,70.0,180.0,35.0,1.0
406019,2.735375,-1.105318,-1.756293,-0.167653,2.151453,1.182923,0.0,13.0,70.0,180.0,35.0,1.0
406020,2.828695,-1.034384,-1.650669,-0.016304,3.238704,0.060589,0.0,13.0,70.0,180.0,35.0,1.0
406021,2.908898,-0.965518,-1.556853,0.956162,0.055509,-1.185231,0.0,13.0,70.0,180.0,35.0,1.0
406022,2.916178,-0.907442,-1.520122,1.010122,-0.632322,-0.69929,0.0,13.0,70.0,180.0,35.0,1.0
406023,2.911195,-0.884157,-1.519842,0.712454,-1.225804,0.10594,0.0,13.0,70.0,180.0,35.0,1.0
406024,2.901502,-0.901454,-1.5494709999999998,0.157222,-0.193745,-0.314494,0.0,13.0,70.0,180.0,35.0,1.0
406025,2.889374,-0.941046,-1.595728,0.118073,-0.256676,-0.383357,0.0,13.0,70.0,180.0,35.0,1.0
406026,2.856656,-0.994582,-1.652983,-0.114398,-0.356003,-0.401621,0.0,13.0,70.0,180.0,35.0,1.0
406027,2.792104,-1.059464,-1.7288279999999998,-0.22841,-0.26693,-0.34986300000000004,0.0,13.0,70.0,180.0,35.0,1.0
406028,2.6838,-1.133676,-1.841555,-0.245098,-0.263549,-0.296321,0.0,13.0,70.0,180.0,35.0,1.0
406029,2.511056,-1.199717,-2.011529,-0.072558,0.09115,-0.195831,0.0,13.0,70.0,180.0,35.0,1.0
406030,2.307839,-1.236359,-2.160801,0.16891199999999998,0.251892,-0.132076,0.0,13.0,70.0,180.0,35.0,1.0
406031,2.10541,-1.268946,-2.252786,-0.021917,-0.184219,-0.121928,0.0,13.0,70.0,180.0,35.0,1.0
406032,2.069567,-1.293296,-2.209403,-0.8563129999999999,-0.5094270000000001,1.593932,0.0,13.0,70.0,180.0,35.0,1.0
406033,2.317262,-1.314094,-2.017478,-0.968407,-0.7307359999999999,1.968191,0.0,13.0,70.0,180.0,35.0,1.0
406034,2.346054,-1.351873,-2.07012,-0.059046,-0.90524,-0.558022,0.0,13.0,70.0,180.0,35.0,1.0
406035,2.263921,-1.367186,-2.198936,0.401353,0.271008,-0.295655,0.0,13.0,70.0,180.0,35.0,1.0
406036,2.31468,-1.300271,-2.1369830000000003,0.722835,2.485817,0.232798,0.0,13.0,70.0,180.0,35.0,1.0
406037,2.338338,-1.2340870000000002,-2.026971,0.300245,0.992295,0.800592,0.0,13.0,70.0,180.0,35.0,1.0
406038,2.405351,-1.231744,-1.961003,-0.209804,-0.275727,-0.244085,0.0,13.0,70.0,180.0,35.0,1.0
406039,2.4569400000000003,-1.221228,-1.932567,-0.29188000000000003,-0.430228,-0.666507,0.0,13.0,70.0,180.0,35.0,1.0
406040,2.432839,-1.202216,-1.934732,-0.12196,-0.252435,-0.415079,0.0,13.0,70.0,180.0,35.0,1.0
406041,2.356807,-1.195117,-1.974951,-0.225253,0.305078,-0.250092,0.0,13.0,70.0,180.0,35.0,1.0
406042,2.291067,-1.206504,-2.019939,-0.347735,0.08517000000000001,-0.244402,0.0,13.0,70.0,180.0,35.0,1.0
406043,2.210907,-1.237739,-2.090143,-0.430102,-0.09527,-0.12628699999999998,0.0,13.0,70.0,180.0,35.0,1.0
406044,2.105643,-1.256258,-2.185765,-0.352185,0.5748479999999999,1.130623,0.0,13.0,70.0,180.0,35.0,1.0
406045,2.0488470000000003,-1.250767,-2.251159,-0.323667,0.456765,0.461961,0.0,13.0,70.0,180.0,35.0,1.0
406046,2.018405,-1.249725,-2.298575,-0.255043,0.051895,0.246957,0.0,13.0,70.0,180.0,35.0,1.0
406047,2.019848,-1.248143,-2.298677,-0.163257,-0.431063,-0.132996,0.0,13.0,70.0,180.0,35.0,1.0
406048,2.049756,-1.236731,-2.238682,-0.189168,0.049103,-0.260956,0.0,13.0,70.0,180.0,35.0,1.0
406049,2.1041,-1.214769,-2.119001,-0.113565,0.262189,-0.08544600000000001,0.0,13.0,70.0,180.0,35.0,1.0
406050,2.189516,-1.187067,-1.966396,-0.167695,0.623674,0.292613,0.0,13.0,70.0,180.0,35.0,1.0
406051,2.285404,-1.159479,-1.841489,-0.036986,0.374649,-0.075713,0.0,13.0,70.0,180.0,35.0,1.0
406052,2.388778,-1.137718,-1.754847,0.003787,0.433432,-0.25761300000000004,0.0,13.0,70.0,180.0,35.0,1.0
406053,2.488026,-1.12266,-1.7007,0.15090599999999998,1.113835,-0.462234,0.0,13.0,70.0,180.0,35.0,1.0
406054,2.55086,-1.124315,-1.668465,-0.051638,0.885763,-0.510962,0.0,13.0,70.0,180.0,35.0,1.0
406055,2.573112,-1.14331,-1.629356,-0.238695,0.691705,-0.403836,0.0,13.0,70.0,180.0,35.0,1.0
406056,2.60746,-1.168648,-1.543131,-0.400032,0.8588610000000001,0.010946,0.0,13.0,70.0,180.0,35.0,1.0
406057,2.67631,-1.192588,-1.440548,-0.217815,0.5155420000000001,-0.5160359999999999,0.0,13.0,70.0,180.0,35.0,1.0
406058,2.715366,-1.218744,-1.343468,-0.048569,0.326058,-0.631753,0.0,13.0,70.0,180.0,35.0,1.0
406059,2.713163,-1.231727,-1.262349,0.247364,-0.03564,-0.484446,0.0,13.0,70.0,180.0,35.0,1.0
406060,2.720141,-1.230411,-1.187033,0.384988,-0.227264,-0.257852,0.0,13.0,70.0,180.0,35.0,1.0
406061,2.717461,-1.224907,-1.126522,0.323918,-0.201379,-0.24991,0.0,13.0,70.0,180.0,35.0,1.0
406062,2.692114,-1.221869,-1.081187,0.13888,-0.257748,-0.179238,0.0,13.0,70.0,180.0,35.0,1.0
406063,2.657279,-1.220743,-1.051259,0.070701,-0.235894,-0.074792,0.0,13.0,70.0,180.0,35.0,1.0
406064,2.623107,-1.220406,-1.032419,0.081355,-0.227035,-0.067466,0.0,13.0,70.0,180.0,35.0,1.0
406065,2.59147,-1.218509,-1.01643,0.07951699999999999,-0.203539,-0.27413200000000004,0.0,13.0,70.0,180.0,35.0,1.0
406066,2.568205,-1.210524,-0.992884,0.07022,-0.287958,-0.305562,0.0,13.0,70.0,180.0,35.0,1.0
406067,2.557051,-1.198818,-0.958869,0.055389,-0.344193,-0.278163,0.0,13.0,70.0,180.0,35.0,1.0
406068,2.549509,-1.188024,-0.920882,-0.000984,-0.3794300000000001,-0.237574,0.0,13.0,70.0,180.0,35.0,1.0
406069,2.536203,-1.184174,-0.886559,-0.105128,-0.37208,0.10318900000000003,0.0,13.0,70.0,180.0,35.0,1.0
406070,2.523345,-1.189034,-0.85535,-0.177926,-0.294694,0.17648,0.0,13.0,70.0,180.0,35.0,1.0
406071,2.510125,-1.200792,-0.822943,-0.335589,-0.116042,0.269381,0.0,13.0,70.0,180.0,35.0,1.0
406072,2.5339720000000003,-1.216263,-0.765692,-0.697812,0.506466,0.240011,0.0,13.0,70.0,180.0,35.0,1.0
406073,2.606382,-1.235098,-0.676021,-0.813171,0.561191,0.106442,0.0,13.0,70.0,180.0,35.0,1.0
406074,2.672663,-1.237184,-0.570759,-0.7016220000000001,0.280614,0.035255,0.0,13.0,70.0,180.0,35.0,1.0
406075,2.715387,-1.238085,-0.479345,-0.13477999999999998,-0.355622,0.200081,0.0,13.0,70.0,180.0,35.0,1.0
406076,2.737829,-1.251233,-0.429405,0.17091900000000002,0.32710100000000003,-0.180535,0.0,13.0,70.0,180.0,35.0,1.0
406077,2.750239,-1.25663,-0.414728,0.582353,1.5307879999999998,0.35754600000000003,0.0,13.0,70.0,180.0,35.0,1.0
406078,2.796887,-1.229057,-0.355504,0.348654,0.912761,0.582769,0.0,13.0,70.0,180.0,35.0,1.0
406079,2.829378,-1.193826,-0.297531,0.329359,-0.086324,0.16153299999999998,0.0,13.0,70.0,180.0,35.0,1.0
406080,2.798114,-1.195534,-0.298329,0.282546,-1.128333,-0.307723,0.0,13.0,70.0,180.0,35.0,1.0
406081,2.710603,-1.2210370000000002,-0.370531,0.030595,-0.8677389999999999,-0.8120350000000001,0.0,13.0,70.0,180.0,35.0,1.0
406082,2.596246,-1.2609709999999998,-0.498498,-0.191644,-0.67071,-0.985259,0.0,13.0,70.0,180.0,35.0,1.0
406083,2.46369,-1.290144,-0.669725,-0.418005,1.046663,-0.961267,0.0,13.0,70.0,180.0,35.0,1.0
406084,2.409581,-1.276055,-0.74068,-0.330248,1.0930799999999998,-0.252469,0.0,13.0,70.0,180.0,35.0,1.0
406085,2.40422,-1.237172,-0.705647,-0.290164,0.663384,-0.149951,0.0,13.0,70.0,180.0,35.0,1.0
406086,2.326221,-1.207604,-0.692645,0.129288,-0.103469,-0.15958,0.0,13.0,70.0,180.0,35.0,1.0
406087,2.204931,-1.197342,-0.731759,0.236339,-0.120907,-0.11428900000000003,0.0,13.0,70.0,180.0,35.0,1.0
406088,2.095199,-1.191087,-0.785509,0.268818,-0.051194,-0.185018,0.0,13.0,70.0,180.0,35.0,1.0
406089,2.01534,-1.180972,-0.808012,0.130147,0.131711,-0.284858,0.0,13.0,70.0,180.0,35.0,1.0
406090,1.916045,-1.178026,-0.8253,-0.165217,0.16481700000000002,0.00012,0.0,13.0,70.0,180.0,35.0,1.0
406091,1.805036,-1.182158,-0.8583299999999999,-0.309177,0.074757,0.202623,0.0,13.0,70.0,180.0,35.0,1.0
406092,1.7335459999999998,-1.187184,-0.885191,-0.464342,-0.092556,0.131922,0.0,13.0,70.0,180.0,35.0,1.0
406093,1.69102,-1.198314,-0.915182,-0.278125,-0.116165,-0.024116,0.0,13.0,70.0,180.0,35.0,1.0
406094,1.6458549999999998,-1.211286,-0.970679,-0.195338,-0.131107,-0.14122,0.0,13.0,70.0,180.0,35.0,1.0
406095,1.579112,-1.221241,-1.046501,0.023071,-0.119762,-0.242014,0.0,13.0,70.0,180.0,35.0,1.0
406096,1.486387,-1.225287,-1.130056,0.053979,-0.129486,-0.087383,0.0,13.0,70.0,180.0,35.0,1.0
406097,1.378629,-1.221464,-1.211149,0.046415,-0.020916,0.090638,0.0,13.0,70.0,180.0,35.0,1.0
406098,1.279198,-1.211358,-1.267104,-0.043885,0.091402,0.280031,0.0,13.0,70.0,180.0,35.0,1.0
406099,1.221701,-1.202037,-1.2787540000000002,-0.125948,0.129343,0.4276,0.0,13.0,70.0,180.0,35.0,1.0
406100,1.205141,-1.195653,-1.271959,-0.14113299999999998,0.199718,0.450013,0.0,13.0,70.0,180.0,35.0,1.0
406101,1.204902,-1.191901,-1.27309,-0.147335,0.229541,0.270847,0.0,13.0,70.0,180.0,35.0,1.0
406102,1.209309,-1.18929,-1.270722,-0.213964,0.230739,0.030801,0.0,13.0,70.0,180.0,35.0,1.0
406103,1.2117870000000002,-1.188177,-1.250092,-0.365479,0.157881,-0.097523,0.0,13.0,70.0,180.0,35.0,1.0
406104,1.205329,-1.189082,-1.21874,-0.4245390000000001,0.234204,0.075589,0.0,13.0,70.0,180.0,35.0,1.0
406105,1.206626,-1.193646,-1.183429,-0.258365,0.500046,0.289799,0.0,13.0,70.0,180.0,35.0,1.0
406106,1.24223,-1.203616,-1.135885,-0.216901,0.460379,0.289667,0.0,13.0,70.0,180.0,35.0,1.0
406107,1.322321,-1.22059,-1.055703,-0.27161,0.414595,0.205255,0.0,13.0,70.0,180.0,35.0,1.0
406108,1.469878,-1.242358,-0.896526,-0.361083,0.19452,0.345913,0.0,13.0,70.0,180.0,35.0,1.0
406109,1.699026,-1.253228,-0.623698,-0.302765,0.036956,0.35588200000000003,0.0,13.0,70.0,180.0,35.0,1.0
406110,1.93469,-1.243746,-0.342358,-0.051374,0.046338,0.020092,0.0,13.0,70.0,180.0,35.0,1.0
406111,2.138427,-1.220823,-0.128412,0.171562,0.202906,-0.1351,0.0,13.0,70.0,180.0,35.0,1.0
406112,2.319128,-1.190475,0.026091000000000003,0.035901,0.297254,-0.461262,0.0,13.0,70.0,180.0,35.0,1.0
406113,2.45391,-1.16612,0.148195,-0.227666,0.559164,-0.815557,0.0,13.0,70.0,180.0,35.0,1.0
406114,2.5231470000000003,-1.163767,0.257123,-0.343107,0.871525,-0.371461,0.0,13.0,70.0,180.0,35.0,1.0
406115,2.610749,-1.164324,0.405311,-0.389171,0.804074,-0.115785,0.0,13.0,70.0,180.0,35.0,1.0
406116,2.724677,-1.158859,0.5734600000000001,-0.282585,0.5898939999999999,-0.331176,0.0,13.0,70.0,180.0,35.0,1.0
406117,2.818832,-1.145741,0.728955,0.089295,0.222865,-0.630792,0.0,13.0,70.0,180.0,35.0,1.0
406118,2.898728,-1.12661,0.8756709999999999,0.176062,0.15421400000000002,-0.699002,0.0,13.0,70.0,180.0,35.0,1.0
406119,2.9516720000000003,-1.106397,1.003181,0.221707,-0.258303,-0.419232,0.0,13.0,70.0,180.0,35.0,1.0
406120,2.98325,-1.092087,1.10752,0.247237,-0.265535,-0.366918,0.0,13.0,70.0,180.0,35.0,1.0
406121,3.006846,-1.086202,1.194231,0.232325,-0.221168,-0.34874,0.0,13.0,70.0,180.0,35.0,1.0
406122,3.019653,-1.084898,1.265732,0.126743,-0.161615,-0.394563,0.0,13.0,70.0,180.0,35.0,1.0
406123,3.018225,-1.084435,1.321864,0.112069,-0.230948,-0.419682,0.0,13.0,70.0,180.0,35.0,1.0
406124,3.006476,-1.085404,1.362188,0.146595,-0.361192,-0.383045,0.0,13.0,70.0,180.0,35.0,1.0
406125,2.99535,-1.091748,1.391262,0.163209,-0.427717,-0.258075,0.0,13.0,70.0,180.0,35.0,1.0
406126,2.984253,-1.104252,1.408331,0.17382899999999998,-0.4421390000000001,-0.231292,0.0,13.0,70.0,180.0,35.0,1.0
406127,2.972439,-1.121036,1.413278,0.168434,-0.464852,-0.202223,0.0,13.0,70.0,180.0,35.0,1.0
406128,2.956288,-1.138601,1.408157,-0.031855,-0.395673,-0.204904,0.0,13.0,70.0,180.0,35.0,1.0
406129,2.931877,-1.154491,1.39478,-0.06485199999999999,-0.415764,-0.186414,0.0,13.0,70.0,180.0,35.0,1.0
406130,2.896305,-1.165458,1.375973,-0.078819,-0.444497,-0.167207,0.0,13.0,70.0,180.0,35.0,1.0
406131,2.851497,-1.171401,1.353406,-0.023019,-0.486116,-0.110204,0.0,13.0,70.0,180.0,35.0,1.0
406132,2.8052580000000003,-1.177215,1.330934,-0.046227,-0.439395,-0.025704,0.0,13.0,70.0,180.0,35.0,1.0
406133,2.773539,-1.190206,1.320618,-0.191712,-0.201593,0.091066,0.0,13.0,70.0,180.0,35.0,1.0
406134,2.770566,-1.212514,1.331608,-0.33234,0.207085,0.22335500000000005,0.0,13.0,70.0,180.0,35.0,1.0
406135,2.789666,-1.2396280000000002,1.356103,-0.556354,0.391556,0.214362,0.0,13.0,70.0,180.0,35.0,1.0
406136,2.804491,-1.264558,1.373688,-0.495509,0.119371,0.135726,0.0,13.0,70.0,180.0,35.0,1.0
406137,2.800878,-1.289181,1.362681,-0.231063,-0.156546,0.031469,0.0,13.0,70.0,180.0,35.0,1.0
406138,2.749427,-1.31742,1.295104,0.004905,-0.307305,-0.08587,0.0,13.0,70.0,180.0,35.0,1.0
406139,2.647914,-1.341427,1.159904,0.142171,-0.091867,-0.20079,0.0,13.0,70.0,180.0,35.0,1.0
406140,2.485739,-1.3452620000000002,0.949504,0.556453,0.590175,-0.565928,0.0,13.0,70.0,180.0,35.0,1.0
406141,2.375859,-1.320739,0.8616530000000001,1.2364879999999998,0.775853,-0.533043,0.0,13.0,70.0,180.0,35.0,1.0
406142,2.316634,-1.284741,0.91146,0.97028,0.709917,0.268594,0.0,13.0,70.0,180.0,35.0,1.0
406143,2.308925,-1.22391,0.997948,0.444821,1.109216,0.93786,0.0,13.0,70.0,180.0,35.0,1.0
406144,2.380008,-1.2025549999999998,1.059098,-0.446144,-0.48092,-0.303313,0.0,13.0,70.0,180.0,35.0,1.0
406145,2.464127,-1.200823,1.08074,-0.478909,-0.4394020000000001,-0.47653,0.0,13.0,70.0,180.0,35.0,1.0
406146,2.492532,-1.193344,1.093132,-0.480213,0.254353,-1.150831,0.0,13.0,70.0,180.0,35.0,1.0
406147,2.425754,-1.196228,1.088954,-0.174793,0.914046,-0.903748,0.0,13.0,70.0,180.0,35.0,1.0
406148,2.316828,-1.227565,1.055878,-0.053692,0.392007,-0.022541,0.0,13.0,70.0,180.0,35.0,1.0
406149,2.273291,-1.247613,1.035398,0.215466,-0.095904,0.935366,0.0,13.0,70.0,180.0,35.0,1.0
406150,2.269719,-1.261477,1.018874,0.109877,-0.14619,0.148233,0.0,13.0,70.0,180.0,35.0,1.0
406151,2.239188,-1.281187,0.967099,0.040753,-0.157818,-0.132132,0.0,13.0,70.0,180.0,35.0,1.0
406152,2.210915,-1.294575,0.921614,0.003792,-0.275249,-0.144276,0.0,13.0,70.0,180.0,35.0,1.0
406153,2.189068,-1.2970270000000002,0.8945719999999999,-0.010074,-0.395147,0.010209,0.0,13.0,70.0,180.0,35.0,1.0
406154,2.164785,-1.293584,0.8780680000000001,-0.051229,-0.313964,0.17856,0.0,13.0,70.0,180.0,35.0,1.0
406155,2.144939,-1.288192,0.8681030000000001,-0.162441,-0.21665,0.265832,0.0,13.0,70.0,180.0,35.0,1.0
406156,2.133741,-1.286616,0.8576379999999999,-0.295026,-0.178398,0.274064,0.0,13.0,70.0,180.0,35.0,1.0
406157,2.137005,-1.288761,0.851985,-0.324658,-0.195095,0.277036,0.0,13.0,70.0,180.0,35.0,1.0
406158,2.154351,-1.291504,0.855698,-0.323252,-0.205819,0.265922,0.0,13.0,70.0,180.0,35.0,1.0
406159,2.188736,-1.292995,0.876642,-0.26454,-0.135916,0.294655,0.0,13.0,70.0,180.0,35.0,1.0
406160,2.261989,-1.289368,0.93737,-0.204171,-0.140622,0.280559,0.0,13.0,70.0,180.0,35.0,1.0
406161,2.360963,-1.275644,1.03201,-0.127905,-0.206071,0.319459,0.0,13.0,70.0,180.0,35.0,1.0
406162,2.4802470000000003,-1.249364,1.138203,-0.018679,0.053978,0.267729,0.0,13.0,70.0,180.0,35.0,1.0
406163,2.600552,-1.20541,1.244499,-0.0058460000000000005,0.265889,0.051438,0.0,13.0,70.0,180.0,35.0,1.0
406164,2.686018,-1.139748,1.351459,0.158865,0.59344,-0.188241,0.0,13.0,70.0,180.0,35.0,1.0
406165,2.751941,-1.06815,1.453263,0.185929,0.766771,-0.250824,0.0,13.0,70.0,180.0,35.0,1.0
406166,2.801594,-1.013811,1.529989,0.108134,0.733316,-0.5606369999999999,0.0,13.0,70.0,180.0,35.0,1.0
406167,2.819232,-0.982078,1.576596,0.35899200000000003,0.115307,-0.087421,0.0,13.0,70.0,180.0,35.0,1.0
406168,2.830751,-0.964037,1.596595,0.394765,-0.065092,0.142927,0.0,13.0,70.0,180.0,35.0,1.0
406169,2.841213,-0.962104,1.605897,0.214681,-0.019707,-0.05089,0.0,13.0,70.0,180.0,35.0,1.0
406170,2.8362830000000003,-0.978364,1.5902969999999998,-0.001659,-0.17666099999999998,-0.08591599999999999,0.0,13.0,70.0,180.0,35.0,1.0
406171,2.822355,-1.011078,1.555507,0.090309,-0.222603,-0.242706,0.0,13.0,70.0,180.0,35.0,1.0
406172,2.792659,-1.058079,1.503364,0.12391,-0.22609,-0.329835,0.0,13.0,70.0,180.0,35.0,1.0
406173,2.728325,-1.114755,1.42451,0.132096,-0.244971,-0.386627,0.0,13.0,70.0,180.0,35.0,1.0
406174,2.625494,-1.169382,1.313615,0.111597,-0.25069400000000003,-0.380187,0.0,13.0,70.0,180.0,35.0,1.0
406175,2.48482,-1.213367,1.176019,0.086511,-0.131883,-0.36668,0.0,13.0,70.0,180.0,35.0,1.0
406176,2.306862,-1.246157,1.031103,-0.125687,-0.328961,-0.266086,0.0,13.0,70.0,180.0,35.0,1.0
406177,2.1030740000000003,-1.270413,0.9003329999999999,-0.435719,-0.649666,0.07239,0.0,13.0,70.0,180.0,35.0,1.0
406178,1.937978,-1.292524,0.8209059999999999,-0.8526799999999999,-0.6885979999999999,0.6333840000000001,0.0,13.0,70.0,180.0,35.0,1.0
406179,1.922555,-1.313778,0.8442379999999999,-1.144621,-0.484257,1.426837,0.0,13.0,70.0,180.0,35.0,1.0
406180,2.09721,-1.326537,0.968736,-0.707568,-0.70489,0.7539819999999999,0.0,13.0,70.0,180.0,35.0,1.0
406181,2.15889,-1.343828,0.981425,0.031151,-0.80257,-0.443104,0.0,13.0,70.0,180.0,35.0,1.0
406182,2.145393,-1.36016,0.939768,0.364139,-0.6084069999999999,-0.280672,0.0,13.0,70.0,180.0,35.0,1.0
406183,2.235619,-1.308412,1.109538,1.243919,1.519348,1.23462,0.0,13.0,70.0,180.0,35.0,1.0
406184,2.339548,-1.22448,1.3090389999999998,0.526072,1.742705,1.076238,0.0,13.0,70.0,180.0,35.0,1.0
406185,2.49988,-1.222142,1.390143,-0.214988,-0.21762,0.190745,0.0,13.0,70.0,180.0,35.0,1.0
406186,2.661852,-1.208167,1.473061,-0.479934,-0.621567,-0.390479,0.0,13.0,70.0,180.0,35.0,1.0
406187,2.76178,-1.163333,1.546187,-0.472847,-0.332985,0.317814,0.0,13.0,70.0,180.0,35.0,1.0
406188,2.832319,-1.091241,1.598487,-0.041965,1.2835,0.325339,0.0,13.0,70.0,180.0,35.0,1.0
406189,2.866132,-1.028088,1.6546900000000002,0.489351,2.11616,-0.970054,0.0,13.0,70.0,180.0,35.0,1.0
406190,2.91051,-0.981142,1.7069759999999998,0.98838,1.335691,-1.201952,0.0,13.0,70.0,180.0,35.0,1.0
406191,2.919858,-0.942329,1.7360080000000002,1.222865,-0.31092800000000004,0.160772,0.0,13.0,70.0,180.0,35.0,1.0
406192,2.925625,-0.936012,1.739119,0.463897,-0.74746,0.224728,0.0,13.0,70.0,180.0,35.0,1.0
406193,2.921687,-0.964356,1.6988009999999998,-0.029905,-0.528515,-0.3543,0.0,13.0,70.0,180.0,35.0,1.0
406194,2.898928,-1.009822,1.631772,-0.023573,-0.344494,-0.414189,0.0,13.0,70.0,180.0,35.0,1.0
406195,2.847714,-1.063994,1.563998,0.043315,0.086423,-0.465809,0.0,13.0,70.0,180.0,35.0,1.0
406196,2.7751080000000004,-1.124909,1.4979360000000002,-0.128137,-0.054221000000000005,-0.350022,0.0,13.0,70.0,180.0,35.0,1.0
406197,2.687431,-1.181882,1.429869,-0.399841,-0.5787479999999999,-0.233445,0.0,13.0,70.0,180.0,35.0,1.0
406198,2.587898,-1.224182,1.37044,-0.392073,-0.877067,-0.258058,0.0,13.0,70.0,180.0,35.0,1.0
406199,2.493162,-1.256685,1.340774,-0.558639,-0.825507,-0.4134350000000001,0.0,13.0,70.0,180.0,35.0,1.0
406200,2.524037,-1.287497,1.394339,-0.645088,-0.694574,0.08881599999999999,0.0,13.0,70.0,180.0,35.0,1.0
406201,2.682004,-1.286999,1.513869,-0.688718,-0.777046,1.326383,0.0,13.0,70.0,180.0,35.0,1.0
406202,2.623742,-1.287739,1.495391,0.017112,-0.653108,-0.40057,0.0,13.0,70.0,180.0,35.0,1.0
406203,2.561483,-1.259223,1.475429,0.27670500000000003,0.481436,1.374243,0.0,13.0,70.0,180.0,35.0,1.0
406204,2.563195,-1.188302,1.494611,0.601272,1.24101,-0.495447,0.0,13.0,70.0,180.0,35.0,1.0
406205,2.676788,-1.161334,1.5539,0.333127,-0.063529,-0.306228,0.0,13.0,70.0,180.0,35.0,1.0
406206,2.738019,-1.132397,1.57979,-0.070601,-1.093375,-0.529137,0.0,13.0,70.0,180.0,35.0,1.0
406207,2.768286,-1.113489,1.581236,-0.332061,-0.397458,0.815042,0.0,13.0,70.0,180.0,35.0,1.0
406208,2.850503,-1.087443,1.597351,-0.301137,0.160365,0.8774930000000001,0.0,13.0,70.0,180.0,35.0,1.0
406209,2.903451,-1.041384,1.621663,-0.1363,3.3146760000000004,-0.25752800000000003,0.0,13.0,70.0,180.0,35.0,1.0
406210,2.967085,-0.981911,1.691598,0.183746,2.47241,-0.907289,0.0,13.0,70.0,180.0,35.0,1.0
406211,2.977641,-0.915785,1.740389,0.7322529999999999,0.463688,-1.432009,0.0,13.0,70.0,180.0,35.0,1.0
406212,2.952426,-0.8774540000000001,1.7561669999999998,0.413085,-0.984355,0.32958000000000004,0.0,13.0,70.0,180.0,35.0,1.0
406213,2.942177,-0.8746219999999999,1.7491330000000005,0.234429,-0.378492,0.24025700000000005,0.0,13.0,70.0,180.0,35.0,1.0
406214,2.9510240000000003,-0.904463,1.733907,0.362244,0.14689000000000002,0.085007,0.0,13.0,70.0,180.0,35.0,1.0
406215,2.947647,-0.957099,1.698275,0.145873,-0.191151,-0.323413,0.0,13.0,70.0,180.0,35.0,1.0
406216,2.926918,-1.021877,1.64959,0.035715,-0.091813,-0.4855890000000001,0.0,13.0,70.0,180.0,35.0,1.0
406217,2.879603,-1.093691,1.594157,-0.031046,-0.098579,-0.477109,0.0,13.0,70.0,180.0,35.0,1.0
406218,2.793027,-1.16388,1.515435,-0.17941400000000002,-0.247844,-0.332732,0.0,13.0,70.0,180.0,35.0,1.0
406219,2.665744,-1.218972,1.4161629999999998,-0.17591500000000002,-0.463892,-0.339941,0.0,13.0,70.0,180.0,35.0,1.0
406220,2.499458,-1.261387,1.3158299999999998,-0.16796,-0.673125,-0.326182,0.0,13.0,70.0,180.0,35.0,1.0
406221,2.329612,-1.294652,1.2347549999999998,-0.5295880000000001,-0.8401200000000001,0.097512,0.0,13.0,70.0,180.0,35.0,1.0
406222,2.357852,-1.309924,1.284399,-1.0122,-0.357996,2.265882,0.0,13.0,70.0,180.0,35.0,1.0
406223,2.509736,-1.316556,1.346677,-0.29461,-0.5050560000000001,0.559958,0.0,13.0,70.0,180.0,35.0,1.0
406224,2.500161,-1.333037,1.3147799999999998,0.147635,-0.928793,-0.664358,0.0,13.0,70.0,180.0,35.0,1.0
406225,2.437146,-1.356914,1.23626,0.398338,-0.6403760000000001,-0.480259,0.0,13.0,70.0,180.0,35.0,1.0
406226,2.517374,-1.262605,1.407562,1.214114,1.610181,1.544974,0.0,13.0,70.0,180.0,35.0,1.0
406227,2.504243,-1.183432,1.475413,0.368491,1.832393,1.805253,0.0,13.0,70.0,180.0,35.0,1.0
406228,2.6707080000000003,-1.197336,1.522784,-0.154609,-0.613367,-0.707397,0.0,13.0,70.0,180.0,35.0,1.0
406229,2.829622,-1.195884,1.572824,-0.390061,-0.763258,-1.066533,0.0,13.0,70.0,180.0,35.0,1.0
406230,2.907069,-1.184398,1.613571,-0.5156430000000001,-0.097339,-0.832176,0.0,13.0,70.0,180.0,35.0,1.0
406231,2.924593,-1.157585,1.635174,-0.6368689999999999,3.615704,1.131364,0.0,13.0,70.0,180.0,35.0,1.0
406232,3.006601,-1.101668,1.706679,-0.122079,3.575231,0.474428,0.0,13.0,70.0,180.0,35.0,1.0
406233,3.108653,-1.034742,1.800818,0.828257,1.079967,-0.8842190000000001,0.0,13.0,70.0,180.0,35.0,1.0
406234,3.112299,-0.962325,1.858829,1.31419,0.045917,-0.8731399999999999,0.0,13.0,70.0,180.0,35.0,1.0
406235,3.096765,-0.923436,1.872292,0.631147,-0.9304,-0.058407000000000014,0.0,13.0,70.0,180.0,35.0,1.0
406236,3.096476,-0.920862,1.850768,0.401312,-0.54501,0.137061,0.0,13.0,70.0,180.0,35.0,1.0
406237,3.093434,-0.939328,1.812488,0.159676,0.067137,-0.211822,0.0,13.0,70.0,180.0,35.0,1.0
406238,3.075802,-0.974104,1.769952,0.123855,0.158153,-0.429161,0.0,13.0,70.0,180.0,35.0,1.0
406239,3.044044,-1.01952,1.724996,0.22108200000000006,0.104122,-0.281216,0.0,13.0,70.0,180.0,35.0,1.0
406240,2.998558,-1.075132,1.671371,0.093824,-0.091369,-0.32586,0.0,13.0,70.0,180.0,35.0,1.0
406241,2.920556,-1.1424450000000002,1.596797,-0.01317,-0.203887,-0.314259,0.0,13.0,70.0,180.0,35.0,1.0
406242,2.79435,-1.211151,1.486758,-0.128571,-0.310152,-0.313965,0.0,13.0,70.0,180.0,35.0,1.0
406243,2.610555,-1.267869,1.343652,-0.106624,-0.389434,-0.5597479999999999,0.0,13.0,70.0,180.0,35.0,1.0
406244,2.386356,-1.3129620000000002,1.1886139999999998,-0.244483,-0.503092,-0.447115,0.0,13.0,70.0,180.0,35.0,1.0
406245,2.18851,-1.348808,1.061116,-0.60111,-0.7462439999999999,-0.061824,0.0,13.0,70.0,180.0,35.0,1.0
406246,2.175161,-1.372892,1.0671540000000002,-0.930551,-0.703168,1.667347,0.0,13.0,70.0,180.0,35.0,1.0
406247,2.362345,-1.374344,1.2000030000000002,-0.68517,-0.5551520000000001,1.473746,0.0,13.0,70.0,180.0,35.0,1.0
406248,2.481162,-1.378654,1.257273,-0.087603,-0.663024,-0.174745,0.0,13.0,70.0,180.0,35.0,1.0
406249,2.490875,-1.398416,1.23616,0.319896,-0.598476,-0.613097,0.0,13.0,70.0,180.0,35.0,1.0
406250,2.4727,-1.383034,1.247635,0.501238,-0.105776,-0.485471,0.0,13.0,70.0,180.0,35.0,1.0
406251,2.463229,-1.261788,1.399369,0.804845,2.53589,1.985553,0.0,13.0,70.0,180.0,35.0,1.0
406252,2.606117,-1.255333,1.493511,-0.164854,0.74733,0.479129,0.0,13.0,70.0,180.0,35.0,1.0
406253,2.7706060000000003,-1.250611,1.567864,-0.285766,-0.785053,-1.007761,0.0,13.0,70.0,180.0,35.0,1.0
406254,2.851541,-1.222861,1.618574,-0.371486,-0.703522,-0.25106100000000003,0.0,13.0,70.0,180.0,35.0,1.0
406255,2.860506,-1.200962,1.624457,-0.270359,0.240525,1.069261,0.0,13.0,70.0,180.0,35.0,1.0
406256,2.9129970000000003,-1.143813,1.6598389999999998,-0.211734,1.582823,1.167617,0.0,13.0,70.0,180.0,35.0,1.0
406257,2.996608,-1.0718219999999998,1.753532,0.207277,2.123742,0.032676,0.0,13.0,70.0,180.0,35.0,1.0
406258,3.064233,-0.979645,1.83966,0.792882,0.593956,-1.183045,0.0,13.0,70.0,180.0,35.0,1.0
406259,3.0692,-0.906621,1.883247,0.854432,0.074666,-1.153918,0.0,13.0,70.0,180.0,35.0,1.0
406260,3.056595,-0.871151,1.882315,0.4617350000000001,-0.753001,0.130734,0.0,13.0,70.0,180.0,35.0,1.0
406261,3.0506830000000003,-0.8573700000000001,1.869537,0.316855,0.030573000000000006,-0.076788,0.0,13.0,70.0,180.0,35.0,1.0
406262,3.047459,-0.8658899999999999,1.851195,0.160912,0.001115,-0.207683,0.0,13.0,70.0,180.0,35.0,1.0
406263,3.0311630000000003,-0.8931969999999999,1.821435,0.009371,-0.352536,-0.441051,0.0,13.0,70.0,180.0,35.0,1.0
406264,2.998818,-0.933611,1.7845,0.025973000000000003,-0.443132,-0.366925,0.0,13.0,70.0,180.0,35.0,1.0
406265,2.958383,-0.985315,1.746287,-0.023878,-0.452801,-0.297134,0.0,13.0,70.0,180.0,35.0,1.0
406266,2.90319,-1.053183,1.697734,-0.055249,-0.41629,-0.3776,0.0,13.0,70.0,180.0,35.0,1.0
406267,2.815859,-1.126274,1.62008,0.063074,-0.40628,-0.5963930000000001,0.0,13.0,70.0,180.0,35.0,1.0
406268,2.668964,-1.1838959999999998,1.5006620000000002,0.12498800000000003,-0.214306,-0.654984,0.0,13.0,70.0,180.0,35.0,1.0
406269,2.4937970000000003,-1.228173,1.390084,0.285418,1.229876,-0.218092,0.0,13.0,70.0,180.0,35.0,1.0
406270,2.340505,-1.267412,1.32535,-0.349791,-0.241806,1.267098,0.0,13.0,70.0,180.0,35.0,1.0
406271,2.340268,-1.291074,1.351676,-0.595723,-0.337505,1.572299,0.0,13.0,70.0,180.0,35.0,1.0
406272,2.504685,-1.303089,1.457183,-0.557765,-0.669107,0.41074,0.0,13.0,70.0,180.0,35.0,1.0
406273,2.562868,-1.328011,1.452176,-0.093833,-0.8729399999999999,-0.846355,0.0,13.0,70.0,180.0,35.0,1.0
406274,2.598973,-1.346791,1.455925,0.195733,-0.656961,-0.8521850000000001,0.0,13.0,70.0,180.0,35.0,1.0
406275,2.622011,-1.333144,1.500853,0.44091,0.554977,-0.458869,0.0,13.0,70.0,180.0,35.0,1.0
406276,2.494437,-1.248239,1.551262,1.359431,2.803403,2.854661,0.0,13.0,70.0,180.0,35.0,1.0
406277,2.619936,-1.241041,1.623599,-0.24356,-0.089188,-0.205502,0.0,13.0,70.0,180.0,35.0,1.0
406278,2.734392,-1.247818,1.654595,-0.343916,-0.686041,-0.944669,0.0,13.0,70.0,180.0,35.0,1.0
406279,2.73522,-1.239811,1.65618,-0.362037,-0.527159,-0.8238540000000001,0.0,13.0,70.0,180.0,35.0,1.0
406280,2.642298,-1.251609,1.605701,-0.25647800000000004,-0.010175,-0.27460100000000004,0.0,13.0,70.0,180.0,35.0,1.0
406281,2.572214,-1.26713,1.560619,-0.238383,0.575661,0.819063,0.0,13.0,70.0,180.0,35.0,1.0
406282,2.581029,-1.275508,1.555903,-0.017133000000000002,0.511849,0.30545,0.0,13.0,70.0,180.0,35.0,1.0
406283,2.589267,-1.284726,1.550301,-0.011716,0.017401,0.11764,0.0,13.0,70.0,180.0,35.0,1.0
406284,2.611201,-1.285929,1.563223,-0.24893,-0.229261,0.246794,0.0,13.0,70.0,180.0,35.0,1.0
406285,2.668504,-1.272544,1.602417,-0.239923,-0.03976,0.022589,0.0,13.0,70.0,180.0,35.0,1.0
406286,2.739863,-1.240244,1.666257,-0.013688,0.237593,0.13566199999999998,0.0,13.0,70.0,180.0,35.0,1.0
406287,2.792648,-1.192008,1.7321810000000002,0.215438,0.71406,0.32635,0.0,13.0,70.0,180.0,35.0,1.0
406288,2.8340490000000003,-1.143571,1.778503,0.353116,0.608069,-0.033394,0.0,13.0,70.0,180.0,35.0,1.0
406289,2.874592,-1.096893,1.817858,0.369416,0.434273,-0.314154,0.0,13.0,70.0,180.0,35.0,1.0
406290,2.899636,-1.060432,1.848078,0.415884,0.33463200000000004,-0.516456,0.0,13.0,70.0,180.0,35.0,1.0
406291,2.910073,-1.03917,1.865939,0.214826,-0.094573,-0.4129350000000001,0.0,13.0,70.0,180.0,35.0,1.0
406292,2.911342,-1.023132,1.878488,0.098681,-0.17816,-0.139399,0.0,13.0,70.0,180.0,35.0,1.0
406293,2.921703,-1.015903,1.893349,-0.065113,0.0022010000000000003,-0.007087,0.0,13.0,70.0,180.0,35.0,1.0
406294,2.940667,-1.020074,1.912344,-0.328621,-0.016513999999999997,-0.19939,0.0,13.0,70.0,180.0,35.0,1.0
406295,2.958067,-1.032183,1.927141,-0.094786,-0.114494,-0.218901,0.0,13.0,70.0,180.0,35.0,1.0
406296,2.97226,-1.055588,1.940504,0.067173,-0.202313,-0.323711,0.0,13.0,70.0,180.0,35.0,1.0
406297,2.967773,-1.085017,1.943332,0.14421199999999998,-0.276081,-0.343604,0.0,13.0,70.0,180.0,35.0,1.0
406298,2.959021,-1.11389,1.939012,0.26850300000000005,-0.403479,-0.344806,0.0,13.0,70.0,180.0,35.0,1.0
406299,2.945875,-1.141812,1.924444,0.15223499999999998,-0.501186,-0.321671,0.0,13.0,70.0,180.0,35.0,1.0
406300,2.905347,-1.172743,1.886777,0.070621,-0.529163,-0.273631,0.0,13.0,70.0,180.0,35.0,1.0
406301,2.815567,-1.20536,1.816483,0.010927,-0.299782,-0.151947,0.0,13.0,70.0,180.0,35.0,1.0
406302,2.686674,-1.229688,1.731567,0.089781,-0.041536,0.254622,0.0,13.0,70.0,180.0,35.0,1.0
406303,2.577068,-1.233831,1.672406,0.094245,0.049783,0.625674,0.0,13.0,70.0,180.0,35.0,1.0
406304,2.552711,-1.220684,1.665507,-0.190835,0.132825,1.143666,0.0,13.0,70.0,180.0,35.0,1.0
406305,2.594903,-1.208815,1.687785,-0.449356,0.07405,0.752495,0.0,13.0,70.0,180.0,35.0,1.0
406306,2.6341490000000003,-1.20698,1.7116189999999998,-0.502311,-0.078604,0.239001,0.0,13.0,70.0,180.0,35.0,1.0
406307,2.65315,-1.21084,1.739756,-0.457201,-0.175246,0.01705,0.0,13.0,70.0,180.0,35.0,1.0
406308,2.685467,-1.204051,1.78529,-0.161834,0.329303,-0.23190700000000006,0.0,13.0,70.0,180.0,35.0,1.0
406309,2.724916,-1.199373,1.81328,0.037588,0.528058,-1.129555,0.0,13.0,70.0,180.0,35.0,1.0
406310,2.717512,-1.200718,1.803748,0.550574,0.993848,-1.214978,0.0,13.0,70.0,180.0,35.0,1.0
406311,2.720957,-1.182949,1.813944,1.114336,2.370677,2.089664,0.0,13.0,70.0,180.0,35.0,1.0
406312,2.774395,-1.161545,1.863236,-0.281556,0.160172,-0.723598,0.0,13.0,70.0,180.0,35.0,1.0
406313,2.78252,-1.160854,1.875726,0.036642,-0.313231,-0.776595,0.0,13.0,70.0,180.0,35.0,1.0
406314,2.75545,-1.149723,1.861267,0.366157,0.376274,-0.907772,0.0,13.0,70.0,180.0,35.0,1.0
406315,2.684651,-1.156353,1.825666,0.400888,0.856525,-0.729241,0.0,13.0,70.0,180.0,35.0,1.0
406316,2.5792900000000003,-1.193397,1.767313,0.352504,0.5077520000000001,-0.053921,0.0,13.0,70.0,180.0,35.0,1.0
406317,2.5094830000000004,-1.220616,1.712034,0.226317,0.271169,0.329193,0.0,13.0,70.0,180.0,35.0,1.0
406318,2.474908,-1.247316,1.6642720000000002,-0.235519,0.237748,-0.158525,0.0,13.0,70.0,180.0,35.0,1.0
406319,2.417994,-1.277843,1.594336,-0.242298,0.046801,-0.28136,0.0,13.0,70.0,180.0,35.0,1.0
406320,2.342366,-1.302125,1.518643,-0.135041,-0.286695,-0.32952600000000004,0.0,13.0,70.0,180.0,35.0,1.0
406321,2.248897,-1.318324,1.443174,0.045611,-0.448263,-0.178475,0.0,13.0,70.0,180.0,35.0,1.0
406322,2.137511,-1.327779,1.364701,0.119712,-0.4125720000000001,-0.030643,0.0,13.0,70.0,180.0,35.0,1.0
406323,2.038148,-1.330118,1.299899,0.042193,-0.245835,0.065969,0.0,13.0,70.0,180.0,35.0,1.0
406324,1.952252,-1.331977,1.236974,-0.077734,-0.12886,0.101681,0.0,13.0,70.0,180.0,35.0,1.0
406325,1.869498,-1.333958,1.162739,-0.14663099999999998,-0.112069,0.051789,0.0,13.0,70.0,180.0,35.0,1.0
406326,1.800544,-1.335036,1.093631,-0.128733,-0.096452,-0.096468,0.0,13.0,70.0,180.0,35.0,1.0
406327,1.732476,-1.336174,1.022326,-0.090158,-0.022376,-0.111428,0.0,13.0,70.0,180.0,35.0,1.0
406328,1.646025,-1.336151,0.931839,-0.07595299999999999,0.126494,0.033643,0.0,13.0,70.0,180.0,35.0,1.0
406329,1.561515,-1.332439,0.8438979999999999,-0.094293,0.173949,0.139353,0.0,13.0,70.0,180.0,35.0,1.0
406330,1.508832,-1.325501,0.792639,-0.197268,0.16467,0.120216,0.0,13.0,70.0,180.0,35.0,1.0
406331,1.484369,-1.317708,0.774558,-0.228904,0.143337,0.126549,0.0,13.0,70.0,180.0,35.0,1.0
406332,1.473859,-1.310866,0.765609,-0.306279,0.098564,0.062915,0.0,13.0,70.0,180.0,35.0,1.0
406333,1.46988,-1.307027,0.758361,-0.376228,0.030146,-0.215784,0.0,13.0,70.0,180.0,35.0,1.0
406334,1.445014,-1.303553,0.735919,-0.35018,-0.009699,-0.25154,0.0,13.0,70.0,180.0,35.0,1.0
406335,1.401968,-1.299758,0.703866,-0.265296,-0.010948,-0.16070299999999998,0.0,13.0,70.0,180.0,35.0,1.0
406336,1.355177,-1.294826,0.670461,-0.232507,0.016094999999999998,0.001901,0.0,13.0,70.0,180.0,35.0,1.0
406337,1.319224,-1.288751,0.6463720000000001,-0.214198,0.044410000000000005,0.108374,0.0,13.0,70.0,180.0,35.0,1.0
406338,1.298438,-1.282198,0.636772,-0.22611,0.078984,0.148505,0.0,13.0,70.0,180.0,35.0,1.0
406339,1.291975,-1.27573,0.640413,-0.255629,0.092518,0.132083,0.0,13.0,70.0,180.0,35.0,1.0
406340,1.290787,-1.269587,0.649944,-0.326866,0.110085,0.0864,0.0,13.0,70.0,180.0,35.0,1.0
406341,1.288506,-1.263968,0.660975,-0.395991,0.119534,0.119213,0.0,13.0,70.0,180.0,35.0,1.0
406342,1.292041,-1.26156,0.681082,-0.42727,0.140543,0.1369,0.0,13.0,70.0,180.0,35.0,1.0
406343,1.302068,-1.263931,0.7112109999999999,-0.387876,0.251564,0.120316,0.0,13.0,70.0,180.0,35.0,1.0
406344,1.308126,-1.264134,0.741929,-0.328996,0.2593,0.05804500000000001,0.0,13.0,70.0,180.0,35.0,1.0
406345,1.33929,-1.265709,0.803076,-0.29834,0.272833,0.003291,0.0,13.0,70.0,180.0,35.0,1.0
406346,1.400154,-1.26857,0.896178,-0.235702,0.292928,0.025459,0.0,13.0,70.0,180.0,35.0,1.0
406347,1.488758,-1.272339,1.014732,-0.065331,0.198628,0.138277,0.0,13.0,70.0,180.0,35.0,1.0
406348,1.62713,-1.274682,1.170742,-0.006854000000000001,0.102833,0.1413,0.0,13.0,70.0,180.0,35.0,1.0
406349,1.809407,-1.269044,1.358193,0.018055,0.06364600000000001,0.084437,0.0,13.0,70.0,180.0,35.0,1.0
406350,1.99426,-1.254284,1.546651,0.048716,0.081274,0.12579400000000002,0.0,13.0,70.0,180.0,35.0,1.0
406351,2.154615,-1.235607,1.697939,-0.054945000000000015,0.08000499999999999,-0.009427,0.0,13.0,70.0,180.0,35.0,1.0
406352,2.298828,-1.222343,1.81947,-0.148923,0.14425,-0.168936,0.0,13.0,70.0,180.0,35.0,1.0
406353,2.426654,-1.211182,1.944957,-0.352527,0.319781,-0.6882689999999999,0.0,13.0,70.0,180.0,35.0,1.0
406354,2.510729,-1.206164,2.067193,-0.401653,0.518122,-0.78105,0.0,13.0,70.0,180.0,35.0,1.0
406355,2.575537,-1.2141620000000002,2.2094970000000003,-0.440072,0.492443,-0.604783,0.0,13.0,70.0,180.0,35.0,1.0
406356,2.667698,-1.225994,2.388811,-0.4508970000000001,0.409505,-0.486486,0.0,13.0,70.0,180.0,35.0,1.0
406357,2.766018,-1.237282,2.576682,-0.276221,0.328616,-0.5665819999999999,0.0,13.0,70.0,180.0,35.0,1.0
406358,2.852901,-1.244086,2.76472,-0.198498,0.136347,-0.768871,0.0,13.0,70.0,180.0,35.0,1.0
406359,2.9141790000000003,-1.241242,2.945455,-0.16598,0.039485,-0.852273,0.0,13.0,70.0,180.0,35.0,1.0
406360,2.951148,-1.231269,3.111827,-0.134118,0.059789,-0.712911,0.0,13.0,70.0,180.0,35.0,1.0
406361,2.983046,-1.224359,-3.017989,-0.031956,0.096597,-0.400136,0.0,13.0,70.0,180.0,35.0,1.0
406362,3.024373,-1.228748,-2.867269,0.121265,0.097924,-0.4539760000000001,0.0,13.0,70.0,180.0,35.0,1.0
406363,3.056001,-1.236379,-2.724931,0.186999,0.04104,-0.529283,0.0,13.0,70.0,180.0,35.0,1.0
406364,3.064382,-1.242309,-2.605886,0.202182,0.003069,-0.450933,0.0,13.0,70.0,180.0,35.0,1.0
406365,3.04442,-1.247214,-2.517121,0.21852600000000005,-0.028821,-0.390907,0.0,13.0,70.0,180.0,35.0,1.0
406366,3.001388,-1.249401,-2.455334,0.111816,-0.024265,-0.386487,0.0,13.0,70.0,180.0,35.0,1.0
406367,2.948024,-1.249401,-2.411721,0.085079,-0.023838,-0.36887,0.0,13.0,70.0,180.0,35.0,1.0
406368,2.895535,-1.248884,-2.3781380000000003,0.089516,-0.046380000000000005,-0.316828,0.0,13.0,70.0,180.0,35.0,1.0
406369,2.847175,-1.247855,-2.353103,0.101086,-0.097354,-0.251436,0.0,13.0,70.0,180.0,35.0,1.0
406370,2.799205,-1.246011,-2.338479,0.12798900000000002,-0.169399,-0.204326,0.0,13.0,70.0,180.0,35.0,1.0
406371,2.751353,-1.242927,-2.332233,0.162,-0.273147,-0.183446,0.0,13.0,70.0,180.0,35.0,1.0
406372,2.702693,-1.240113,-2.333729,0.118604,-0.347508,-0.081005,0.0,13.0,70.0,180.0,35.0,1.0
406373,2.658057,-1.240275,-2.334416,-0.008728,-0.359554,0.058713,0.0,13.0,70.0,180.0,35.0,1.0
406374,2.615012,-1.242526,-2.325792,-0.241592,-0.204658,0.21367600000000006,0.0,13.0,70.0,180.0,35.0,1.0
406375,2.580821,-1.242184,-2.297186,-0.572349,0.237392,0.6658810000000001,0.0,13.0,70.0,180.0,35.0,1.0
406376,2.585443,-1.241078,-2.242084,-0.689587,0.31216700000000003,0.415193,0.0,13.0,70.0,180.0,35.0,1.0
406377,2.6183110000000003,-1.234876,-2.166145,-0.4969560000000001,0.216186,0.195601,0.0,13.0,70.0,180.0,35.0,1.0
406378,2.665032,-1.220662,-2.074838,0.004696,0.926976,0.144678,0.0,13.0,70.0,180.0,35.0,1.0
406379,2.70929,-1.202292,-2.01397,0.211388,1.449289,-0.35433000000000003,0.0,13.0,70.0,180.0,35.0,1.0
406380,2.736671,-1.170778,-1.977727,0.917889,0.588666,-0.698576,0.0,13.0,70.0,180.0,35.0,1.0
406381,2.702847,-1.158323,-1.98334,0.361278,-0.918818,0.057263,0.0,13.0,70.0,180.0,35.0,1.0
406382,2.655035,-1.179392,-2.031944,0.095703,-0.7571680000000001,0.016321000000000002,0.0,13.0,70.0,180.0,35.0,1.0
406383,2.624874,-1.221298,-2.111634,-0.596657,-0.358627,-1.330539,0.0,13.0,70.0,180.0,35.0,1.0
406384,2.55448,-1.241787,-2.217609,-0.413909,0.471606,-0.967665,0.0,13.0,70.0,180.0,35.0,1.0
406385,2.463559,-1.208971,-2.302851,-0.295295,0.917912,-0.430054,0.0,13.0,70.0,180.0,35.0,1.0
406386,2.378041,-1.178665,-2.335991,-0.281225,0.631293,-0.139909,0.0,13.0,70.0,180.0,35.0,1.0
406387,2.315017,-1.177737,-2.343236,-0.223264,0.174845,0.240486,0.0,13.0,70.0,180.0,35.0,1.0
406388,2.264545,-1.193352,-2.358891,-0.121888,0.006212,0.159761,0.0,13.0,70.0,180.0,35.0,1.0
406389,2.210666,-1.212151,-2.380651,0.06450399999999999,-0.16524,-0.02379,0.0,13.0,70.0,180.0,35.0,1.0
406390,2.146248,-1.228546,-2.416845,-0.023604,-0.156403,0.105293,0.0,13.0,70.0,180.0,35.0,1.0
406391,2.086271,-1.239527,-2.455388,-0.051320000000000005,-0.135923,0.149137,0.0,13.0,70.0,180.0,35.0,1.0
406392,2.040432,-1.248344,-2.485916,-0.173665,-0.051031,0.103185,0.0,13.0,70.0,180.0,35.0,1.0
406393,2.002934,-1.25736,-2.512794,-0.221603,-0.061387,0.080342,0.0,13.0,70.0,180.0,35.0,1.0
406394,1.978521,-1.265436,-2.530485,-0.239308,-0.08076799999999999,-0.026572,0.0,13.0,70.0,180.0,35.0,1.0
406395,1.960715,-1.271346,-2.542862,-0.119377,-0.141152,-0.010416,0.0,13.0,70.0,180.0,35.0,1.0
406396,1.936396,-1.276613,-2.557029,-0.105311,-0.146172,0.117026,0.0,13.0,70.0,180.0,35.0,1.0
406397,1.914246,-1.281707,-2.569476,-0.12295,-0.149224,0.184217,0.0,13.0,70.0,180.0,35.0,1.0
406398,1.909482,-1.286143,-2.573844,-0.196631,-0.17152,0.121343,0.0,13.0,70.0,180.0,35.0,1.0
406399,1.921832,-1.289981,-2.570347,-0.198345,-0.187514,0.044106,0.0,13.0,70.0,180.0,35.0,1.0
406400,1.927901,-1.294187,-2.569687,-0.110415,-0.208554,-0.018924,0.0,13.0,70.0,180.0,35.0,1.0
406401,1.926249,-1.29664,-2.568069,-0.08826200000000001,-0.272743,0.037466,0.0,13.0,70.0,180.0,35.0,1.0
406402,1.937866,-1.294946,-2.552563,-0.099109,-0.328573,0.031085,0.0,13.0,70.0,180.0,35.0,1.0
406403,1.953393,-1.290482,-2.531266,-0.124371,-0.377747,0.008503,0.0,13.0,70.0,180.0,35.0,1.0
406404,1.9632,-1.283798,-2.509465,-0.12722999999999998,-0.366401,0.007398,0.0,13.0,70.0,180.0,35.0,1.0
406405,1.964446,-1.276147,-2.493361,-0.114898,-0.283137,0.085621,0.0,13.0,70.0,180.0,35.0,1.0
406406,1.9504740000000005,-1.27006,-2.495772,-0.118659,-0.224665,0.122195,0.0,13.0,70.0,180.0,35.0,1.0
406407,1.933167,-1.265981,-2.515708,-0.184278,-0.117446,0.08212,0.0,13.0,70.0,180.0,35.0,1.0
406408,1.91325,-1.265272,-2.549415,-0.291806,-0.069259,-0.003333,0.0,13.0,70.0,180.0,35.0,1.0
406409,1.888406,-1.267092,-2.584214,-0.413245,-0.01025,0.060751,0.0,13.0,70.0,180.0,35.0,1.0
406410,1.858762,-1.270201,-2.612237,-0.610049,0.124689,0.19681,0.0,13.0,70.0,180.0,35.0,1.0
406411,1.835853,-1.273963,-2.625139,-0.691149,0.180268,0.333947,0.0,13.0,70.0,180.0,35.0,1.0
406412,1.833462,-1.277676,-2.61416,-0.55199,-0.06396,0.298939,0.0,13.0,70.0,180.0,35.0,1.0
406413,1.869383,-1.277403,-2.554535,-0.344348,-0.348427,0.281886,0.0,13.0,70.0,180.0,35.0,1.0
406414,1.971879,-1.26486,-2.417005,-0.046917,0.062533,0.591399,0.0,13.0,70.0,180.0,35.0,1.0
406415,2.140638,-1.237814,-2.224864,0.005643,0.31556300000000004,0.610648,0.0,13.0,70.0,180.0,35.0,1.0
406416,2.310907,-1.203963,-2.0560650000000003,0.037798000000000005,0.7155189999999999,0.336411,0.0,13.0,70.0,180.0,35.0,1.0
406417,2.479316,-1.169493,-1.929334,0.096919,0.661891,-0.323172,0.0,13.0,70.0,180.0,35.0,1.0
406418,2.625731,-1.134301,-1.823051,0.291931,1.225688,-0.4587810000000001,0.0,13.0,70.0,180.0,35.0,1.0
406419,2.688803,-1.0913959999999998,-1.733263,0.345932,1.750302,-0.208144,0.0,13.0,70.0,180.0,35.0,1.0
406420,2.757616,-1.043232,-1.598635,0.311442,2.100014,0.937545,0.0,13.0,70.0,180.0,35.0,1.0
406421,2.9127490000000003,-1.000135,-1.427114,0.5325340000000001,1.801874,0.430029,0.0,13.0,70.0,180.0,35.0,1.0
406422,3.007545,-0.953267,-1.292139,0.835885,0.501797,-0.6189600000000001,0.0,13.0,70.0,180.0,35.0,1.0
406423,3.017432,-0.900533,-1.229974,0.398336,-0.773419,-0.265577,0.0,13.0,70.0,180.0,35.0,1.0
406424,2.999715,-0.863183,-1.209733,0.4596,-0.61485,-0.356683,0.0,13.0,70.0,180.0,35.0,1.0
406425,2.973461,-0.849407,-1.21112,0.155293,-0.46735,-0.396641,0.0,13.0,70.0,180.0,35.0,1.0
406426,2.957795,-0.862492,-1.223752,0.17698699999999998,-0.496786,-0.406218,0.0,13.0,70.0,180.0,35.0,1.0
406427,2.946708,-0.8986709999999999,-1.2515690000000002,0.294706,-0.56343,-0.465687,0.0,13.0,70.0,180.0,35.0,1.0
406428,2.9283,-0.948957,-1.296891,0.123945,-0.7175630000000001,-0.681996,0.0,13.0,70.0,180.0,35.0,1.0
406429,2.891937,-1.008123,-1.359544,0.115455,-0.750587,-0.629577,0.0,13.0,70.0,180.0,35.0,1.0
406430,2.832423,-1.0774629999999998,-1.434168,-0.199325,-0.916373,-0.615976,0.0,13.0,70.0,180.0,35.0,1.0
406431,2.750417,-1.158283,-1.519439,-0.502633,-0.964456,-0.5395979999999999,0.0,13.0,70.0,180.0,35.0,1.0
406432,2.6230330000000004,-1.237543,-1.6447439999999998,-0.523134,-0.6139439999999999,-0.594761,0.0,13.0,70.0,180.0,35.0,1.0
406433,2.436111,-1.299882,-1.81619,-0.5718300000000001,-0.486018,-0.582175,0.0,13.0,70.0,180.0,35.0,1.0
406434,2.2855990000000004,-1.340136,-1.930851,-1.401792,0.205958,1.939341,0.0,13.0,70.0,180.0,35.0,1.0
406435,2.276207,-1.377461,-1.922336,-0.8951870000000001,-0.004761,1.311017,0.0,13.0,70.0,180.0,35.0,1.0
406436,2.259803,-1.409577,-1.932886,-0.189368,-0.376391,-0.022228,0.0,13.0,70.0,180.0,35.0,1.0
406437,2.116003,-1.430332,-2.049953,0.25549,-0.8755879999999999,-0.413891,0.0,13.0,70.0,180.0,35.0,1.0
406438,1.880151,-1.443565,-2.261798,0.4951930000000001,-0.651493,-0.145727,0.0,13.0,70.0,180.0,35.0,1.0
406439,1.8427,-1.436741,-2.276111,0.993754,-0.080323,0.205702,0.0,13.0,70.0,180.0,35.0,1.0
406440,2.195632,-1.340925,-1.822689,1.857092,2.07118,1.331031,0.0,13.0,70.0,180.0,35.0,1.0
406441,2.288233,-1.261884,-1.667564,0.197975,0.466571,2.112257,0.0,13.0,70.0,180.0,35.0,1.0
406442,2.488211,-1.2621209999999998,-1.620737,-0.342167,-0.460946,-0.073936,0.0,13.0,70.0,180.0,35.0,1.0
406443,2.676554,-1.2527549999999998,-1.591322,-0.625553,0.962366,-0.807445,0.0,13.0,70.0,180.0,35.0,1.0
406444,2.794104,-1.172917,-1.473527,-0.979768,3.015463,0.742116,0.0,13.0,70.0,180.0,35.0,1.0
406445,2.872818,-1.079142,-1.359869,-0.159662,2.643655,-0.166296,0.0,13.0,70.0,180.0,35.0,1.0
406446,2.932835,-1.020211,-1.289033,1.155841,1.237595,-1.470241,0.0,13.0,70.0,180.0,35.0,1.0
406447,2.944465,-0.963716,-1.238089,1.547925,-0.087156,-0.277971,0.0,13.0,70.0,180.0,35.0,1.0
406448,2.933187,-0.924561,-1.224948,0.407147,-0.715639,0.4294810000000001,0.0,13.0,70.0,180.0,35.0,1.0
406449,2.941996,-0.93538,-1.246127,-0.093247,-0.487366,-0.720472,0.0,13.0,70.0,180.0,35.0,1.0
406450,2.938851,-0.964237,-1.282389,-0.198567,-0.376317,-0.7899609999999999,0.0,13.0,70.0,180.0,35.0,1.0
406451,2.921382,-1.0071290000000002,-1.3220299999999998,-0.156196,-0.449092,-0.591313,0.0,13.0,70.0,180.0,35.0,1.0
406452,2.892704,-1.065166,-1.356058,-0.192063,-0.532615,-0.5049819999999999,0.0,13.0,70.0,180.0,35.0,1.0
406453,2.857731,-1.136418,-1.39626,-0.235203,-0.8072630000000001,-0.291786,0.0,13.0,70.0,180.0,35.0,1.0
406454,2.785868,-1.215249,-1.466619,-0.192246,-1.119326,-0.322612,0.0,13.0,70.0,180.0,35.0,1.0
406455,2.574586,-1.301108,-1.626044,0.014998,-1.217257,-0.446838,0.0,13.0,70.0,180.0,35.0,1.0
406456,2.264062,-1.350253,-1.867991,-0.240094,-0.744364,0.057044,0.0,13.0,70.0,180.0,35.0,1.0
406457,2.327026,-1.348542,-1.816464,-0.99762,0.313919,2.363628,0.0,13.0,70.0,180.0,35.0,1.0
406458,2.41895,-1.364279,-1.7804970000000002,-0.6774479999999999,-0.02114,0.349502,0.0,13.0,70.0,180.0,35.0,1.0
406459,2.311826,-1.397508,-1.893139,0.001141,-0.740532,-0.686882,0.0,13.0,70.0,180.0,35.0,1.0
406460,2.187193,-1.419087,-2.03036,0.19426,-0.553562,-0.451054,0.0,13.0,70.0,180.0,35.0,1.0
406461,2.220971,-1.383362,-1.984127,0.465135,0.133725,-0.111371,0.0,13.0,70.0,180.0,35.0,1.0
406462,2.376878,-1.269765,-1.727782,0.769807,1.882173,2.6374470000000003,0.0,13.0,70.0,180.0,35.0,1.0
406463,2.466627,-1.247333,-1.635734,0.183498,0.4240060000000001,1.772555,0.0,13.0,70.0,180.0,35.0,1.0
406464,2.658269,-1.2552219999999998,-1.570471,-0.218586,-0.454585,-0.283245,0.0,13.0,70.0,180.0,35.0,1.0
406465,2.807478,-1.225294,-1.497771,-0.583929,0.673795,-0.266012,0.0,13.0,70.0,180.0,35.0,1.0
406466,2.84254,-1.158957,-1.447771,-0.407849,2.895198,1.157301,0.0,13.0,70.0,180.0,35.0,1.0
406467,2.919285,-1.082493,-1.357317,0.073325,1.72452,-0.279098,0.0,13.0,70.0,180.0,35.0,1.0
406468,2.986286,-1.016909,-1.266877,0.460081,1.147683,-0.953959,0.0,13.0,70.0,180.0,35.0,1.0
406469,3.005705,-0.969542,-1.214245,1.05055,0.095707,-1.061161,0.0,13.0,70.0,180.0,35.0,1.0
406470,2.999716,-0.950128,-1.213167,0.6596920000000001,-0.306944,0.356091,0.0,13.0,70.0,180.0,35.0,1.0
406471,2.998509,-0.95557,-1.233231,0.203622,0.216743,-0.169998,0.0,13.0,70.0,180.0,35.0,1.0
406472,2.996942,-0.981679,-1.264873,0.041735,0.136067,-0.322542,0.0,13.0,70.0,180.0,35.0,1.0
406473,2.979528,-1.021009,-1.311876,-0.024891,-0.150945,-0.514207,0.0,13.0,70.0,180.0,35.0,1.0
406474,2.954886,-1.071192,-1.364209,0.035508,-0.239451,-0.411408,0.0,13.0,70.0,180.0,35.0,1.0
406475,2.920203,-1.131251,-1.418188,-0.006464,-0.316231,-0.406716,0.0,13.0,70.0,180.0,35.0,1.0
406476,2.860368,-1.20089,-1.485662,-0.145852,-0.62244,-0.355106,0.0,13.0,70.0,180.0,35.0,1.0
406477,2.726792,-1.273313,-1.606966,-0.0933,-0.853447,-0.364735,0.0,13.0,70.0,180.0,35.0,1.0
406478,2.472159,-1.330043,-1.810065,-0.045447,-0.8885780000000001,-0.334217,0.0,13.0,70.0,180.0,35.0,1.0
406479,2.173062,-1.360347,-2.028437,-0.558982,-0.392213,-0.000925,0.0,13.0,70.0,180.0,35.0,1.0
406480,2.136096,-1.376337,-2.02691,-1.145958,-0.27644,1.85041,0.0,13.0,70.0,180.0,35.0,1.0
406481,2.4461150000000003,-1.389821,-1.802202,-1.22882,-0.255596,2.823625,0.0,13.0,70.0,180.0,35.0,1.0
406482,2.404278,-1.430791,-1.888748,0.148403,-0.746532,-1.011152,0.0,13.0,70.0,180.0,35.0,1.0
406483,2.268682,-1.4641030000000002,-2.031985,0.461503,-0.6753899999999999,-0.670858,0.0,13.0,70.0,180.0,35.0,1.0
406484,2.253074,-1.466456,-2.047083,0.509868,-0.54284,-0.500179,0.0,13.0,70.0,180.0,35.0,1.0
406485,2.469421,-1.378058,-1.765479,0.956992,1.191673,0.579859,0.0,13.0,70.0,180.0,35.0,1.0
406486,2.484903,-1.28326,-1.64917,0.132305,1.514306,2.430117,0.0,13.0,70.0,180.0,35.0,1.0
406487,2.584003,-1.282522,-1.621832,-0.002499,-0.406139,-0.050286,0.0,13.0,70.0,180.0,35.0,1.0
406488,2.72463,-1.295817,-1.610439,-0.150674,-0.529158,-0.596771,0.0,13.0,70.0,180.0,35.0,1.0
406489,2.825317,-1.277057,-1.579305,-0.397014,0.128388,-0.804421,0.0,13.0,70.0,180.0,35.0,1.0
406490,2.81311,-1.219531,-1.549297,-0.786144,2.42918,1.272077,0.0,13.0,70.0,180.0,35.0,1.0
406491,2.864504,-1.154296,-1.46676,-0.500166,1.936518,0.790896,0.0,13.0,70.0,180.0,35.0,1.0
406492,2.978643,-1.1048209999999998,-1.382232,0.7433960000000001,0.8234440000000001,-0.951244,0.0,13.0,70.0,180.0,35.0,1.0
406493,3.014777,-1.067697,-1.335687,0.989558,0.5746060000000001,-1.071104,0.0,13.0,70.0,180.0,35.0,1.0
406494,3.008219,-1.043727,-1.3139,1.119178,-0.236477,-0.35772600000000004,0.0,13.0,70.0,180.0,35.0,1.0
406495,2.996044,-1.039631,-1.323104,0.187154,-0.534779,0.264246,0.0,13.0,70.0,180.0,35.0,1.0
406496,2.987709,-1.0668540000000002,-1.354548,-0.078149,0.05211,-0.30803,0.0,13.0,70.0,180.0,35.0,1.0
406497,2.975023,-1.110212,-1.395169,-0.055932,-0.042781,-0.4874060000000001,0.0,13.0,70.0,180.0,35.0,1.0
406498,2.9597860000000003,-1.1619270000000002,-1.443939,0.060776,-0.312438,-0.405606,0.0,13.0,70.0,180.0,35.0,1.0
406499,2.927437,-1.220078,-1.50026,0.006909,-0.418969,-0.409256,0.0,13.0,70.0,180.0,35.0,1.0
406500,2.857473,-1.284303,-1.568126,-0.191762,-0.679898,-0.325229,0.0,13.0,70.0,180.0,35.0,1.0
406501,2.69155,-1.350423,-1.6904669999999995,-0.309199,-0.921022,-0.352526,0.0,13.0,70.0,180.0,35.0,1.0
406502,2.426482,-1.386759,-1.874977,-0.22662,-1.052632,-0.366026,0.0,13.0,70.0,180.0,35.0,1.0
406503,2.211837,-1.397405,-1.989002,-0.497158,-0.8468979999999999,-0.175301,0.0,13.0,70.0,180.0,35.0,1.0
406504,2.3260810000000003,-1.4004,-1.833405,-0.853045,-0.3589,3.3844,0.0,13.0,70.0,180.0,35.0,1.0
406505,2.533428,-1.407485,-1.715398,-0.315079,-0.391953,1.882878,0.0,13.0,70.0,180.0,35.0,1.0
406506,2.510636,-1.425174,-1.7790119999999998,0.239304,-0.85462,-0.691067,0.0,13.0,70.0,180.0,35.0,1.0
406507,2.430352,-1.432101,-1.879767,0.447291,-0.323985,-0.438166,0.0,13.0,70.0,180.0,35.0,1.0
406508,2.526218,-1.378883,-1.746873,0.703493,0.645877,0.126403,0.0,13.0,70.0,180.0,35.0,1.0
406509,2.564023,-1.310706,-1.6563990000000002,0.342027,1.208438,0.688708,0.0,13.0,70.0,180.0,35.0,1.0
406510,2.662573,-1.2834370000000002,-1.574001,-0.250778,0.264027,1.227424,0.0,13.0,70.0,180.0,35.0,1.0
406511,2.8064240000000003,-1.25664,-1.508591,-0.272892,0.524986,-0.248375,0.0,13.0,70.0,180.0,35.0,1.0
406512,2.85955,-1.185306,-1.457623,-0.40769,2.403021,0.744726,0.0,13.0,70.0,180.0,35.0,1.0
406513,2.909998,-1.095951,-1.378397,-0.358695,2.422953,1.080475,0.0,13.0,70.0,180.0,35.0,1.0
406514,2.965425,-1.023964,-1.298021,0.539087,1.03976,-1.256502,0.0,13.0,70.0,180.0,35.0,1.0
406515,2.981106,-0.978037,-1.2549629999999998,0.980461,-0.003337,-0.585117,0.0,13.0,70.0,180.0,35.0,1.0
406516,2.963453,-0.956263,-1.25785,0.6022529999999999,-0.196605,0.307473,0.0,13.0,70.0,180.0,35.0,1.0
406517,2.947136,-0.961154,-1.281982,0.144227,0.054659000000000006,-0.16261099999999998,0.0,13.0,70.0,180.0,35.0,1.0
406518,2.931289,-0.993023,-1.322144,0.075485,-0.016636,-0.4758520000000001,0.0,13.0,70.0,180.0,35.0,1.0
406519,2.909449,-1.040104,-1.373542,0.046003,-0.229767,-0.58949,0.0,13.0,70.0,180.0,35.0,1.0
406520,2.879366,-1.093387,-1.42531,0.000198,-0.316533,-0.529401,0.0,13.0,70.0,180.0,35.0,1.0
406521,2.8271740000000003,-1.15401,-1.479334,-0.229688,-0.550503,-0.40304,0.0,13.0,70.0,180.0,35.0,1.0
406522,2.735312,-1.226116,-1.553709,-0.470157,-0.820807,-0.30151999999999995,0.0,13.0,70.0,180.0,35.0,1.0
406523,2.535184,-1.291577,-1.70002,-0.372539,-0.8000619999999999,-0.224584,0.0,13.0,70.0,180.0,35.0,1.0
406524,2.236272,-1.329927,-1.894627,-0.391561,-0.417237,0.20579,0.0,13.0,70.0,180.0,35.0,1.0
406525,2.051356,-1.345315,-1.969567,-0.7158869999999999,-0.517762,1.26286,0.0,13.0,70.0,180.0,35.0,1.0
406526,2.214819,-1.3430959999999998,-1.826556,-0.707752,-0.478552,2.7871810000000004,0.0,13.0,70.0,180.0,35.0,1.0
406527,2.297173,-1.360557,-1.827041,0.042537,-0.987121,-0.414999,0.0,13.0,70.0,180.0,35.0,1.0
406528,2.264577,-1.388397,-1.905262,0.138579,-0.810972,-0.934892,0.0,13.0,70.0,180.0,35.0,1.0
406529,2.267356,-1.413568,-1.934204,0.256962,-0.8299040000000001,-0.763768,0.0,13.0,70.0,180.0,35.0,1.0
406530,2.327568,-1.40709,-1.888637,0.305893,0.140552,-0.039271,0.0,13.0,70.0,180.0,35.0,1.0
406531,2.433671,-1.325283,-1.679186,0.179116,1.037189,0.349366,0.0,13.0,70.0,180.0,35.0,1.0
406532,2.481738,-1.296246,-1.576622,-0.412726,0.6748890000000001,1.353567,0.0,13.0,70.0,180.0,35.0,1.0
406533,2.656688,-1.300101,-1.499772,-0.158895,-0.311638,-0.581693,0.0,13.0,70.0,180.0,35.0,1.0
406534,2.824313,-1.268577,-1.399103,-0.251411,0.005756,-1.260165,0.0,13.0,70.0,180.0,35.0,1.0
406535,2.844259,-1.220873,-1.330157,-0.6952699999999999,1.373452,0.713511,0.0,13.0,70.0,180.0,35.0,1.0
406536,2.879734,-1.16876,-1.257692,-0.266151,1.718573,1.061244,0.0,13.0,70.0,180.0,35.0,1.0
406537,2.977224,-1.1194959999999998,-1.183301,0.195085,0.8903110000000001,-0.439089,0.0,13.0,70.0,180.0,35.0,1.0
406538,3.035859,-1.076619,-1.119365,0.5744859999999999,0.618924,-0.820975,0.0,13.0,70.0,180.0,35.0,1.0
406539,3.042598,-1.0539040000000002,-1.073364,0.7027770000000001,0.305537,-0.42735,0.0,13.0,70.0,180.0,35.0,1.0
406540,3.048214,-1.0420120000000002,-1.0431979999999998,0.331119,-0.169344,0.226492,0.0,13.0,70.0,180.0,35.0,1.0
406541,3.048716,-1.032765,-1.027848,0.078222,-0.024903,0.032979,0.0,13.0,70.0,180.0,35.0,1.0
406542,3.035934,-1.028919,-1.02119,-0.154901,-0.168876,-0.224886,0.0,13.0,70.0,180.0,35.0,1.0
406543,3.021314,-1.032108,-1.024038,-0.095735,-0.461547,-0.28067800000000004,0.0,13.0,70.0,180.0,35.0,1.0
406544,3.006137,-1.046422,-1.034006,0.066147,-0.471686,-0.366611,0.0,13.0,70.0,180.0,35.0,1.0
406545,2.976905,-1.070164,-1.05259,0.154022,-0.383825,-0.441546,0.0,13.0,70.0,180.0,35.0,1.0
406546,2.9313990000000003,-1.102048,-1.081888,0.201241,-0.30082600000000004,-0.354451,0.0,13.0,70.0,180.0,35.0,1.0
406547,2.862361,-1.14202,-1.133405,0.161992,-0.274115,-0.259988,0.0,13.0,70.0,180.0,35.0,1.0
406548,2.753454,-1.184164,-1.221703,0.112709,-0.183707,-0.198446,0.0,13.0,70.0,180.0,35.0,1.0
406549,2.617185,-1.221511,-1.316848,0.123205,0.655628,0.454666,0.0,13.0,70.0,180.0,35.0,1.0
406550,2.540075,-1.242661,-1.336542,0.060562,0.240336,1.354959,0.0,13.0,70.0,180.0,35.0,1.0
406551,2.584285,-1.23413,-1.278816,-0.31963,0.228167,1.6508759999999998,0.0,13.0,70.0,180.0,35.0,1.0
406552,2.6689380000000003,-1.231306,-1.2126,-0.3521,-0.251946,0.765885,0.0,13.0,70.0,180.0,35.0,1.0
406553,2.751745,-1.229707,-1.1653209999999998,-0.104455,-0.268563,1.313591,0.0,13.0,70.0,180.0,35.0,1.0
406554,2.806226,-1.235317,-1.164124,0.227602,-0.2062,-1.53982,0.0,13.0,70.0,180.0,35.0,1.0
406555,2.8260560000000003,-1.226709,-1.180212,0.130577,0.143394,-2.082963,0.0,13.0,70.0,180.0,35.0,1.0
406556,2.811846,-1.21481,-1.1963290000000002,0.239049,2.004698,-1.063057,0.0,13.0,70.0,180.0,35.0,1.0
406557,2.736149,-1.225839,-1.244194,-0.889755,0.6618,1.581932,0.0,13.0,70.0,180.0,35.0,1.0
406558,2.716292,-1.231202,-1.225469,-0.521957,0.334637,0.615153,0.0,13.0,70.0,180.0,35.0,1.0
406559,2.735345,-1.237131,-1.216707,0.005301,0.666571,-0.789191,0.0,13.0,70.0,180.0,35.0,1.0
406560,2.750623,-1.260338,-1.218415,-0.049051,0.500153,-0.801421,0.0,13.0,70.0,180.0,35.0,1.0
406561,2.6823080000000004,-1.303051,-1.270639,0.117859,0.325974,-0.571367,0.0,13.0,70.0,180.0,35.0,1.0
406562,2.5397,-1.343006,-1.366579,0.30674,0.101958,-0.19726,0.0,13.0,70.0,180.0,35.0,1.0
406563,2.343828,-1.362658,-1.47584,0.319637,-0.002572,0.222588,0.0,13.0,70.0,180.0,35.0,1.0
406564,2.162321,-1.369865,-1.576068,0.005109000000000001,-0.028313,0.287819,0.0,13.0,70.0,180.0,35.0,1.0
406565,2.017754,-1.376061,-1.6878529999999998,-0.18142,-0.22672,0.187254,0.0,13.0,70.0,180.0,35.0,1.0
406566,1.876053,-1.382957,-1.829277,-0.163082,-0.38985,0.085131,0.0,13.0,70.0,180.0,35.0,1.0
406567,1.72013,-1.38719,-1.986634,-0.14423699999999998,-0.448188,0.058729,0.0,13.0,70.0,180.0,35.0,1.0
406568,1.578264,-1.38347,-2.120123,-0.132097,-0.401878,-0.047732,0.0,13.0,70.0,180.0,35.0,1.0
406569,1.464174,-1.377542,-2.220264,-0.025261,-0.318573,0.08089299999999999,0.0,13.0,70.0,180.0,35.0,1.0
406570,1.340024,-1.368002,-2.330268,0.024246,-0.248963,0.163406,0.0,13.0,70.0,180.0,35.0,1.0
406571,1.226059,-1.353637,-2.429478,-0.018203,-0.201276,0.18832,0.0,13.0,70.0,180.0,35.0,1.0
406572,1.136228,-1.337089,-2.506542,-0.202044,-0.005285,0.309612,0.0,13.0,70.0,180.0,35.0,1.0
406573,1.066499,-1.319248,-2.571044,-0.25606,0.13356800000000002,0.384197,0.0,13.0,70.0,180.0,35.0,1.0
406574,1.031667,-1.304889,-2.608139,-0.26881,0.170888,0.388448,0.0,13.0,70.0,180.0,35.0,1.0
406575,1.032314,-1.295575,-2.607313,-0.35941300000000004,0.259101,0.207572,0.0,13.0,70.0,180.0,35.0,1.0
406576,1.038237,-1.290334,-2.592035,-0.4477060000000001,0.366236,0.072028,0.0,13.0,70.0,180.0,35.0,1.0
406577,1.042334,-1.289135,-2.562548,-0.471201,0.513343,0.111197,0.0,13.0,70.0,180.0,35.0,1.0
406578,1.065872,-1.296341,-2.501004,-0.531143,0.6644869999999999,0.315139,0.0,13.0,70.0,180.0,35.0,1.0
406579,1.138852,-1.314543,-2.3998,-0.5554,0.58316,0.303859,0.0,13.0,70.0,180.0,35.0,1.0
406580,1.305152,-1.338736,-2.210257,-0.403489,0.340663,0.206189,0.0,13.0,70.0,180.0,35.0,1.0
406581,1.549349,-1.351416,-1.912742,-0.189842,0.174175,0.01074,0.0,13.0,70.0,180.0,35.0,1.0
406582,1.820059,-1.346928,-1.581644,-0.075166,0.023092,-0.075547,0.0,13.0,70.0,180.0,35.0,1.0
406583,2.081672,-1.323736,-1.297117,0.075998,-0.041291,-0.002459,0.0,13.0,70.0,180.0,35.0,1.0
406584,2.287595,-1.291773,-1.115316,0.090048,0.167398,0.052277,0.0,13.0,70.0,180.0,35.0,1.0
406585,2.448053,-1.271457,-1.010458,-0.249742,0.27670700000000004,-0.307283,0.0,13.0,70.0,180.0,35.0,1.0
406586,2.588002,-1.262972,-0.909273,-0.285602,0.519478,-0.7380439999999999,0.0,13.0,70.0,180.0,35.0,1.0
406587,2.650512,-1.269455,-0.782356,-0.427057,0.687303,-1.075977,0.0,13.0,70.0,180.0,35.0,1.0
406588,2.701542,-1.264664,-0.611323,-0.464453,0.5211640000000001,-0.333906,0.0,13.0,70.0,180.0,35.0,1.0
406589,2.803739,-1.254358,-0.411913,-0.493312,0.504774,-0.209603,0.0,13.0,70.0,180.0,35.0,1.0
406590,2.9048130000000003,-1.256208,-0.229399,-0.32003400000000004,0.290989,-0.407324,0.0,13.0,70.0,180.0,35.0,1.0
406591,2.980817,-1.254156,-0.061102,-0.100795,-0.066254,-0.833219,0.0,13.0,70.0,180.0,35.0,1.0
406592,3.020554,-1.237599,0.07105,0.046187,-0.361322,-0.727669,0.0,13.0,70.0,180.0,35.0,1.0
406593,3.038791,-1.221362,0.17063399999999998,0.272941,-0.328116,-0.33284899999999995,0.0,13.0,70.0,180.0,35.0,1.0
406594,3.055814,-1.216827,0.266584,0.285108,-0.170655,-0.421349,0.0,13.0,70.0,180.0,35.0,1.0
406595,3.05688,-1.216575,0.348852,0.02891,-0.154378,-0.502121,0.0,13.0,70.0,180.0,35.0,1.0
406596,3.05191,-1.221048,0.415545,0.030911,-0.193625,-0.297166,0.0,13.0,70.0,180.0,35.0,1.0
406597,3.049821,-1.231607,0.468832,0.226528,-0.224153,-0.169223,0.0,13.0,70.0,180.0,35.0,1.0
406598,3.0428330000000003,-1.246645,0.50522,0.257674,-0.211456,-0.161949,0.0,13.0,70.0,180.0,35.0,1.0
406599,3.027002,-1.262905,0.525637,0.247607,-0.194262,-0.128465,0.0,13.0,70.0,180.0,35.0,1.0
406600,2.997498,-1.279178,0.526726,0.195701,-0.169572,-0.049745,0.0,13.0,70.0,180.0,35.0,1.0
406601,2.959928,-1.2948110000000002,0.5150020000000001,0.05732200000000001,-0.084823,0.070435,0.0,13.0,70.0,180.0,35.0,1.0
406602,2.922005,-1.309183,0.5039939999999999,-0.098421,0.216964,0.186877,0.0,13.0,70.0,180.0,35.0,1.0
406603,2.887486,-1.317044,0.513642,-0.122675,0.207682,0.275521,0.0,13.0,70.0,180.0,35.0,1.0
406604,2.875255,-1.315748,0.562104,-0.228618,0.165757,0.439393,0.0,13.0,70.0,180.0,35.0,1.0
406605,2.921113,-1.309202,0.650103,-0.732142,0.520563,0.951089,0.0,13.0,70.0,180.0,35.0,1.0
406606,3.004044,-1.298967,0.760337,-0.994059,1.083395,-0.009058,0.0,13.0,70.0,180.0,35.0,1.0
406607,3.054642,-1.285693,0.828902,-0.225901,0.168205,-0.752648,0.0,13.0,70.0,180.0,35.0,1.0
406608,3.123098,-1.281547,0.878891,0.446675,-0.7705,-0.794443,0.0,13.0,70.0,180.0,35.0,1.0
406609,-3.1119380000000003,-1.291519,0.899066,0.7284189999999999,-0.738675,-0.834664,0.0,13.0,70.0,180.0,35.0,1.0
406610,3.057732,-1.30741,0.814543,0.915677,-0.7424609999999999,-0.23917,0.0,13.0,70.0,180.0,35.0,1.0
406611,2.832944,-1.320751,0.674743,0.274168,-0.255721,0.211988,0.0,13.0,70.0,180.0,35.0,1.0
406612,2.656005,-1.346989,0.5106189999999999,-0.345972,0.377205,0.009816,0.0,13.0,70.0,180.0,35.0,1.0
406613,2.496897,-1.374072,0.290892,-0.544538,0.440369,-0.7929729999999999,0.0,13.0,70.0,180.0,35.0,1.0
406614,2.377406,-1.355426,0.132705,-0.263673,0.475007,-0.680453,0.0,13.0,70.0,180.0,35.0,1.0
406615,2.32806,-1.313732,0.104291,-0.114433,0.217643,-0.429529,0.0,13.0,70.0,180.0,35.0,1.0
406616,2.202296,-1.299476,0.07247999999999999,0.007684000000000002,0.35465100000000005,-0.150983,0.0,13.0,70.0,180.0,35.0,1.0
406617,2.022255,-1.312066,-0.004739,-0.158746,0.278783,-0.070576,0.0,13.0,70.0,180.0,35.0,1.0
406618,1.893738,-1.321402,-0.067859,-0.251864,0.168755,0.118555,0.0,13.0,70.0,180.0,35.0,1.0
406619,1.7980580000000002,-1.331496,-0.131909,-0.178254,0.144387,0.109255,0.0,13.0,70.0,180.0,35.0,1.0
406620,1.679813,-1.3437,-0.228073,-0.139446,-0.031316000000000004,0.054483,0.0,13.0,70.0,180.0,35.0,1.0
406621,1.547608,-1.351875,-0.338033,-0.010574,-0.202054,0.01825,0.0,13.0,70.0,180.0,35.0,1.0
406622,1.416735,-1.352889,-0.4446,0.093626,-0.209949,0.031511000000000004,0.0,13.0,70.0,180.0,35.0,1.0
406623,1.310866,-1.347623,-0.528025,0.092262,-0.181941,0.06930399999999999,0.0,13.0,70.0,180.0,35.0,1.0
406624,1.238312,-1.339155,-0.585074,-0.01229,0.03765,0.106792,0.0,13.0,70.0,180.0,35.0,1.0
406625,1.168927,-1.330562,-0.639415,-0.051235,0.078095,0.203034,0.0,13.0,70.0,180.0,35.0,1.0
406626,1.066865,-1.319597,-0.7162850000000001,-0.207047,0.07511699999999999,0.571045,0.0,13.0,70.0,180.0,35.0,1.0
406627,0.998551,-1.316638,-0.7572949999999999,-0.263789,0.13550299999999998,1.055207,0.0,13.0,70.0,180.0,35.0,1.0
406628,1.061533,-1.327787,-0.701596,-0.278617,0.11358,0.904529,0.0,13.0,70.0,180.0,35.0,1.0
406629,1.205225,-1.347409,-0.5771229999999999,-0.318604,0.187002,0.543611,0.0,13.0,70.0,180.0,35.0,1.0
406630,1.473493,-1.373091,-0.300177,-0.245814,0.503046,-0.011344,0.0,13.0,70.0,180.0,35.0,1.0
406631,1.87199,-1.382088,0.117556,-0.288048,0.242911,0.054929999999999986,0.0,13.0,70.0,180.0,35.0,1.0
406632,2.229989,-1.362002,0.507116,-0.054081,0.188131,-0.025972,0.0,13.0,70.0,180.0,35.0,1.0
406633,2.483777,-1.314457,0.77825,0.307696,0.224646,-0.212871,0.0,13.0,70.0,180.0,35.0,1.0
406634,2.654187,-1.257684,0.947961,0.340897,0.491843,-0.41688,0.0,13.0,70.0,180.0,35.0,1.0
406635,2.748096,-1.203044,1.065148,0.106325,0.429808,-0.452676,0.0,13.0,70.0,180.0,35.0,1.0
406636,2.771849,-1.168528,1.146502,-0.283189,0.706778,-0.162243,0.0,13.0,70.0,180.0,35.0,1.0
406637,2.822776,-1.142886,1.2476120000000002,-0.372242,0.709581,0.039368,0.0,13.0,70.0,180.0,35.0,1.0
406638,2.906995,-1.115489,1.357147,-0.209289,0.616568,-0.26681900000000003,0.0,13.0,70.0,180.0,35.0,1.0
406639,2.972064,-1.0864,1.462715,0.118271,-0.07308200000000001,-0.481413,0.0,13.0,70.0,180.0,35.0,1.0
406640,3.007053,-1.05674,1.546456,0.131417,-0.310897,-0.561579,0.0,13.0,70.0,180.0,35.0,1.0
406641,3.022645,-1.036,1.609824,0.136297,-0.517019,-0.413107,0.0,13.0,70.0,180.0,35.0,1.0
406642,3.031498,-1.027861,1.657302,0.155469,-0.5592600000000001,-0.380847,0.0,13.0,70.0,180.0,35.0,1.0
406643,3.038214,-1.0329469999999998,1.690983,0.153159,-0.552309,-0.34128000000000003,0.0,13.0,70.0,180.0,35.0,1.0
406644,3.04272,-1.047017,1.71365,0.080695,-0.590575,-0.325411,0.0,13.0,70.0,180.0,35.0,1.0
406645,3.0412060000000003,-1.065912,1.726193,0.013627,-0.606904,-0.335258,0.0,13.0,70.0,180.0,35.0,1.0
406646,3.032157,-1.091931,1.7251599999999998,0.001907,-0.63822,-0.338508,0.0,13.0,70.0,180.0,35.0,1.0
406647,3.009823,-1.12671,1.7037939999999998,0.060037,-0.680515,-0.39951,0.0,13.0,70.0,180.0,35.0,1.0
406648,2.963654,-1.165196,1.654327,0.047058,-0.683056,-0.35767,0.0,13.0,70.0,180.0,35.0,1.0
406649,2.887644,-1.201226,1.570096,-0.027393,-0.5992,-0.259343,0.0,13.0,70.0,180.0,35.0,1.0
406650,2.775782,-1.2272809999999998,1.45578,-0.011466,0.261671,-0.298645,0.0,13.0,70.0,180.0,35.0,1.0
406651,2.619789,-1.235876,1.332512,0.000105,1.223395,0.076041,0.0,13.0,70.0,180.0,35.0,1.0
406652,2.503939,-1.2434459999999998,1.282966,-0.022773,1.28586,0.356745,0.0,13.0,70.0,180.0,35.0,1.0
406653,2.455515,-1.259223,1.285961,-0.224617,-0.295877,0.29297199999999995,0.0,13.0,70.0,180.0,35.0,1.0
406654,2.444771,-1.281446,1.306507,-0.093215,-0.41749,0.160565,0.0,13.0,70.0,180.0,35.0,1.0
406655,2.452561,-1.306057,1.32944,-0.091561,-0.509091,0.140062,0.0,13.0,70.0,180.0,35.0,1.0
406656,2.460065,-1.333072,1.340776,-0.352212,-0.800429,-0.279519,0.0,13.0,70.0,180.0,35.0,1.0
406657,2.422593,-1.364476,1.304541,-0.426492,-0.8903209999999999,-0.83875,0.0,13.0,70.0,180.0,35.0,1.0
406658,2.360863,-1.38814,1.246326,-0.296372,-0.6545529999999999,-0.90571,0.0,13.0,70.0,180.0,35.0,1.0
406659,2.3045560000000003,-1.401801,1.1906450000000002,0.106919,0.047952,-0.5385800000000001,0.0,13.0,70.0,180.0,35.0,1.0
406660,2.219073,-1.374643,1.229272,1.265526,2.10873,0.4455810000000001,0.0,13.0,70.0,180.0,35.0,1.0
406661,2.331932,-1.297086,1.511725,0.733225,1.820474,3.895636,0.0,13.0,70.0,180.0,35.0,1.0
406662,2.536126,-1.289116,1.592796,-0.187227,-0.540912,0.06943200000000001,0.0,13.0,70.0,180.0,35.0,1.0
406663,2.7800580000000004,-1.297777,1.636169,-0.037376,-0.47259,-1.419445,0.0,13.0,70.0,180.0,35.0,1.0
406664,2.879054,-1.270605,1.695736,-0.131951,-0.464832,-1.465976,0.0,13.0,70.0,180.0,35.0,1.0
406665,2.7783290000000003,-1.270308,1.653702,0.09452,0.155221,-0.635787,0.0,13.0,70.0,180.0,35.0,1.0
406666,2.580978,-1.303651,1.542985,-0.037286,0.5542090000000001,0.208223,0.0,13.0,70.0,180.0,35.0,1.0
406667,2.570066,-1.270564,1.591315,0.064256,0.498651,2.249566,0.0,13.0,70.0,180.0,35.0,1.0
406668,2.684331,-1.254425,1.655341,-0.198987,0.089669,0.594852,0.0,13.0,70.0,180.0,35.0,1.0
406669,2.839528,-1.227699,1.7499919999999998,-0.369441,0.13627,0.50837,0.0,13.0,70.0,180.0,35.0,1.0
406670,2.943102,-1.158105,1.827515,0.058089,0.281267,-0.127835,0.0,13.0,70.0,180.0,35.0,1.0
406671,2.975881,-1.083682,1.869378,0.464002,0.642207,-0.839885,0.0,13.0,70.0,180.0,35.0,1.0
406672,2.957815,-1.0196610000000002,1.91834,0.373253,0.5398390000000001,-1.158864,0.0,13.0,70.0,180.0,35.0,1.0
406673,2.929351,-0.944052,1.952204,0.226777,0.004359,-0.32205300000000003,0.0,13.0,70.0,180.0,35.0,1.0
406674,2.920088,-0.888747,1.9636240000000005,0.125513,-0.117957,0.326056,0.0,13.0,70.0,180.0,35.0,1.0
406675,2.915851,-0.8676159999999999,1.960195,0.087988,0.14816,-0.255225,0.0,13.0,70.0,180.0,35.0,1.0
406676,2.913682,-0.8719629999999999,1.949419,0.229294,0.105012,-0.496425,0.0,13.0,70.0,180.0,35.0,1.0
406677,2.907604,-0.8974690000000001,1.928227,0.088142,-0.121656,-0.43759,0.0,13.0,70.0,180.0,35.0,1.0
406678,2.900906,-0.946398,1.896181,-0.008448,-0.347768,-0.246636,0.0,13.0,70.0,180.0,35.0,1.0
406679,2.89944,-1.016379,1.854957,-0.076266,-0.461001,-0.199947,0.0,13.0,70.0,180.0,35.0,1.0
406680,2.899245,-1.10622,1.806505,-0.168191,-0.491256,-0.244781,0.0,13.0,70.0,180.0,35.0,1.0
406681,2.872048,-1.207447,1.745614,-0.113731,-0.200382,-0.468093,0.0,13.0,70.0,180.0,35.0,1.0
406682,2.7422020000000003,-1.304359,1.623528,-0.024213,0.503699,-0.524373,0.0,13.0,70.0,180.0,35.0,1.0
406683,2.526085,-1.388435,1.47391,-0.172624,0.430919,-0.420363,0.0,13.0,70.0,180.0,35.0,1.0
406684,2.275455,-1.439957,1.319643,-0.382305,-0.773405,0.052329,0.0,13.0,70.0,180.0,35.0,1.0
406685,2.403962,-1.447251,1.519111,-0.6234350000000001,-0.442421,1.705828,0.0,13.0,70.0,180.0,35.0,1.0
406686,2.7701290000000003,-1.405271,1.882659,-0.356821,-0.95467,1.642594,0.0,13.0,70.0,180.0,35.0,1.0
406687,2.772724,-1.429208,1.849693,0.146079,-1.027331,-0.132357,0.0,13.0,70.0,180.0,35.0,1.0
406688,2.807148,-1.478749,1.807502,0.732478,-0.495004,-0.416155,0.0,13.0,70.0,180.0,35.0,1.0
406689,2.981567,-1.447793,1.965142,1.35165,1.2466,0.21794,0.0,13.0,70.0,180.0,35.0,1.0
406690,2.773193,-1.297826,1.927353,0.521001,2.152947,2.838934,0.0,13.0,70.0,180.0,35.0,1.0
406691,2.803907,-1.251065,1.93984,-0.261695,-0.349985,0.219934,0.0,13.0,70.0,180.0,35.0,1.0
406692,2.938,-1.231535,1.942773,-0.333766,-0.8890459999999999,-1.048039,0.0,13.0,70.0,180.0,35.0,1.0
406693,3.009989,-1.210432,1.943285,-0.312751,-0.881813,-1.071688,0.0,13.0,70.0,180.0,35.0,1.0
406694,3.004812,-1.201849,1.93716,-0.360026,-0.39984,-0.243633,0.0,13.0,70.0,180.0,35.0,1.0
406695,2.997115,-1.136188,1.920629,-0.533308,3.406945,0.666279,0.0,13.0,70.0,180.0,35.0,1.0
406696,3.037368,-1.064389,1.98245,-0.140855,2.300236,-0.317459,0.0,13.0,70.0,180.0,35.0,1.0
406697,3.055444,-0.986932,2.044817,0.265649,1.3796959999999998,-1.093641,0.0,13.0,70.0,180.0,35.0,1.0
406698,3.025361,-0.935478,2.055794,0.870663,-0.372052,-0.65495,0.0,13.0,70.0,180.0,35.0,1.0
406699,2.980082,-0.903031,2.049804,0.520554,-0.5788939999999999,-0.161894,0.0,13.0,70.0,180.0,35.0,1.0
406700,2.983292,-0.914586,2.032666,0.285947,-0.384397,0.214542,0.0,13.0,70.0,180.0,35.0,1.0
406701,2.996046,-0.955925,1.998818,0.110627,-0.13829,-0.364989,0.0,13.0,70.0,180.0,35.0,1.0
406702,3.007997,-1.016139,1.956988,0.098842,-0.196898,-0.41382,0.0,13.0,70.0,180.0,35.0,1.0
406703,3.0102580000000003,-1.085112,1.924323,0.028131,-0.202791,-0.49827,0.0,13.0,70.0,180.0,35.0,1.0
406704,2.992364,-1.163359,1.903772,-0.259658,-0.067584,-0.33934699999999995,0.0,13.0,70.0,180.0,35.0,1.0
406705,2.95624,-1.247974,1.884064,-0.4561560000000001,-0.335474,-0.304393,0.0,13.0,70.0,180.0,35.0,1.0
406706,2.889642,-1.332041,1.864616,-0.310634,-0.537566,-0.3382,0.0,13.0,70.0,180.0,35.0,1.0
406707,2.791637,-1.394158,1.850366,-0.355092,-0.7644850000000001,-0.24725100000000005,0.0,13.0,70.0,180.0,35.0,1.0
406708,2.939869,-1.390174,2.070117,-1.025494,-0.485029,2.669753,0.0,13.0,70.0,180.0,35.0,1.0
406709,-3.125684,-1.367894,2.230476,-0.038451,-0.7796569999999999,1.42655,0.0,13.0,70.0,180.0,35.0,1.0
406710,-3.065687,-1.417945,2.252434,0.503321,-1.06935,-1.0050709999999998,0.0,13.0,70.0,180.0,35.0,1.0
406711,-2.903209,-1.45014,2.375363,0.8503350000000001,-0.704751,-0.66345,0.0,13.0,70.0,180.0,35.0,1.0
406712,-2.8009060000000003,-1.420456,2.479157,0.796962,-0.419766,-0.144414,0.0,13.0,70.0,180.0,35.0,1.0
406713,-3.139209,-1.319826,2.220777,0.737317,1.043489,0.460946,0.0,13.0,70.0,180.0,35.0,1.0
406714,2.9102,-1.248737,2.076201,0.073087,1.778847,2.68041,0.0,13.0,70.0,180.0,35.0,1.0
406715,3.036068,-1.229666,2.1001,-0.107946,-0.182993,-0.262088,0.0,13.0,70.0,180.0,35.0,1.0
406716,-3.136612,-1.204126,2.1167990000000003,-0.34683200000000003,-0.24483600000000005,-0.700866,0.0,13.0,70.0,180.0,35.0,1.0
406717,3.127997,-1.134278,2.092226,-0.633174,2.503332,1.429884,0.0,13.0,70.0,180.0,35.0,1.0
406718,3.088975,-1.052961,2.078919,-0.416918,2.808369,0.341683,0.0,13.0,70.0,180.0,35.0,1.0
406719,3.100667,-0.986867,2.120963,0.16280799999999998,1.538637,-1.10036,0.0,13.0,70.0,180.0,35.0,1.0
406720,3.077665,-0.931816,2.13667,0.913165,-0.506119,-0.349797,0.0,13.0,70.0,180.0,35.0,1.0
406721,3.05267,-0.906454,2.124254,0.8560450000000001,-0.776031,0.271499,0.0,13.0,70.0,180.0,35.0,1.0
406722,3.051108,-0.919431,2.103775,0.384166,0.045625,-0.030718,0.0,13.0,70.0,180.0,35.0,1.0
406723,3.064826,-0.954142,2.087149,0.043433,0.243859,-0.497611,0.0,13.0,70.0,180.0,35.0,1.0
406724,3.08337,-1.001174,2.0716240000000004,-0.032069,0.07327,-0.565499,0.0,13.0,70.0,180.0,35.0,1.0
406725,3.090183,-1.052414,2.056202,-0.127939,-0.197479,-0.55372,0.0,13.0,70.0,180.0,35.0,1.0
406726,3.088198,-1.11285,2.050215,-0.223119,-0.491918,-0.374872,0.0,13.0,70.0,180.0,35.0,1.0
406727,3.093351,-1.187776,2.060394,-0.322481,-0.912464,-0.172621,0.0,13.0,70.0,180.0,35.0,1.0
406728,3.070024,-1.269489,2.064696,-0.229656,-1.252084,-0.213123,0.0,13.0,70.0,180.0,35.0,1.0
406729,2.9888060000000003,-1.337445,2.034954,-0.095236,-1.071896,-0.443954,0.0,13.0,70.0,180.0,35.0,1.0
406730,2.944344,-1.357879,2.035966,-0.5164479999999999,-0.587572,0.161025,0.0,13.0,70.0,180.0,35.0,1.0
406731,3.0517060000000003,-1.343951,2.118707,-0.580629,0.017608000000000002,3.131121,0.0,13.0,70.0,180.0,35.0,1.0
406732,3.100524,-1.355801,2.146799,0.205917,-0.640536,-0.8327,0.0,13.0,70.0,180.0,35.0,1.0
406733,3.137652,-1.363027,2.16065,0.406261,-0.7702260000000001,-0.530663,0.0,13.0,70.0,180.0,35.0,1.0
406734,-3.097283,-1.356477,2.168991,0.630713,-0.419168,-0.263499,0.0,13.0,70.0,180.0,35.0,1.0
406735,3.033274,-1.311053,2.049634,0.6467649999999999,0.5586300000000001,0.290358,0.0,13.0,70.0,180.0,35.0,1.0
406736,2.886634,-1.2491139999999998,1.964648,0.58257,2.051585,1.77055,0.0,13.0,70.0,180.0,35.0,1.0
406737,3.024715,-1.2232459999999998,2.004553,-0.356108,-0.147867,-0.3698280000000001,0.0,13.0,70.0,180.0,35.0,1.0
406738,3.115973,-1.187347,2.0261150000000003,-0.4985060000000001,-0.048107,-0.6138520000000001,0.0,13.0,70.0,180.0,35.0,1.0
406739,3.0867310000000003,-1.116095,2.019612,-0.908375,1.863861,0.641881,0.0,13.0,70.0,180.0,35.0,1.0
406740,3.100973,-1.029101,2.061623,0.372175,1.346716,-0.678998,0.0,13.0,70.0,180.0,35.0,1.0
406741,3.103925,-0.953055,2.108362,0.3713010000000001,1.388363,-0.742618,0.0,13.0,70.0,180.0,35.0,1.0
406742,3.07881,-0.8945,2.129634,0.8831540000000001,0.240291,-1.193645,0.0,13.0,70.0,180.0,35.0,1.0
406743,3.057829,-0.87521,2.111139,0.668491,-0.8261649999999999,0.064674,0.0,13.0,70.0,180.0,35.0,1.0
406744,3.048487,-0.885509,2.086067,0.404263,-0.343772,-0.078747,0.0,13.0,70.0,180.0,35.0,1.0
406745,3.054724,-0.919135,2.066191,0.140083,0.282468,-0.227954,0.0,13.0,70.0,180.0,35.0,1.0
406746,3.056168,-0.966437,2.043487,-0.112325,-0.133993,-0.4118350000000001,0.0,13.0,70.0,180.0,35.0,1.0
406747,3.0435,-1.020969,2.014085,-0.125791,-0.18518,-0.332451,0.0,13.0,70.0,180.0,35.0,1.0
406748,3.027995,-1.090188,1.98613,-0.116782,-0.083812,-0.286014,0.0,13.0,70.0,180.0,35.0,1.0
406749,3.004677,-1.169482,1.951066,0.114225,-0.074738,-0.552867,0.0,13.0,70.0,180.0,35.0,1.0
406750,2.938941,-1.241431,1.897249,0.155116,-0.102177,-0.623983,0.0,13.0,70.0,180.0,35.0,1.0
406751,2.808679,-1.3007799999999998,1.817743,0.032503,-0.291998,-0.306756,0.0,13.0,70.0,180.0,35.0,1.0
406752,2.663648,-1.344727,1.7556310000000002,-0.267527,-0.556388,0.88233,0.0,13.0,70.0,180.0,35.0,1.0
406753,2.661613,-1.365099,1.7917419999999995,-0.683822,-0.7258819999999999,1.697065,0.0,13.0,70.0,180.0,35.0,1.0
406754,2.797936,-1.365996,1.879446,-0.336619,-0.98786,0.8545729999999999,0.0,13.0,70.0,180.0,35.0,1.0
406755,2.894702,-1.380483,1.903087,-0.008754000000000001,-1.08456,-0.568697,0.0,13.0,70.0,180.0,35.0,1.0
406756,2.947854,-1.407354,1.903247,0.17660499999999998,-0.8426610000000001,-0.91603,0.0,13.0,70.0,180.0,35.0,1.0
406757,3.009983,-1.41888,1.936877,0.369088,-0.293552,-0.556103,0.0,13.0,70.0,180.0,35.0,1.0
406758,2.937221,-1.370485,1.930119,0.411279,1.040473,0.445643,0.0,13.0,70.0,180.0,35.0,1.0
406759,2.81179,-1.331313,1.907347,0.346003,1.0895290000000002,1.145977,0.0,13.0,70.0,180.0,35.0,1.0
406760,2.922869,-1.327948,1.965462,-0.6334609999999999,0.161438,1.233449,0.0,13.0,70.0,180.0,35.0,1.0
406761,3.072926,-1.330611,2.034195,-0.309,0.162205,-0.389968,0.0,13.0,70.0,180.0,35.0,1.0
406762,3.123487,-1.312979,2.06812,-0.07428799999999999,0.185044,-0.374586,0.0,13.0,70.0,180.0,35.0,1.0
406763,3.113323,-1.273331,2.06284,0.000337,0.13501300000000002,0.315373,0.0,13.0,70.0,180.0,35.0,1.0
406764,3.1103400000000003,-1.213606,2.060251,-0.0961,1.126441,0.678392,0.0,13.0,70.0,180.0,35.0,1.0
406765,3.119794,-1.140964,2.082383,-0.043843,1.495063,0.5660930000000001,0.0,13.0,70.0,180.0,35.0,1.0
406766,3.137609,-1.057619,2.123869,0.170362,1.3525200000000002,-0.152351,0.0,13.0,70.0,180.0,35.0,1.0
406767,3.122402,-0.989977,2.153187,0.27716,1.0579379999999998,-0.67553,0.0,13.0,70.0,180.0,35.0,1.0
406768,3.099053,-0.951795,2.164657,0.394636,0.007593000000000002,-0.658157,0.0,13.0,70.0,180.0,35.0,1.0
406769,3.088089,-0.937701,2.151097,0.530936,-0.306902,0.07023099999999999,0.0,13.0,70.0,180.0,35.0,1.0
406770,3.075947,-0.942784,2.1261490000000003,0.309756,-0.125023,-0.159651,0.0,13.0,70.0,180.0,35.0,1.0
406771,3.064659,-0.970594,2.097183,0.071229,-0.111186,-0.3513,0.0,13.0,70.0,180.0,35.0,1.0
406772,3.053329,-1.013611,2.061755,0.057238,-0.24868,-0.43215,0.0,13.0,70.0,180.0,35.0,1.0
406773,3.042449,-1.066928,2.024616,0.115388,-0.221409,-0.44039,0.0,13.0,70.0,180.0,35.0,1.0
406774,3.018711,-1.129751,1.985927,0.0594,-0.097543,-0.469426,0.0,13.0,70.0,180.0,35.0,1.0
406775,2.981889,-1.203606,1.939474,-0.047034,-0.07219500000000001,-0.378947,0.0,13.0,70.0,180.0,35.0,1.0
406776,2.913983,-1.27931,1.884657,-0.118389,-0.093072,-0.465082,0.0,13.0,70.0,180.0,35.0,1.0
406777,2.771325,-1.352985,1.797516,-0.075037,-0.385919,-0.297439,0.0,13.0,70.0,180.0,35.0,1.0
406778,2.555091,-1.411318,1.67332,-0.252392,-0.761267,0.026858,0.0,13.0,70.0,180.0,35.0,1.0
406779,2.566723,-1.420948,1.747002,-0.779945,-0.927636,1.4703700000000002,0.0,13.0,70.0,180.0,35.0,1.0
406780,2.827212,-1.386614,1.944969,-0.575078,-0.744927,1.994618,0.0,13.0,70.0,180.0,35.0,1.0
406781,2.863854,-1.4060780000000002,1.912002,0.060131,-0.946304,-0.186613,0.0,13.0,70.0,180.0,35.0,1.0
406782,2.924559,-1.4392969999999998,1.920079,0.672985,-0.40993,-0.681471,0.0,13.0,70.0,180.0,35.0,1.0
406783,3.093352,-1.440343,2.053027,0.7015979999999999,-0.209856,-0.569267,0.0,13.0,70.0,180.0,35.0,1.0
406784,3.03453,-1.389097,2.029497,0.5650569999999999,0.511549,-0.122285,0.0,13.0,70.0,180.0,35.0,1.0
406785,2.893996,-1.33825,1.999102,-0.417546,0.663712,1.445951,0.0,13.0,70.0,180.0,35.0,1.0
406786,2.979082,-1.315864,2.05096,-0.40187,0.669115,1.42052,0.0,13.0,70.0,180.0,35.0,1.0
406787,3.117506,-1.301891,2.089291,-0.136785,-0.198315,-0.495697,0.0,13.0,70.0,180.0,35.0,1.0
406788,-3.125132,-1.257181,2.099011,-0.185398,-0.105689,-0.259108,0.0,13.0,70.0,180.0,35.0,1.0
406789,3.11773,-1.199345,2.081493,-0.235375,0.17868699999999998,0.26397,0.0,13.0,70.0,180.0,35.0,1.0
406790,3.107587,-1.130323,2.079457,-0.3302,2.1668,0.78598,0.0,13.0,70.0,180.0,35.0,1.0
406791,-3.139491,-1.059058,2.118792,0.159751,1.579918,-0.474125,0.0,13.0,70.0,180.0,35.0,1.0
406792,3.13344,-0.989026,2.159402,0.357688,1.1496620000000002,-1.172652,0.0,13.0,70.0,180.0,35.0,1.0
406793,3.102339,-0.9422,2.167805,0.7202569999999999,-0.284943,-0.569443,0.0,13.0,70.0,180.0,35.0,1.0
406794,3.075754,-0.921094,2.1417770000000003,0.4814100000000001,-0.465942,0.217012,0.0,13.0,70.0,180.0,35.0,1.0
406795,3.059996,-0.922049,2.111723,0.15241500000000002,0.164783,0.008449,0.0,13.0,70.0,180.0,35.0,1.0
406796,3.058746,-0.947083,2.086735,-0.025352,0.106711,-0.287951,0.0,13.0,70.0,180.0,35.0,1.0
406797,3.052406,-0.988716,2.056895,-0.063524,-0.123971,-0.351547,0.0,13.0,70.0,180.0,35.0,1.0
406798,3.043448,-1.044031,2.025068,0.037744,-0.127072,-0.27635,0.0,13.0,70.0,180.0,35.0,1.0
406799,3.0208630000000003,-1.112901,1.985405,0.030088,-0.052167,-0.348892,0.0,13.0,70.0,180.0,35.0,1.0
406800,2.964456,-1.192717,1.921657,0.006929,0.405006,-0.380007,0.0,13.0,70.0,180.0,35.0,1.0
406801,2.899303,-1.271344,1.867308,-0.06002,0.347663,-0.263934,0.0,13.0,70.0,180.0,35.0,1.0
406802,2.808743,-1.34907,1.814639,-0.113464,-0.615626,-0.294955,0.0,13.0,70.0,180.0,35.0,1.0
406803,2.6170880000000003,-1.421971,1.694343,-0.181629,-1.015618,-0.181244,0.0,13.0,70.0,180.0,35.0,1.0
406804,2.385705,-1.463572,1.535219,-0.495539,-1.144724,1.006877,0.0,13.0,70.0,180.0,35.0,1.0
406805,2.419586,-1.462638,1.586697,-0.458576,-0.7808689999999999,1.334549,0.0,13.0,70.0,180.0,35.0,1.0
406806,2.609046,-1.436438,1.785153,-0.018206,-0.660787,0.982256,0.0,13.0,70.0,180.0,35.0,1.0
406807,2.654569,-1.429588,1.797408,0.329492,-0.5819350000000001,-0.4316680000000001,0.0,13.0,70.0,180.0,35.0,1.0
406808,2.698967,-1.446198,1.752749,0.476757,-0.047576,-0.501454,0.0,13.0,70.0,180.0,35.0,1.0
406809,2.844723,-1.441809,1.822463,0.6380170000000001,1.17504,-0.609174,0.0,13.0,70.0,180.0,35.0,1.0
406810,2.781025,-1.406971,1.807772,0.197908,0.7386550000000001,0.068237,0.0,13.0,70.0,180.0,35.0,1.0
406811,2.736149,-1.4017540000000002,1.803038,-0.638195,0.074236,0.5238079999999999,0.0,13.0,70.0,180.0,35.0,1.0
406812,2.854329,-1.405311,1.903685,-0.753612,0.066243,0.588145,0.0,13.0,70.0,180.0,35.0,1.0
406813,2.9325360000000003,-1.403809,1.950343,-0.670511,0.32421300000000003,-0.128701,0.0,13.0,70.0,180.0,35.0,1.0
406814,2.896933,-1.404414,1.911379,-0.379853,0.183167,-0.187506,0.0,13.0,70.0,180.0,35.0,1.0
406815,2.801803,-1.406336,1.829126,0.081451,0.227299,-0.130905,0.0,13.0,70.0,180.0,35.0,1.0
406816,2.700485,-1.403138,1.757854,0.239531,0.209411,0.111018,0.0,13.0,70.0,180.0,35.0,1.0
406817,2.6628540000000003,-1.398149,1.7557580000000002,0.015316,0.13506,0.349462,0.0,13.0,70.0,180.0,35.0,1.0
406818,2.675114,-1.384566,1.791805,-0.233647,0.321887,0.41338,0.0,13.0,70.0,180.0,35.0,1.0
406819,2.775682,-1.362816,1.901693,-0.690746,0.8488049999999999,0.4769270000000001,0.0,13.0,70.0,180.0,35.0,1.0
406820,2.8906970000000003,-1.323322,2.017379,-0.645929,0.642771,0.348485,0.0,13.0,70.0,180.0,35.0,1.0
406821,2.986828,-1.276112,2.11289,-0.138551,0.778717,0.085975,0.0,13.0,70.0,180.0,35.0,1.0
406822,3.061943,-1.235699,2.180483,0.094455,0.662876,-0.203565,0.0,13.0,70.0,180.0,35.0,1.0
406823,3.116502,-1.202831,2.215862,0.252877,0.551924,-0.431746,0.0,13.0,70.0,180.0,35.0,1.0
406824,3.137469,-1.195322,2.258238,0.368956,0.417246,-0.768258,0.0,13.0,70.0,180.0,35.0,1.0
406825,3.121291,-1.190106,2.319032,0.260814,0.342161,-0.317297,0.0,13.0,70.0,180.0,35.0,1.0
406826,3.108936,-1.16824,2.389566,-0.190908,0.484601,0.238034,0.0,13.0,70.0,180.0,35.0,1.0
406827,-3.120988,-1.166655,2.497103,-0.371873,0.371529,-0.37248,0.0,13.0,70.0,180.0,35.0,1.0
406828,-3.049791,-1.171254,2.611182,-0.269378,0.110072,-0.623514,0.0,13.0,70.0,180.0,35.0,1.0
406829,-3.008727,-1.173634,2.705891,0.043017,-0.21977,-0.798946,0.0,13.0,70.0,180.0,35.0,1.0
406830,-3.009041,-1.17547,2.7641560000000003,0.367395,-0.522694,-0.620115,0.0,13.0,70.0,180.0,35.0,1.0
406831,-3.02843,-1.180207,2.800974,0.443688,-0.540438,-0.537474,0.0,13.0,70.0,180.0,35.0,1.0
406832,-3.057849,-1.191646,2.8233580000000003,0.399459,-0.5626770000000001,-0.394588,0.0,13.0,70.0,180.0,35.0,1.0
406833,-3.096812,-1.210211,2.830489,0.260759,-0.5475979999999999,-0.120883,0.0,13.0,70.0,180.0,35.0,1.0
406834,3.135561,-1.233098,2.815011,0.292618,-0.482063,-0.027673000000000003,0.0,13.0,70.0,180.0,35.0,1.0
406835,3.057774,-1.257588,2.772073,0.323036,-0.411067,-0.050145,0.0,13.0,70.0,180.0,35.0,1.0
406836,2.931568,-1.271679,2.696763,0.260999,0.117493,-0.110554,0.0,13.0,70.0,180.0,35.0,1.0
406837,2.817508,-1.267731,2.633906,0.079569,0.376232,0.021581,0.0,13.0,70.0,180.0,35.0,1.0
406838,2.783677,-1.248501,2.630926,-0.185378,0.7057100000000001,0.468056,0.0,13.0,70.0,180.0,35.0,1.0
406839,2.798147,-1.225231,2.685753,-0.117722,0.323062,0.572338,0.0,13.0,70.0,180.0,35.0,1.0
406840,2.820922,-1.213524,2.761098,-0.296969,-0.149821,0.532108,0.0,13.0,70.0,180.0,35.0,1.0
406841,2.8701950000000003,-1.215263,2.841647,-0.52578,-0.386359,0.328303,0.0,13.0,70.0,180.0,35.0,1.0
406842,2.936545,-1.227826,2.915016,-0.499075,-0.193087,0.16136099999999998,0.0,13.0,70.0,180.0,35.0,1.0
406843,3.005391,-1.249308,2.964103,-0.201717,0.380549,-0.111649,0.0,13.0,70.0,180.0,35.0,1.0
406844,3.036163,-1.257785,2.970425,0.123205,1.251272,-0.28436100000000003,0.0,13.0,70.0,180.0,35.0,1.0
406845,3.0144,-1.2322110000000002,2.956975,0.298824,0.8335379999999999,-0.081969,0.0,13.0,70.0,180.0,35.0,1.0
406846,3.010182,-1.2082700000000002,2.962071,0.428171,-0.580908,-0.104827,0.0,13.0,70.0,180.0,35.0,1.0
406847,2.979967,-1.224008,2.939895,0.409387,-1.067544,-0.279629,0.0,13.0,70.0,180.0,35.0,1.0
406848,2.897984,-1.2686540000000002,2.856638,0.269413,-1.113133,-0.297199,0.0,13.0,70.0,180.0,35.0,1.0
406849,2.765963,-1.306028,2.697347,-0.126396,-0.71848,-0.519896,0.0,13.0,70.0,180.0,35.0,1.0
406850,2.5913060000000003,-1.30883,2.474072,-0.392125,0.530943,-0.918025,0.0,13.0,70.0,180.0,35.0,1.0
406851,2.471238,-1.275656,2.355527,-0.5615060000000001,1.572337,-1.341285,0.0,13.0,70.0,180.0,35.0,1.0
406852,2.401779,-1.251169,2.370364,-0.7761859999999999,0.709156,0.145216,0.0,13.0,70.0,180.0,35.0,1.0
406853,2.300438,-1.268873,2.360292,-0.308214,0.072562,0.397731,0.0,13.0,70.0,180.0,35.0,1.0
406854,2.221117,-1.299692,2.325632,-0.01013,0.111277,0.119118,0.0,13.0,70.0,180.0,35.0,1.0
406855,2.20385,-1.324333,2.312377,0.01264,0.025397,-0.172625,0.0,13.0,70.0,180.0,35.0,1.0
406856,2.171411,-1.344766,2.280325,0.012091,-0.037811,-0.261175,0.0,13.0,70.0,180.0,35.0,1.0
406857,2.067231,-1.368336,2.196974,-0.035124,-0.128592,-0.250937,0.0,13.0,70.0,180.0,35.0,1.0
406858,1.923354,-1.387569,2.083398,-0.026507,-0.22435,-0.164811,0.0,13.0,70.0,180.0,35.0,1.0
406859,1.782044,-1.400524,1.960229,0.024795,-0.198948,-0.072029,0.0,13.0,70.0,180.0,35.0,1.0
406860,1.6400439999999998,-1.407434,1.816696,0.033878,-0.163169,-0.047264,0.0,13.0,70.0,180.0,35.0,1.0
406861,1.481808,-1.4084020000000002,1.652543,0.021197,-0.164928,-0.039846,0.0,13.0,70.0,180.0,35.0,1.0
406862,1.324525,-1.401539,1.506621,-0.018162,-0.13408699999999998,-0.0041,0.0,13.0,70.0,180.0,35.0,1.0
406863,1.209514,-1.388819,1.420124,-0.093438,-0.02374,0.105351,0.0,13.0,70.0,180.0,35.0,1.0
406864,1.128731,-1.374514,1.372555,-0.16097,0.068137,0.232495,0.0,13.0,70.0,180.0,35.0,1.0
406865,1.0785559999999998,-1.36305,1.346372,-0.238026,0.08290299999999999,0.289706,0.0,13.0,70.0,180.0,35.0,1.0
406866,1.059148,-1.355654,1.330665,-0.223347,0.114347,0.305377,0.0,13.0,70.0,180.0,35.0,1.0
406867,1.050529,-1.349854,1.311411,-0.111814,0.149355,0.105814,0.0,13.0,70.0,180.0,35.0,1.0
406868,1.042499,-1.343621,1.30261,-0.164644,0.13989,0.025653,0.0,13.0,70.0,180.0,35.0,1.0
406869,1.038875,-1.337732,1.32211,-0.418836,0.097792,-0.095857,0.0,13.0,70.0,180.0,35.0,1.0
406870,1.020913,-1.333373,1.340598,-0.463664,0.12313,-0.035597000000000004,0.0,13.0,70.0,180.0,35.0,1.0
406871,1.005558,-1.332425,1.358017,-0.356039,0.457399,0.196034,0.0,13.0,70.0,180.0,35.0,1.0
406872,1.019737,-1.338174,1.399649,-0.324226,0.495181,0.210836,0.0,13.0,70.0,180.0,35.0,1.0
406873,1.088874,-1.3527360000000002,1.494603,-0.365003,0.524383,0.17296,0.0,13.0,70.0,180.0,35.0,1.0
406874,1.244017,-1.372769,1.677186,-0.415509,0.258069,0.155527,0.0,13.0,70.0,180.0,35.0,1.0
406875,1.530954,-1.387645,2.013474,-0.179281,-0.039824,0.171241,0.0,13.0,70.0,180.0,35.0,1.0
406876,1.887769,-1.373582,2.438761,-0.056428,-0.102885,0.12806099999999998,0.0,13.0,70.0,180.0,35.0,1.0
406877,2.156259,-1.335636,2.747179,0.109869,-0.005573,0.060687,0.0,13.0,70.0,180.0,35.0,1.0
406878,2.343474,-1.292374,2.9321580000000003,0.024121,0.10621300000000003,-0.021793,0.0,13.0,70.0,180.0,35.0,1.0
406879,2.479947,-1.255585,3.047679,-0.139651,0.106337,-0.15223499999999998,0.0,13.0,70.0,180.0,35.0,1.0
406880,2.564915,-1.244686,-3.139941,-0.431692,0.336258,-0.681346,0.0,13.0,70.0,180.0,35.0,1.0
406881,2.585469,-1.2491219999999998,-3.019532,-0.7217979999999999,0.7019270000000001,-0.772555,0.0,13.0,70.0,180.0,35.0,1.0
406882,2.666763,-1.233692,-2.828544,-0.832308,0.673258,0.090586,0.0,13.0,70.0,180.0,35.0,1.0
406883,2.776218,-1.223641,-2.64213,-0.7501939999999999,0.60795,-0.014391,0.0,13.0,70.0,180.0,35.0,1.0
406884,2.836766,-1.220603,-2.503045,-0.023484,0.06932999999999999,-0.668556,0.0,13.0,70.0,180.0,35.0,1.0
406885,2.878491,-1.213384,-2.376528,0.105423,-0.13451300000000002,-0.7678510000000001,0.0,13.0,70.0,180.0,35.0,1.0
406886,2.905528,-1.196392,-2.2650740000000003,0.206856,-0.322465,-0.713958,0.0,13.0,70.0,180.0,35.0,1.0
406887,2.919055,-1.185613,-2.178184,0.303915,-0.26597800000000005,-0.190271,0.0,13.0,70.0,180.0,35.0,1.0
406888,2.925578,-1.183271,-2.104536,0.197154,-0.182225,-0.284872,0.0,13.0,70.0,180.0,35.0,1.0
406889,2.918269,-1.181967,-2.045311,-0.116752,-0.094161,-0.491151,0.0,13.0,70.0,180.0,35.0,1.0
406890,2.904834,-1.182782,-1.996259,-0.111036,-0.099292,-0.395887,0.0,13.0,70.0,180.0,35.0,1.0
406891,2.89379,-1.186634,-1.954101,0.040674,-0.195271,-0.345954,0.0,13.0,70.0,180.0,35.0,1.0
406892,2.883427,-1.194861,-1.920591,0.17041099999999998,-0.25504,-0.265253,0.0,13.0,70.0,180.0,35.0,1.0
406893,2.869232,-1.206796,-1.899508,0.207346,-0.244905,-0.198635,0.0,13.0,70.0,180.0,35.0,1.0
406894,2.845617,-1.22211,-1.893069,0.169984,-0.184406,-0.071482,0.0,13.0,70.0,180.0,35.0,1.0
406895,2.813765,-1.239419,-1.896419,0.099924,-0.050637,0.040431,0.0,13.0,70.0,180.0,35.0,1.0
406896,2.783702,-1.254368,-1.897752,-0.095378,0.085017,0.211656,0.0,13.0,70.0,180.0,35.0,1.0
406897,2.76822,-1.26284,-1.884613,-0.17469400000000002,0.26375,0.30653400000000003,0.0,13.0,70.0,180.0,35.0,1.0
406898,2.7654490000000003,-1.259734,-1.845523,-0.12183,0.33731300000000003,0.32919,0.0,13.0,70.0,180.0,35.0,1.0
406899,2.781825,-1.250364,-1.776209,-0.197482,0.133222,0.394781,0.0,13.0,70.0,180.0,35.0,1.0
406900,2.82851,-1.24383,-1.6861529999999998,-0.424586,-0.178253,0.482789,0.0,13.0,70.0,180.0,35.0,1.0
406901,2.89143,-1.245585,-1.5891030000000002,-0.422908,-0.227918,0.279277,0.0,13.0,70.0,180.0,35.0,1.0
406902,2.957243,-1.253885,-1.508293,-0.448405,0.084588,0.160156,0.0,13.0,70.0,180.0,35.0,1.0
406903,3.015902,-1.244422,-1.462386,-0.332703,1.335595,-0.130366,0.0,13.0,70.0,180.0,35.0,1.0
406904,3.039914,-1.206931,-1.447985,0.298608,0.987942,-0.892334,0.0,13.0,70.0,180.0,35.0,1.0
406905,3.043562,-1.186926,-1.444972,0.84419,-0.980506,-0.83101,0.0,13.0,70.0,180.0,35.0,1.0
406906,2.949959,-1.211097,-1.47183,0.883017,-1.192549,-0.337918,0.0,13.0,70.0,180.0,35.0,1.0
406907,2.846298,-1.2456040000000002,-1.534902,0.111245,-0.918521,0.319446,0.0,13.0,70.0,180.0,35.0,1.0
406908,2.814466,-1.271981,-1.641572,-0.451496,-0.284421,-0.389248,0.0,13.0,70.0,180.0,35.0,1.0
406909,2.79401,-1.254979,-1.744808,-0.521048,0.404178,-1.201135,0.0,13.0,70.0,180.0,35.0,1.0
406910,2.721062,-1.222097,-1.806789,-0.719336,1.370378,-0.024581,0.0,13.0,70.0,180.0,35.0,1.0
406911,2.661538,-1.223839,-1.800617,-0.776834,1.201648,0.4974560000000001,0.0,13.0,70.0,180.0,35.0,1.0
406912,2.651939,-1.229674,-1.7824209999999998,-0.200921,-0.198651,-0.20740100000000006,0.0,13.0,70.0,180.0,35.0,1.0
406913,2.625258,-1.242168,-1.779814,-0.007755,-0.040068,-0.129681,0.0,13.0,70.0,180.0,35.0,1.0
406914,2.573566,-1.260141,-1.795785,-0.044314,-0.095001,0.180159,0.0,13.0,70.0,180.0,35.0,1.0
406915,2.5463400000000003,-1.271922,-1.801327,-0.117705,-0.14239000000000002,0.137304,0.0,13.0,70.0,180.0,35.0,1.0
406916,2.528857,-1.281763,-1.803148,-0.150323,-0.227868,-0.083375,0.0,13.0,70.0,180.0,35.0,1.0
406917,2.495688,-1.291468,-1.813702,-0.08341799999999999,-0.195021,0.04967,0.0,13.0,70.0,180.0,35.0,1.0
406918,2.456246,-1.297665,-1.825935,-0.08569500000000001,-0.170572,0.10368,0.0,13.0,70.0,180.0,35.0,1.0
406919,2.426748,-1.302357,-1.829406,-0.134378,-0.177336,0.203423,0.0,13.0,70.0,180.0,35.0,1.0
406920,2.412921,-1.307021,-1.823034,-0.094827,-0.309712,0.118383,0.0,13.0,70.0,180.0,35.0,1.0
406921,2.412952,-1.308739,-1.80932,-0.049587,-0.363167,0.12833,0.0,13.0,70.0,180.0,35.0,1.0
406922,2.42033,-1.304015,-1.789062,-0.011388,-0.309504,0.259746,0.0,13.0,70.0,180.0,35.0,1.0
406923,2.440654,-1.29331,-1.7602950000000002,-0.046114,-0.201096,0.353731,0.0,13.0,70.0,180.0,35.0,1.0
406924,2.491579,-1.275253,-1.713209,-0.150554,-0.099878,0.5421279999999999,0.0,13.0,70.0,180.0,35.0,1.0
406925,2.58195,-1.246507,-1.645047,-0.221965,-0.058855,0.34462,0.0,13.0,70.0,180.0,35.0,1.0
406926,2.682192,-1.205458,-1.569097,-0.17419,-0.031262,0.112033,0.0,13.0,70.0,180.0,35.0,1.0
406927,2.7569470000000003,-1.144183,-1.492803,-0.071235,0.25402600000000003,-0.13828,0.0,13.0,70.0,180.0,35.0,1.0
406928,2.778883,-1.073342,-1.418923,-0.009275,0.587341,-0.382189,0.0,13.0,70.0,180.0,35.0,1.0
406929,2.7958990000000004,-1.017754,-1.352018,-0.054224,0.945792,-0.547299,0.0,13.0,70.0,180.0,35.0,1.0
406930,2.819578,-0.985839,-1.294794,0.109265,-0.303966,-0.526601,0.0,13.0,70.0,180.0,35.0,1.0
406931,2.832169,-0.951916,-1.255991,0.32347,-0.473449,-0.190387,0.0,13.0,70.0,180.0,35.0,1.0
406932,2.84097,-0.938451,-1.241092,0.316823,0.093762,0.009279,0.0,13.0,70.0,180.0,35.0,1.0
406933,2.847076,-0.945427,-1.233374,0.088024,0.302214,0.028467000000000006,0.0,13.0,70.0,180.0,35.0,1.0
406934,2.860811,-0.976332,-1.236881,0.037385,-0.030017,-0.072185,0.0,13.0,70.0,180.0,35.0,1.0
406935,2.875018,-1.026119,-1.248324,0.009168,-0.221261,-0.133274,0.0,13.0,70.0,180.0,35.0,1.0
406936,2.8854610000000003,-1.08858,-1.266165,0.02041,-0.250975,-0.242067,0.0,13.0,70.0,180.0,35.0,1.0
406937,2.871899,-1.165426,-1.298726,0.008334000000000001,-0.185314,-0.378861,0.0,13.0,70.0,180.0,35.0,1.0
406938,2.816374,-1.242665,-1.362709,0.053692,0.034265,-0.434418,0.0,13.0,70.0,180.0,35.0,1.0
406939,2.716117,-1.30625,-1.45406,0.079946,0.271254,-0.368644,0.0,13.0,70.0,180.0,35.0,1.0
406940,2.552948,-1.359323,-1.581343,-0.08504400000000001,-0.114319,-0.15016500000000002,0.0,13.0,70.0,180.0,35.0,1.0
406941,2.342823,-1.396956,-1.729712,-0.147573,-0.594242,0.234146,0.0,13.0,70.0,180.0,35.0,1.0
406942,2.261847,-1.412113,-1.748431,-0.539848,-0.7741640000000001,1.074877,0.0,13.0,70.0,180.0,35.0,1.0
406943,2.449389,-1.4070790000000002,-1.541232,-0.739776,-0.757167,1.451498,0.0,13.0,70.0,180.0,35.0,1.0
406944,2.602414,-1.405225,-1.425532,-0.38285,-1.106014,-0.064246,0.0,13.0,70.0,180.0,35.0,1.0
406945,2.708963,-1.428076,-1.387088,-0.04678,-0.716182,-0.506103,0.0,13.0,70.0,180.0,35.0,1.0
406946,2.8077400000000003,-1.441176,-1.339793,0.15992,-0.444858,-0.473623,0.0,13.0,70.0,180.0,35.0,1.0
406947,2.761947,-1.395733,-1.267665,1.137927,2.029216,0.689576,0.0,13.0,70.0,180.0,35.0,1.0
406948,2.763981,-1.341358,-1.20865,-0.326877,0.220984,1.059399,0.0,13.0,70.0,180.0,35.0,1.0
406949,2.890329,-1.31711,-1.157471,-0.197254,-0.327598,0.311679,0.0,13.0,70.0,180.0,35.0,1.0
406950,2.968553,-1.285768,-1.121246,-0.055172000000000006,-0.665037,-0.681002,0.0,13.0,70.0,180.0,35.0,1.0
406951,2.956886,-1.261784,-1.129887,-0.091222,-0.692121,-0.19501,0.0,13.0,70.0,180.0,35.0,1.0
406952,2.937745,-1.2221229999999998,-1.157805,-0.08172,-0.044121,0.740183,0.0,13.0,70.0,180.0,35.0,1.0
406953,2.951565,-1.15857,-1.162527,-0.188378,0.839735,0.677796,0.0,13.0,70.0,180.0,35.0,1.0
406954,2.962508,-1.096499,-1.145814,-0.182717,1.982838,0.007352,0.0,13.0,70.0,180.0,35.0,1.0
406955,2.984626,-1.046761,-1.097474,0.14343,1.524085,-1.062275,0.0,13.0,70.0,180.0,35.0,1.0
406956,2.981912,-1.006956,-1.070254,0.584915,-0.027094,-0.6762520000000001,0.0,13.0,70.0,180.0,35.0,1.0
406957,2.963146,-0.969931,-1.07055,0.626884,-0.5103479999999999,-0.211922,0.0,13.0,70.0,180.0,35.0,1.0
406958,2.944064,-0.963927,-1.086684,0.293844,-0.332637,0.203476,0.0,13.0,70.0,180.0,35.0,1.0
406959,2.950564,-0.989966,-1.115908,0.147769,-0.021722,-0.145743,0.0,13.0,70.0,180.0,35.0,1.0
406960,2.959915,-1.036952,-1.1573870000000002,0.096081,-0.138918,-0.239893,0.0,13.0,70.0,180.0,35.0,1.0
406961,2.96063,-1.097085,-1.195339,-0.089534,-0.135197,-0.471459,0.0,13.0,70.0,180.0,35.0,1.0
406962,2.948093,-1.1750040000000002,-1.225961,-0.185327,-0.18795,-0.400693,0.0,13.0,70.0,180.0,35.0,1.0
406963,2.904984,-1.260761,-1.27722,-0.195644,-0.148124,-0.295654,0.0,13.0,70.0,180.0,35.0,1.0
406964,2.804959,-1.343414,-1.347874,-0.112452,-0.435564,-0.393292,0.0,13.0,70.0,180.0,35.0,1.0
406965,2.632214,-1.407388,-1.443243,-0.19796,-0.859191,-0.06331200000000001,0.0,13.0,70.0,180.0,35.0,1.0
406966,2.603771,-1.425433,-1.386695,-0.713463,-0.8344090000000001,1.198653,0.0,13.0,70.0,180.0,35.0,1.0
406967,2.899612,-1.394656,-1.122526,-0.666895,-0.90567,2.388129,0.0,13.0,70.0,180.0,35.0,1.0
406968,2.942911,-1.420563,-1.154512,0.053836,-0.984143,-0.6893729999999999,0.0,13.0,70.0,180.0,35.0,1.0
406969,2.894779,-1.455208,-1.256607,0.482738,-0.526454,-0.6208199999999999,0.0,13.0,70.0,180.0,35.0,1.0
406970,2.959336,-1.4377030000000002,-1.218958,0.8754870000000001,0.432428,-0.279366,0.0,13.0,70.0,180.0,35.0,1.0
406971,2.866661,-1.368598,-1.236848,0.735416,1.10335,0.403014,0.0,13.0,70.0,180.0,35.0,1.0
406972,2.807546,-1.320973,-1.216145,-0.403948,1.274589,3.26983,0.0,13.0,70.0,180.0,35.0,1.0
406973,2.958729,-1.30066,-1.1641549999999998,0.017787999999999998,-0.156331,-0.168562,0.0,13.0,70.0,180.0,35.0,1.0
406974,3.051798,-1.258813,-1.135381,0.021792,-0.268316,-0.6662359999999999,0.0,13.0,70.0,180.0,35.0,1.0
406975,3.027086,-1.175161,-1.15186,-0.211391,0.374474,1.231807,0.0,13.0,70.0,180.0,35.0,1.0
406976,3.006845,-1.077834,-1.162144,-0.458197,2.376054,0.286643,0.0,13.0,70.0,180.0,35.0,1.0
406977,2.999461,-0.983272,-1.128324,-0.189266,1.958196,-0.6730649999999999,0.0,13.0,70.0,180.0,35.0,1.0
406978,2.976894,-0.909833,-1.094152,0.417694,-0.074603,-0.812321,0.0,13.0,70.0,180.0,35.0,1.0
406979,2.953266,-0.8663629999999999,-1.0920729999999998,0.5154479999999999,-0.5074310000000001,-0.318321,0.0,13.0,70.0,180.0,35.0,1.0
406980,2.936808,-0.8555450000000001,-1.104225,0.407136,-0.315399,-0.074715,0.0,13.0,70.0,180.0,35.0,1.0
406981,2.936784,-0.874518,-1.126255,0.311898,-0.020699,-0.280803,0.0,13.0,70.0,180.0,35.0,1.0
406982,2.943145,-0.920237,-1.162796,0.198581,-0.138397,-0.362278,0.0,13.0,70.0,180.0,35.0,1.0
406983,2.945042,-0.984011,-1.202869,-0.048465,-0.210639,-0.5241279999999999,0.0,13.0,70.0,180.0,35.0,1.0
406984,2.933973,-1.059944,-1.232907,-0.265621,-0.26110700000000003,-0.481022,0.0,13.0,70.0,180.0,35.0,1.0
406985,2.914777,-1.151093,-1.261309,-0.330478,-0.293611,-0.362818,0.0,13.0,70.0,180.0,35.0,1.0
406986,2.851176,-1.246826,-1.32594,-0.34373000000000004,-0.392925,-0.330031,0.0,13.0,70.0,180.0,35.0,1.0
406987,2.687576,-1.330918,-1.432884,0.12670399999999998,-0.232842,-0.59111,0.0,13.0,70.0,180.0,35.0,1.0
406988,2.449447,-1.383536,-1.5771309999999998,-0.05732,-0.6529739999999999,-0.071168,0.0,13.0,70.0,180.0,35.0,1.0
406989,2.326227,-1.397083,-1.615814,-0.201035,-0.816813,0.537779,0.0,13.0,70.0,180.0,35.0,1.0
406990,2.462257,-1.38206,-1.489195,-0.390722,-0.540836,1.881882,0.0,13.0,70.0,180.0,35.0,1.0
406991,2.585048,-1.379171,-1.439638,-0.173353,-0.907599,0.341431,0.0,13.0,70.0,180.0,35.0,1.0
406992,2.608744,-1.41124,-1.4984959999999998,-0.059794000000000014,-0.964303,-0.72816,0.0,13.0,70.0,180.0,35.0,1.0
406993,2.686559,-1.435269,-1.488973,0.408739,-0.39473,-0.739842,0.0,13.0,70.0,180.0,35.0,1.0
406994,2.707771,-1.379793,-1.365915,0.671475,1.707334,0.080002,0.0,13.0,70.0,180.0,35.0,1.0
406995,2.676329,-1.298337,-1.253314,-0.119187,2.675697,4.172693,0.0,13.0,70.0,180.0,35.0,1.0
406996,2.912147,-1.293744,-1.151663,0.113987,-0.345762,-0.255506,0.0,13.0,70.0,180.0,35.0,1.0
406997,3.083631,-1.272303,-1.089389,0.040552,-0.94008,-1.401011,0.0,13.0,70.0,180.0,35.0,1.0
406998,3.123088,-1.239433,-1.063925,-0.19796,-0.99751,-0.903222,0.0,13.0,70.0,180.0,35.0,1.0
406999,3.059773,-1.210451,-1.091523,-0.038231,0.599579,2.416233,0.0,13.0,70.0,180.0,35.0,1.0
407000,3.000065,-1.1289790000000002,-1.140192,-0.27970300000000003,2.956116,1.576595,0.0,13.0,70.0,180.0,35.0,1.0
407001,3.028432,-1.050497,-1.095516,-0.090727,1.851323,-0.759622,0.0,13.0,70.0,180.0,35.0,1.0
407002,3.025506,-0.974812,-1.053856,0.042651,1.362574,-1.03854,0.0,13.0,70.0,180.0,35.0,1.0
407003,3.004359,-0.922813,-1.042963,0.443583,0.175552,-0.4958010000000001,0.0,13.0,70.0,180.0,35.0,1.0
407004,2.986757,-0.8985299999999999,-1.049383,0.381164,-0.487063,-0.014794,0.0,13.0,70.0,180.0,35.0,1.0
407005,2.981044,-0.902856,-1.068352,0.303637,-0.397083,-0.018457,0.0,13.0,70.0,180.0,35.0,1.0
407006,2.975855,-0.933452,-1.103268,0.12654400000000002,-0.11827,-0.215854,0.0,13.0,70.0,180.0,35.0,1.0
407007,2.96915,-0.982854,-1.141881,0.0809,-0.103492,-0.525131,0.0,13.0,70.0,180.0,35.0,1.0
407008,2.953945,-1.040424,-1.178427,0.07484,-0.113016,-0.538243,0.0,13.0,70.0,180.0,35.0,1.0
407009,2.920023,-1.106714,-1.218153,-0.059958,-0.079581,-0.476632,0.0,13.0,70.0,180.0,35.0,1.0
407010,2.867712,-1.184599,-1.269102,-0.228188,-0.385272,-0.317899,0.0,13.0,70.0,180.0,35.0,1.0
407011,2.770518,-1.266671,-1.35513,-0.165897,-0.831764,-0.398118,0.0,13.0,70.0,180.0,35.0,1.0
407012,2.595264,-1.335568,-1.494205,-0.270544,-0.790058,-0.576084,0.0,13.0,70.0,180.0,35.0,1.0
407013,2.331177,-1.379941,-1.6858830000000002,-0.52883,-0.767731,-0.116342,0.0,13.0,70.0,180.0,35.0,1.0
407014,2.201632,-1.390742,-1.715968,-0.904051,-0.598733,2.29761,0.0,13.0,70.0,180.0,35.0,1.0
407015,2.397831,-1.3763459999999998,-1.516162,-0.551014,-0.465804,2.660207,0.0,13.0,70.0,180.0,35.0,1.0
407016,2.4892950000000003,-1.394212,-1.514734,0.094609,-0.864241,-0.751026,0.0,13.0,70.0,180.0,35.0,1.0
407017,2.500116,-1.428137,-1.594924,0.178227,-0.89864,-0.997077,0.0,13.0,70.0,180.0,35.0,1.0
407018,2.606675,-1.445398,-1.562365,0.745001,-0.094229,-0.645895,0.0,13.0,70.0,180.0,35.0,1.0
407019,2.611085,-1.400202,-1.480411,0.6374380000000001,1.563436,0.08554400000000001,0.0,13.0,70.0,180.0,35.0,1.0
407020,2.548485,-1.322076,-1.350929,0.601672,2.135111,1.351597,0.0,13.0,70.0,180.0,35.0,1.0
407021,2.7512220000000003,-1.302066,-1.246707,-0.159396,-0.475263,0.05164,0.0,13.0,70.0,180.0,35.0,1.0
407022,2.914875,-1.287079,-1.214609,-0.124764,-0.631958,-0.841359,0.0,13.0,70.0,180.0,35.0,1.0
407023,2.977689,-1.248736,-1.172112,-0.37887,0.146584,-0.805345,0.0,13.0,70.0,180.0,35.0,1.0
407024,2.920685,-1.179491,-1.138895,-0.675838,1.938686,1.362484,0.0,13.0,70.0,180.0,35.0,1.0
407025,2.934028,-1.107435,-1.087066,-0.396199,1.698478,0.498449,0.0,13.0,70.0,180.0,35.0,1.0
407026,2.999843,-1.06013,-1.022494,0.231748,0.963595,-1.0365540000000002,0.0,13.0,70.0,180.0,35.0,1.0
407027,3.03504,-1.02374,-0.962262,0.50544,0.5462859999999999,-0.8498450000000001,0.0,13.0,70.0,180.0,35.0,1.0
407028,3.037567,-0.996659,-0.922398,0.536165,0.398452,-0.532676,0.0,13.0,70.0,180.0,35.0,1.0
407029,3.052598,-0.981962,-0.890882,0.228685,0.07420399999999999,0.070667,0.0,13.0,70.0,180.0,35.0,1.0
407030,3.058396,-0.977773,-0.871165,0.058003999999999986,-0.199601,-0.261322,0.0,13.0,70.0,180.0,35.0,1.0
407031,3.048821,-0.984197,-0.8685649999999999,-0.055810000000000005,-0.5437350000000001,-0.274305,0.0,13.0,70.0,180.0,35.0,1.0
407032,3.040617,-1.00308,-0.8758729999999999,0.07960199999999999,-0.557136,-0.277637,0.0,13.0,70.0,180.0,35.0,1.0
407033,3.03246,-1.035334,-0.889991,0.146347,-0.497682,-0.265543,0.0,13.0,70.0,180.0,35.0,1.0
407034,3.015861,-1.0810879999999998,-0.912569,0.191215,-0.4270560000000001,-0.390873,0.0,13.0,70.0,180.0,35.0,1.0
407035,2.974878,-1.131416,-0.956745,0.18103,-0.487993,-0.476586,0.0,13.0,70.0,180.0,35.0,1.0
407036,2.885339,-1.183292,-1.047925,0.172292,-0.515638,-0.468895,0.0,13.0,70.0,180.0,35.0,1.0
407037,2.728161,-1.227902,-1.190881,0.244216,0.23970300000000005,-0.464007,0.0,13.0,70.0,180.0,35.0,1.0
407038,2.598012,-1.259336,-1.253756,0.234041,1.089785,0.123884,0.0,13.0,70.0,180.0,35.0,1.0
407039,2.558801,-1.233141,-1.213158,0.088253,0.278741,1.24374,0.0,13.0,70.0,180.0,35.0,1.0
407040,2.61965,-1.214721,-1.154726,-0.553922,0.105834,1.450326,0.0,13.0,70.0,180.0,35.0,1.0
407041,2.687708,-1.2259639999999998,-1.121011,-0.208179,-0.252579,0.653365,0.0,13.0,70.0,180.0,35.0,1.0
407042,2.764923,-1.237626,-1.078184,-0.097173,-0.4388,0.4959,0.0,13.0,70.0,180.0,35.0,1.0
407043,2.834827,-1.242888,-1.070319,0.032737,0.431578,-2.062665,0.0,13.0,70.0,180.0,35.0,1.0
407044,2.86211,-1.254983,-1.0745129999999998,0.028536,0.790072,-2.010503,0.0,13.0,70.0,180.0,35.0,1.0
407045,2.878918,-1.2803719999999998,-1.0682969999999998,-0.044081,1.058571,-1.194234,0.0,13.0,70.0,180.0,35.0,1.0
407046,2.862217,-1.272578,-1.074761,-0.8894290000000001,0.923518,1.5115610000000002,0.0,13.0,70.0,180.0,35.0,1.0
407047,2.825715,-1.263975,-1.082998,-0.231121,0.28838600000000003,0.23068400000000006,0.0,13.0,70.0,180.0,35.0,1.0
407048,2.828119,-1.280466,-1.085527,0.217499,0.343776,-0.6588890000000001,0.0,13.0,70.0,180.0,35.0,1.0
407049,2.825009,-1.303187,-1.087872,0.033602999999999994,0.445232,-0.751915,0.0,13.0,70.0,180.0,35.0,1.0
407050,2.781365,-1.334834,-1.113692,0.044386,0.320038,-0.612575,0.0,13.0,70.0,180.0,35.0,1.0
407051,2.659484,-1.38081,-1.189452,0.251103,0.13501300000000002,-0.12356,0.0,13.0,70.0,180.0,35.0,1.0
407052,2.422061,-1.421601,-1.350321,0.060911,0.022797,0.191303,0.0,13.0,70.0,180.0,35.0,1.0
407053,2.204105,-1.435986,-1.503681,-0.154815,-0.005362,0.258575,0.0,13.0,70.0,180.0,35.0,1.0
407054,2.018944,-1.443163,-1.658002,-0.253736,-0.235717,0.107836,0.0,13.0,70.0,180.0,35.0,1.0
407055,1.7642,-1.451281,-1.898596,-0.140895,-0.356453,-0.029946,0.0,13.0,70.0,180.0,35.0,1.0
407056,1.474899,-1.451955,-2.181387,-0.099514,-0.393948,-0.003878,0.0,13.0,70.0,180.0,35.0,1.0
407057,1.216825,-1.443242,-2.439156,-0.043221,-0.429361,-0.005139,0.0,13.0,70.0,180.0,35.0,1.0
407058,1.021164,-1.42682,-2.637314,-0.058565,-0.35441500000000004,-0.054897,0.0,13.0,70.0,180.0,35.0,1.0
407059,0.877574,-1.404776,-2.773495,-0.061338,-0.300536,-0.065259,0.0,13.0,70.0,180.0,35.0,1.0
407060,0.765109,-1.380525,-2.861179,-0.049256,-0.16248,0.080134,0.0,13.0,70.0,180.0,35.0,1.0
407061,0.67195,-1.355428,-2.9278060000000004,-0.043673,0.073166,0.580677,0.0,13.0,70.0,180.0,35.0,1.0
407062,0.628945,-1.33759,-2.959225,0.074014,0.139374,0.775629,0.0,13.0,70.0,180.0,35.0,1.0
407063,0.6677960000000001,-1.330443,-2.925871,-0.186468,0.153593,0.487867,0.0,13.0,70.0,180.0,35.0,1.0
407064,0.733478,-1.329941,-2.867595,-0.432448,0.290706,0.213717,0.0,13.0,70.0,180.0,35.0,1.0
407065,0.770879,-1.332762,-2.823119,-0.496898,0.420561,0.077178,0.0,13.0,70.0,180.0,35.0,1.0
407066,0.7881279999999999,-1.344933,-2.776723,-0.570004,0.7036979999999999,0.020861,0.0,13.0,70.0,180.0,35.0,1.0
407067,0.834298,-1.372499,-2.697483,-0.642578,0.712895,0.27515500000000004,0.0,13.0,70.0,180.0,35.0,1.0
407068,0.998278,-1.414598,-2.51618,-0.589364,0.496809,0.294001,0.0,13.0,70.0,180.0,35.0,1.0
407069,1.46126,-1.44805,-2.02975,-0.305753,0.197633,0.215317,0.0,13.0,70.0,180.0,35.0,1.0
407070,2.075038,-1.432444,-1.369652,0.061199,0.092853,0.054044000000000016,0.0,13.0,70.0,180.0,35.0,1.0
407071,2.402921,-1.37903,-1.017336,0.269814,0.016454,-0.060631,0.0,13.0,70.0,180.0,35.0,1.0
407072,2.583351,-1.325259,-0.8608469999999999,0.430987,0.17309000000000002,-0.011372,0.0,13.0,70.0,180.0,35.0,1.0
407073,2.725386,-1.286165,-0.756962,0.08063,0.08541599999999999,-0.181123,0.0,13.0,70.0,180.0,35.0,1.0
407074,2.777375,-1.2818889999999998,-0.6846270000000001,-0.177673,0.408281,-1.048526,0.0,13.0,70.0,180.0,35.0,1.0
407075,2.776002,-1.284655,-0.5829439999999999,-0.528392,0.870921,-0.50915,0.0,13.0,70.0,180.0,35.0,1.0
407076,2.893475,-1.25633,-0.36846,-0.7668149999999999,1.017972,-0.32524899999999995,0.0,13.0,70.0,180.0,35.0,1.0
407077,3.013266,-1.2217129999999998,-0.17162,-0.43789,0.424968,-0.464643,0.0,13.0,70.0,180.0,35.0,1.0
407078,3.046453,-1.186217,-0.047832,-0.151804,-0.132645,-0.697577,0.0,13.0,70.0,180.0,35.0,1.0
407079,3.0335400000000003,-1.149249,0.032727,0.039081,-0.34631,-0.7545270000000001,0.0,13.0,70.0,180.0,35.0,1.0
407080,3.0149060000000003,-1.118962,0.092188,0.25419200000000003,-0.466909,-0.312216,0.0,13.0,70.0,180.0,35.0,1.0
407081,3.011366,-1.106063,0.146021,0.31593000000000004,-0.515508,-0.133882,0.0,13.0,70.0,180.0,35.0,1.0
407082,3.007847,-1.1049790000000002,0.190055,0.078734,-0.410667,-0.335058,0.0,13.0,70.0,180.0,35.0,1.0
407083,2.998412,-1.109888,0.22466,-0.079454,-0.285847,-0.395938,0.0,13.0,70.0,180.0,35.0,1.0
407084,2.984573,-1.120125,0.252125,-0.058163,-0.271127,-0.33885,0.0,13.0,70.0,180.0,35.0,1.0
407085,2.967227,-1.136412,0.272227,0.057453,-0.338556,-0.290822,0.0,13.0,70.0,180.0,35.0,1.0
407086,2.943115,-1.159599,0.278265,0.223816,-0.364076,-0.155678,0.0,13.0,70.0,180.0,35.0,1.0
407087,2.907605,-1.189095,0.26155300000000004,0.222595,-0.317101,-0.068656,0.0,13.0,70.0,180.0,35.0,1.0
407088,2.849993,-1.221728,0.213516,0.149936,-0.136408,0.046674,0.0,13.0,70.0,180.0,35.0,1.0
407089,2.777358,-1.2518280000000002,0.146649,0.104433,-0.005849,0.076301,0.0,13.0,70.0,180.0,35.0,1.0
407090,2.704789,-1.2697459999999998,0.087686,-0.024992,0.697822,0.212876,0.0,13.0,70.0,180.0,35.0,1.0
407091,2.665344,-1.263937,0.09093,-0.131307,1.092093,0.370042,0.0,13.0,70.0,180.0,35.0,1.0
407092,2.677556,-1.246732,0.174101,-0.209543,0.5482060000000001,0.391342,0.0,13.0,70.0,180.0,35.0,1.0
407093,2.739176,-1.236268,0.294683,-0.331784,-0.339951,0.485065,0.0,13.0,70.0,180.0,35.0,1.0
407094,2.812872,-1.233528,0.405369,-0.221618,-0.761075,0.413789,0.0,13.0,70.0,180.0,35.0,1.0
407095,2.86512,-1.244407,0.480446,-0.218727,-0.690126,0.279739,0.0,13.0,70.0,180.0,35.0,1.0
407096,2.893838,-1.262676,0.511468,-0.289196,0.567404,-0.347802,0.0,13.0,70.0,180.0,35.0,1.0
407097,2.8812,-1.250921,0.49314,-0.021538,1.847478,-0.603705,0.0,13.0,70.0,180.0,35.0,1.0
407098,2.846444,-1.205377,0.477908,0.27675,0.334825,-0.650262,0.0,13.0,70.0,180.0,35.0,1.0
407099,2.809674,-1.187251,0.4663810000000001,0.494549,-0.97254,-0.19176,0.0,13.0,70.0,180.0,35.0,1.0
407100,2.7197310000000003,-1.214995,0.4134140000000001,0.517208,-1.263524,-0.16981400000000002,0.0,13.0,70.0,180.0,35.0,1.0
407101,2.6209290000000003,-1.248422,0.30394,-0.062338,-0.895431,-0.17941500000000002,0.0,13.0,70.0,180.0,35.0,1.0
407102,2.501668,-1.272795,0.125218,-0.473963,-0.141426,-0.763111,0.0,13.0,70.0,180.0,35.0,1.0
407103,2.351125,-1.268987,-0.069266,-0.570113,1.251605,-0.7556039999999999,0.0,13.0,70.0,180.0,35.0,1.0
407104,2.289407,-1.239594,-0.104378,-0.647519,1.724041,-0.58001,0.0,13.0,70.0,180.0,35.0,1.0
407105,2.242077,-1.230908,-0.072658,-0.699394,0.106799,0.075315,0.0,13.0,70.0,180.0,35.0,1.0
407106,2.172364,-1.250506,-0.077919,-0.309139,0.030272000000000007,-0.034315,0.0,13.0,70.0,180.0,35.0,1.0
407107,2.118852,-1.282184,-0.09421,-0.131218,-0.011924,-0.184073,0.0,13.0,70.0,180.0,35.0,1.0
407108,2.038221,-1.314338,-0.143553,-0.039364,-0.07950800000000001,-0.185182,0.0,13.0,70.0,180.0,35.0,1.0
407109,1.893042,-1.344417,-0.256305,0.035481,-0.118055,-0.103199,0.0,13.0,70.0,180.0,35.0,1.0
407110,1.704516,-1.365549,-0.40529,0.060429,-0.143012,-0.026819,0.0,13.0,70.0,180.0,35.0,1.0
407111,1.519891,-1.375642,-0.541637,0.067715,-0.130996,0.093195,0.0,13.0,70.0,180.0,35.0,1.0
407112,1.373549,-1.3789360000000002,-0.6454,0.021537,-0.14110599999999998,0.16938499999999998,0.0,13.0,70.0,180.0,35.0,1.0
407113,1.271824,-1.378554,-0.722625,-0.0392,-0.06905700000000001,0.141369,0.0,13.0,70.0,180.0,35.0,1.0
407114,1.184112,-1.375409,-0.80145,-0.045629,-0.032578,0.135406,0.0,13.0,70.0,180.0,35.0,1.0
407115,1.099047,-1.368013,-0.8830530000000001,-0.057134,-0.018282,0.114925,0.0,13.0,70.0,180.0,35.0,1.0
407116,1.0277379999999998,-1.358542,-0.943151,-0.072085,-0.041416,0.078903,0.0,13.0,70.0,180.0,35.0,1.0
407117,0.973048,-1.348504,-0.97942,-0.098458,-0.052406,0.074187,0.0,13.0,70.0,180.0,35.0,1.0
407118,0.928635,-1.339843,-1.005381,-0.217617,0.039857,0.061362,0.0,13.0,70.0,180.0,35.0,1.0
407119,0.884025,-1.331417,-1.038008,-0.227255,0.100078,0.12292,0.0,13.0,70.0,180.0,35.0,1.0
407120,0.817811,-1.32019,-1.093059,-0.15168900000000002,0.120547,0.201832,0.0,13.0,70.0,180.0,35.0,1.0
407121,0.7473310000000001,-1.307273,-1.144511,-0.118385,0.165732,0.215489,0.0,13.0,70.0,180.0,35.0,1.0
407122,0.703505,-1.298505,-1.155193,-0.30315,0.16288,0.280657,0.0,13.0,70.0,180.0,35.0,1.0
407123,0.687247,-1.297384,-1.131741,-0.383867,0.203908,0.370429,0.0,13.0,70.0,180.0,35.0,1.0
407124,0.683979,-1.302993,-1.107162,-0.395791,0.27942,0.463035,0.0,13.0,70.0,180.0,35.0,1.0
407125,0.705869,-1.319935,-1.069901,-0.296462,0.53359,0.414088,0.0,13.0,70.0,180.0,35.0,1.0
407126,0.780493,-1.351924,-0.976988,-0.370574,0.498177,0.211741,0.0,13.0,70.0,180.0,35.0,1.0
407127,0.966548,-1.397801,-0.76072,-0.482508,0.313068,-0.08821699999999999,0.0,13.0,70.0,180.0,35.0,1.0
407128,1.366434,-1.440082,-0.323205,-0.192612,0.289674,0.012715,0.0,13.0,70.0,180.0,35.0,1.0
407129,2.000842,-1.439443,0.325182,-0.081309,0.195672,0.0345,0.0,13.0,70.0,180.0,35.0,1.0
407130,2.3608830000000003,-1.393134,0.671061,0.495094,0.450387,0.137401,0.0,13.0,70.0,180.0,35.0,1.0
407131,2.589814,-1.34955,0.876433,0.784891,0.6452859999999999,-0.012031,0.0,13.0,70.0,180.0,35.0,1.0
407132,2.77596,-1.316325,1.062181,0.197399,0.456123,-1.1280709999999998,0.0,13.0,70.0,180.0,35.0,1.0
407133,2.822723,-1.287883,1.192943,-0.26265,0.383641,-0.990305,0.0,13.0,70.0,180.0,35.0,1.0
407134,2.843405,-1.24009,1.327682,-0.581187,0.364337,0.246117,0.0,13.0,70.0,180.0,35.0,1.0
407135,2.9042220000000003,-1.190592,1.449515,-0.32411,0.449326,-0.4286720000000001,0.0,13.0,70.0,180.0,35.0,1.0
407136,2.937081,-1.138316,1.553117,-0.020604,0.118621,-0.5989939999999999,0.0,13.0,70.0,180.0,35.0,1.0
407137,2.949973,-1.086192,1.634827,0.071756,-0.069201,-0.60596,0.0,13.0,70.0,180.0,35.0,1.0
407138,2.942503,-1.0426540000000002,1.691901,0.199896,-0.478384,-0.5099279999999999,0.0,13.0,70.0,180.0,35.0,1.0
407139,2.923844,-1.012231,1.730182,0.183515,-0.5149630000000001,-0.399894,0.0,13.0,70.0,180.0,35.0,1.0
407140,2.910524,-0.99558,1.760095,0.093384,-0.445779,-0.338907,0.0,13.0,70.0,180.0,35.0,1.0
407141,2.907622,-0.992377,1.787309,0.057946,-0.429979,-0.357344,0.0,13.0,70.0,180.0,35.0,1.0
407142,2.910102,-0.998483,1.811777,0.001008,-0.56024,-0.383096,0.0,13.0,70.0,180.0,35.0,1.0
407143,2.913789,-1.0126190000000002,1.832106,0.046831,-0.624421,-0.26068600000000003,0.0,13.0,70.0,180.0,35.0,1.0
407144,2.920038,-1.035901,1.845686,0.070878,-0.686463,-0.185226,0.0,13.0,70.0,180.0,35.0,1.0
407145,2.929077,-1.066666,1.852995,0.003556,-0.732193,-0.107211,0.0,13.0,70.0,180.0,35.0,1.0
407146,2.937225,-1.103157,1.853163,-0.035956,-0.708843,-0.079422,0.0,13.0,70.0,180.0,35.0,1.0
407147,2.935989,-1.143285,1.838544,-0.095599,-0.600537,-0.082929,0.0,13.0,70.0,180.0,35.0,1.0
407148,2.904692,-1.181545,1.798543,-0.037884,-0.409477,-0.331731,0.0,13.0,70.0,180.0,35.0,1.0
407149,2.825395,-1.209738,1.725745,-0.013868,-0.286308,-0.35512,0.0,13.0,70.0,180.0,35.0,1.0
407150,2.710071,-1.224415,1.634934,0.181847,0.405935,-0.182417,0.0,13.0,70.0,180.0,35.0,1.0
407151,2.589266,-1.2304700000000002,1.548341,0.14565999999999998,0.768261,0.184568,0.0,13.0,70.0,180.0,35.0,1.0
407152,2.528932,-1.237349,1.506751,0.038218,0.6158100000000001,0.472624,0.0,13.0,70.0,180.0,35.0,1.0
407153,2.517546,-1.254911,1.492071,-0.028823,0.047632,0.391582,0.0,13.0,70.0,180.0,35.0,1.0
407154,2.52748,-1.282333,1.490274,-0.063775,-0.145679,0.116342,0.0,13.0,70.0,180.0,35.0,1.0
407155,2.545623,-1.310023,1.4998,-0.032897,-0.182423,-0.108432,0.0,13.0,70.0,180.0,35.0,1.0
407156,2.551458,-1.3259729999999998,1.5162790000000002,0.005676,-0.095546,-0.293464,0.0,13.0,70.0,180.0,35.0,1.0
407157,2.547666,-1.330111,1.544542,-0.094645,-0.199751,-0.1887,0.0,13.0,70.0,180.0,35.0,1.0
407158,2.573747,-1.332676,1.589639,-0.533375,-0.316494,-0.173562,0.0,13.0,70.0,180.0,35.0,1.0
407159,2.6838610000000003,-1.314016,1.674007,-0.547452,0.243771,0.001575,0.0,13.0,70.0,180.0,35.0,1.0
407160,2.745418,-1.265709,1.776757,-0.244113,2.176505,1.916885,0.0,13.0,70.0,180.0,35.0,1.0
407161,2.89755,-1.237727,1.886397,0.37274,0.120478,-0.934618,0.0,13.0,70.0,180.0,35.0,1.0
407162,3.007916,-1.194176,1.962301,0.022197,-0.761807,-1.362719,0.0,13.0,70.0,180.0,35.0,1.0
407163,2.980874,-1.189617,1.974118,0.208062,-0.64893,-0.781305,0.0,13.0,70.0,180.0,35.0,1.0
407164,2.892172,-1.221594,1.94882,0.06941599999999999,-0.350245,-0.551002,0.0,13.0,70.0,180.0,35.0,1.0
407165,2.761793,-1.251401,1.881741,0.042578,-0.011864,0.352666,0.0,13.0,70.0,180.0,35.0,1.0
407166,2.72006,-1.244206,1.8473,-0.501835,0.719332,1.371523,0.0,13.0,70.0,180.0,35.0,1.0
407167,2.733833,-1.247172,1.839373,-0.223987,0.285065,0.013299,0.0,13.0,70.0,180.0,35.0,1.0
407168,2.756482,-1.249415,1.855106,-0.163459,0.048499,-0.064415,0.0,13.0,70.0,180.0,35.0,1.0
407169,2.791892,-1.235923,1.885121,-0.351062,-0.163522,0.63931,0.0,13.0,70.0,180.0,35.0,1.0
407170,2.836159,-1.20436,1.918735,-0.060969,-0.045777,0.5191100000000001,0.0,13.0,70.0,180.0,35.0,1.0
407171,2.867942,-1.153923,1.945572,0.216643,0.27427,0.355212,0.0,13.0,70.0,180.0,35.0,1.0
407172,2.884919,-1.095043,1.969073,0.253954,0.605849,-0.100009,0.0,13.0,70.0,180.0,35.0,1.0
407173,2.886108,-1.046991,1.999686,0.228183,0.6933739999999999,-0.6949350000000001,0.0,13.0,70.0,180.0,35.0,1.0
407174,2.879181,-1.017653,2.026671,0.159646,0.470473,-0.790272,0.0,13.0,70.0,180.0,35.0,1.0
407175,2.870692,-0.98749,2.032953,0.307141,-0.094366,-0.010521,0.0,13.0,70.0,180.0,35.0,1.0
407176,2.85434,-0.972501,2.030051,0.266117,0.051648,0.104794,0.0,13.0,70.0,180.0,35.0,1.0
407177,2.849042,-0.979184,2.021625,0.093315,0.06602999999999999,-0.157593,0.0,13.0,70.0,180.0,35.0,1.0
407178,2.849739,-1.007531,1.999533,0.023189,-0.176464,-0.240809,0.0,13.0,70.0,180.0,35.0,1.0
407179,2.860234,-1.052638,1.973671,0.004755,-0.280506,-0.242537,0.0,13.0,70.0,180.0,35.0,1.0
407180,2.878309,-1.114757,1.951341,-0.019488,-0.267479,-0.348322,0.0,13.0,70.0,180.0,35.0,1.0
407181,2.885416,-1.194492,1.926413,-0.054492,-0.30683,-0.396178,0.0,13.0,70.0,180.0,35.0,1.0
407182,2.859732,-1.27905,1.884565,-0.043254,-0.246851,-0.386798,0.0,13.0,70.0,180.0,35.0,1.0
407183,2.773755,-1.364756,1.822514,-0.12748800000000002,-0.600705,-0.168257,0.0,13.0,70.0,180.0,35.0,1.0
407184,2.5752,-1.439116,1.7036639999999998,-0.228203,-0.8756200000000001,0.015383,0.0,13.0,70.0,180.0,35.0,1.0
407185,2.578585,-1.466122,1.805958,-0.8045,-0.725438,1.15277,0.0,13.0,70.0,180.0,35.0,1.0
407186,3.058471,-1.410405,2.259004,-0.721617,-0.898633,1.929688,0.0,13.0,70.0,180.0,35.0,1.0
407187,-3.083345,-1.425438,2.320117,0.090218,-1.01071,-0.670262,0.0,13.0,70.0,180.0,35.0,1.0
407188,-3.04477,-1.473585,2.304349,0.290493,-0.989114,-0.5869939999999999,0.0,13.0,70.0,180.0,35.0,1.0
407189,-3.106865,-1.44897,2.250727,1.065269,0.581218,-0.058670000000000014,0.0,13.0,70.0,180.0,35.0,1.0
407190,3.030902,-1.377843,2.154853,0.71765,0.928485,0.336683,0.0,13.0,70.0,180.0,35.0,1.0
407191,2.902533,-1.324438,2.100981,-0.306249,1.240642,2.655209,0.0,13.0,70.0,180.0,35.0,1.0
407192,3.010925,-1.293406,2.133457,-0.180089,0.235675,1.0402360000000002,0.0,13.0,70.0,180.0,35.0,1.0
407193,3.084217,-1.241068,2.1353470000000003,-0.123394,-0.229623,-0.667452,0.0,13.0,70.0,180.0,35.0,1.0
407194,3.041236,-1.161045,2.0961950000000003,-0.213527,0.7884680000000001,0.995951,0.0,13.0,70.0,180.0,35.0,1.0
407195,3.007366,-1.073362,2.082523,-0.2787,2.255697,1.1506610000000002,0.0,13.0,70.0,180.0,35.0,1.0
407196,3.004995,-1.000634,2.118923,-0.122467,1.628752,-1.337622,0.0,13.0,70.0,180.0,35.0,1.0
407197,2.99288,-0.953512,2.149687,0.413492,0.447242,-0.738841,0.0,13.0,70.0,180.0,35.0,1.0
407198,2.97611,-0.926695,2.151358,0.6361,-0.06853,0.183303,0.0,13.0,70.0,180.0,35.0,1.0
407199,2.976369,-0.933692,2.137772,0.522721,-0.144871,-0.170992,0.0,13.0,70.0,180.0,35.0,1.0
407200,2.981258,-0.964452,2.108098,0.14413,-0.116689,-0.361319,0.0,13.0,70.0,180.0,35.0,1.0
407201,2.982935,-1.009289,2.078586,-0.158633,-0.255206,-0.528271,0.0,13.0,70.0,180.0,35.0,1.0
407202,2.98482,-1.065818,2.070279,-0.338595,-0.457994,-0.455189,0.0,13.0,70.0,180.0,35.0,1.0
407203,2.996553,-1.136637,2.085911,-0.482579,-0.983503,-0.280389,0.0,13.0,70.0,180.0,35.0,1.0
407204,3.0163990000000003,-1.216217,2.101302,-0.342409,-1.088259,-0.269823,0.0,13.0,70.0,180.0,35.0,1.0
407205,2.989969,-1.30044,2.1012880000000003,-0.172754,-1.116066,-0.387199,0.0,13.0,70.0,180.0,35.0,1.0
407206,2.869349,-1.370846,2.0544990000000003,0.08265800000000001,-0.981663,-0.30945700000000004,0.0,13.0,70.0,180.0,35.0,1.0
407207,2.835034,-1.3749280000000002,2.082579,-0.521786,-0.48004,1.623443,0.0,13.0,70.0,180.0,35.0,1.0
407208,2.904932,-1.369621,2.12133,-0.398089,-0.140523,2.7636,0.0,13.0,70.0,180.0,35.0,1.0
407209,2.941264,-1.4005040000000002,2.113401,0.040117,-0.602509,-0.8215549999999999,0.0,13.0,70.0,180.0,35.0,1.0
407210,2.996073,-1.424766,2.1275,0.540196,-0.287971,-0.532097,0.0,13.0,70.0,180.0,35.0,1.0
407211,2.963326,-1.3855620000000002,2.107496,0.716306,0.576601,-0.086977,0.0,13.0,70.0,180.0,35.0,1.0
407212,2.77321,-1.28131,2.0531740000000003,0.735464,2.649657,2.55569,0.0,13.0,70.0,180.0,35.0,1.0
407213,2.944675,-1.261421,2.135119,-0.014476,-0.253595,0.5053979999999999,0.0,13.0,70.0,180.0,35.0,1.0
407214,3.119463,-1.237827,2.167825,-0.058578,-0.8491290000000001,-1.021924,0.0,13.0,70.0,180.0,35.0,1.0
407215,-3.134286,-1.201223,2.153247,-0.196381,-0.458147,-1.014811,0.0,13.0,70.0,180.0,35.0,1.0
407216,3.063308,-1.16344,2.107392,-0.304756,0.15063,-0.762243,0.0,13.0,70.0,180.0,35.0,1.0
407217,3.057602,-1.0815780000000002,2.116647,-0.750788,3.363882,1.080523,0.0,13.0,70.0,180.0,35.0,1.0
407218,3.078122,-1.006982,2.168604,-0.030601,1.710716,-0.753868,0.0,13.0,70.0,180.0,35.0,1.0
407219,3.068643,-0.942879,2.200582,0.757217,0.619656,-0.612641,0.0,13.0,70.0,180.0,35.0,1.0
407220,3.04382,-0.902377,2.204396,0.550434,-0.3755,-0.12934,0.0,13.0,70.0,180.0,35.0,1.0
