,attitude.roll,attitude.pitch,attitude.yaw,userAcceleration.x,userAcceleration.y,userAcceleration.z,act,id,weight,height,age,gender
465101,1.044129,-1.364544,-0.7620060000000001,0.277799,0.073975,-0.005989,0.0,15.0,96.0,172.0,29.0,0.0
465102,1.033699,-1.37497,-0.777007,0.209674,-0.051886,0.032646,0.0,15.0,96.0,172.0,29.0,0.0
465103,1.020201,-1.385414,-0.792103,0.16436900000000002,-0.157625,0.108598,0.0,15.0,96.0,172.0,29.0,0.0
465104,0.991317,-1.3926690000000002,-0.8202809999999999,0.138705,-0.19455,0.106623,0.0,15.0,96.0,172.0,29.0,0.0
465105,0.938219,-1.393323,-0.871891,0.141697,-0.141046,0.052633000000000006,0.0,15.0,96.0,172.0,29.0,0.0
465106,0.876761,-1.384814,-0.93175,0.073857,-0.186216,0.099599,0.0,15.0,96.0,172.0,29.0,0.0
465107,0.8109460000000001,-1.366658,-0.99596,0.069027,-0.182697,0.120961,0.0,15.0,96.0,172.0,29.0,0.0
465108,0.741192,-1.33763,-1.061771,-0.12503,-0.361825,0.1545,0.0,15.0,96.0,172.0,29.0,0.0
465109,0.675124,-1.294188,-1.121281,-0.288578,-0.255704,0.00129,0.0,15.0,96.0,172.0,29.0,0.0
465110,0.624586,-1.236924,-1.165123,-0.309527,-0.238497,0.053943,0.0,15.0,96.0,172.0,29.0,0.0
465111,0.592493,-1.172855,-1.192985,-0.550948,-0.130998,0.206349,0.0,15.0,96.0,172.0,29.0,0.0
465112,0.584813,-1.110961,-1.199167,-0.599989,0.020836,0.26826500000000003,0.0,15.0,96.0,172.0,29.0,0.0
465113,0.596592,-1.05211,-1.19494,-0.622693,0.21208,0.2186,0.0,15.0,96.0,172.0,29.0,0.0
465114,0.636373,-1.005767,-1.181201,0.103706,0.527909,-0.048225,0.0,15.0,96.0,172.0,29.0,0.0
465115,0.691438,-0.981635,-1.154928,0.051753,1.197966,-0.5373979999999999,0.0,15.0,96.0,172.0,29.0,0.0
465116,0.755754,-0.963372,-1.109004,0.398949,0.788513,-0.526026,0.0,15.0,96.0,172.0,29.0,0.0
465117,0.795245,-0.9506,-1.074675,0.5814090000000001,0.495562,-0.491617,0.0,15.0,96.0,172.0,29.0,0.0
465118,0.80542,-0.950636,-1.050875,0.380839,-0.431293,0.015548,0.0,15.0,96.0,172.0,29.0,0.0
465119,0.793269,-0.967248,-1.0432860000000002,0.204809,-0.554925,0.0006349999999999999,0.0,15.0,96.0,172.0,29.0,0.0
465120,0.7864439999999999,-0.997191,-1.043504,0.07446900000000001,-0.498611,-0.05986,0.0,15.0,96.0,172.0,29.0,0.0
465121,0.7791279999999999,-1.031216,-1.051289,-0.012174,-0.502532,-0.000878,0.0,15.0,96.0,172.0,29.0,0.0
465122,0.7711210000000001,-1.0620379999999998,-1.066451,-0.044442,-0.555662,-0.03044,0.0,15.0,96.0,172.0,29.0,0.0
465123,0.777486,-1.091813,-1.072198,-0.043587,-0.556379,-0.098854,0.0,15.0,96.0,172.0,29.0,0.0
465124,0.801574,-1.12077,-1.053723,-0.08860599999999999,-0.494537,-0.037417,0.0,15.0,96.0,172.0,29.0,0.0
465125,0.821702,-1.14512,-1.033231,-0.225273,-0.354592,-0.033258,0.0,15.0,96.0,172.0,29.0,0.0
465126,0.81939,-1.16821,-1.035836,-0.16126400000000002,0.515618,-0.100228,0.0,15.0,96.0,172.0,29.0,0.0
465127,0.82675,-1.185178,-1.020593,-0.204752,0.072168,-0.006767,0.0,15.0,96.0,172.0,29.0,0.0
465128,0.8522700000000001,-1.20925,-0.988481,-0.235764,-0.233706,0.010902,0.0,15.0,96.0,172.0,29.0,0.0
465129,0.904456,-1.237183,-0.937057,-0.298008,-0.192149,-0.052833000000000005,0.0,15.0,96.0,172.0,29.0,0.0
465130,0.963206,-1.262993,-0.883067,-0.282837,-0.254286,0.006237,0.0,15.0,96.0,172.0,29.0,0.0
465131,0.99836,-1.282592,-0.849899,-0.261081,-0.231354,0.037471,0.0,15.0,96.0,172.0,29.0,0.0
465132,1.020291,-1.294108,-0.8295600000000001,-0.234221,-0.029012,0.14670899999999998,0.0,15.0,96.0,172.0,29.0,0.0
465133,1.037172,-1.298357,-0.808883,-0.042863,0.195635,0.01957,0.0,15.0,96.0,172.0,29.0,0.0
465134,1.043508,-1.296377,-0.793871,-0.045602,0.597598,0.251664,0.0,15.0,96.0,172.0,29.0,0.0
465135,1.039776,-1.294245,-0.7840090000000001,0.068663,0.368701,0.238744,0.0,15.0,96.0,172.0,29.0,0.0
465136,1.018575,-1.293236,-0.785333,0.198201,0.448429,-0.187275,0.0,15.0,96.0,172.0,29.0,0.0
465137,1.013234,-1.296553,-0.763992,0.181814,1.164353,0.303124,0.0,15.0,96.0,172.0,29.0,0.0
465138,1.033284,-1.295193,-0.739243,-0.187203,-0.151409,0.330439,0.0,15.0,96.0,172.0,29.0,0.0
465139,1.042736,-1.282097,-0.743844,0.026546,-0.166196,-0.25105500000000003,0.0,15.0,96.0,172.0,29.0,0.0
465140,1.052473,-1.264558,-0.753169,0.260625,0.15651099999999998,-0.399827,0.0,15.0,96.0,172.0,29.0,0.0
465141,1.049956,-1.251858,-0.770368,0.384949,0.149796,-0.046399,0.0,15.0,96.0,172.0,29.0,0.0
465142,1.046457,-1.248444,-0.786724,0.179002,-0.049613,0.049238,0.0,15.0,96.0,172.0,29.0,0.0
465143,1.058064,-1.258096,-0.781844,0.208288,0.124605,0.106426,0.0,15.0,96.0,172.0,29.0,0.0
465144,1.065122,-1.27755,-0.7790020000000001,0.163858,0.166499,0.158799,0.0,15.0,96.0,172.0,29.0,0.0
465145,1.066283,-1.300335,-0.783082,0.080316,0.043417,0.120078,0.0,15.0,96.0,172.0,29.0,0.0
465146,1.060849,-1.322794,-0.798391,0.163064,-0.042159,-0.125868,0.0,15.0,96.0,172.0,29.0,0.0
465147,1.053551,-1.339852,-0.8205450000000001,0.200733,-0.044389,-0.25092600000000004,0.0,15.0,96.0,172.0,29.0,0.0
465148,1.037707,-1.349422,-0.8513379999999999,0.227033,-0.111461,-0.101238,0.0,15.0,96.0,172.0,29.0,0.0
465149,0.997446,-1.350331,-0.899965,0.183091,-0.268322,0.071863,0.0,15.0,96.0,172.0,29.0,0.0
465150,0.939754,-1.344789,-0.954658,0.091878,-0.300573,0.183668,0.0,15.0,96.0,172.0,29.0,0.0
465151,0.866585,-1.331382,-1.015681,-0.049976,-0.334636,0.178726,0.0,15.0,96.0,172.0,29.0,0.0
465152,0.787449,-1.306837,-1.079358,-0.091228,-0.35631,0.115404,0.0,15.0,96.0,172.0,29.0,0.0
465153,0.713174,-1.269578,-1.140817,-0.15237699999999998,-0.283543,0.067678,0.0,15.0,96.0,172.0,29.0,0.0
465154,0.6438020000000001,-1.217465,-1.205719,-0.280554,-0.27370500000000003,0.06769,0.0,15.0,96.0,172.0,29.0,0.0
465155,0.591357,-1.158666,-1.259059,-0.35430100000000003,-0.31861300000000004,0.13536099999999998,0.0,15.0,96.0,172.0,29.0,0.0
465156,0.57127,-1.1060530000000002,-1.285527,-0.5023,-0.405243,0.130044,0.0,15.0,96.0,172.0,29.0,0.0
465157,0.574385,-1.0580459999999998,-1.29248,-0.401714,-0.32283,0.092969,0.0,15.0,96.0,172.0,29.0,0.0
465158,0.586144,-1.005255,-1.299221,-0.394302,-0.127853,0.11048399999999997,0.0,15.0,96.0,172.0,29.0,0.0
465159,0.603209,-0.956906,-1.301552,0.404111,0.750946,0.040534,0.0,15.0,96.0,172.0,29.0,0.0
465160,0.626622,-0.933612,-1.288145,0.646792,0.7990550000000001,-0.254198,0.0,15.0,96.0,172.0,29.0,0.0
465161,0.651474,-0.938668,-1.259801,0.439792,0.903006,-0.225207,0.0,15.0,96.0,172.0,29.0,0.0
465162,0.666713,-0.956832,-1.234111,0.29397,0.617108,-0.419453,0.0,15.0,96.0,172.0,29.0,0.0
465163,0.691135,-0.978617,-1.203024,-0.061699,0.21843,-0.338475,0.0,15.0,96.0,172.0,29.0,0.0
465164,0.730479,-1.008198,-1.164563,-0.011861,-0.230561,-0.333681,0.0,15.0,96.0,172.0,29.0,0.0
465165,0.7658229999999999,-1.04273,-1.136451,-0.13053499999999998,-0.250486,-0.16559100000000002,0.0,15.0,96.0,172.0,29.0,0.0
465166,0.7631640000000001,-1.07843,-1.137609,0.137005,-0.465537,0.21999,0.0,15.0,96.0,172.0,29.0,0.0
465167,0.730705,-1.113782,-1.159537,0.21545100000000006,-0.561345,0.236311,0.0,15.0,96.0,172.0,29.0,0.0
465168,0.711174,-1.149852,-1.165883,0.163235,-0.380904,0.124827,0.0,15.0,96.0,172.0,29.0,0.0
465169,0.707974,-1.189659,-1.156292,-0.0017920000000000004,0.282115,-0.005082,0.0,15.0,96.0,172.0,29.0,0.0
465170,0.732525,-1.22807,-1.129555,-0.151671,0.232001,-0.08626,0.0,15.0,96.0,172.0,29.0,0.0
465171,0.807818,-1.255895,-1.057496,-0.283545,0.06800199999999999,-0.13989400000000002,0.0,15.0,96.0,172.0,29.0,0.0
465172,0.87487,-1.27637,-0.99355,-0.666775,-0.456816,0.148281,0.0,15.0,96.0,172.0,29.0,0.0
465173,0.917968,-1.29585,-0.952753,-0.580448,-0.576179,0.260198,0.0,15.0,96.0,172.0,29.0,0.0
465174,0.962891,-1.316408,-0.906466,-0.1508,-0.757109,0.311997,0.0,15.0,96.0,172.0,29.0,0.0
465175,1.005268,-1.332606,-0.8616719999999999,-0.112372,-0.677776,0.065648,0.0,15.0,96.0,172.0,29.0,0.0
465176,1.053097,-1.344567,-0.806446,0.06128400000000001,-0.546693,-0.002866,0.0,15.0,96.0,172.0,29.0,0.0
465177,1.101792,-1.341762,-0.744959,0.284724,1.42623,0.077938,0.0,15.0,96.0,172.0,29.0,0.0
465178,1.128856,-1.32433,-0.7142470000000001,0.205657,1.580924,-0.15628,0.0,15.0,96.0,172.0,29.0,0.0
465179,1.147952,-1.302746,-0.682756,-0.037835,1.467123,-0.4482390000000001,0.0,15.0,96.0,172.0,29.0,0.0
465180,1.191323,-1.292848,-0.6285930000000001,-0.062329,0.288471,0.30955,0.0,15.0,96.0,172.0,29.0,0.0
465181,1.143715,-1.281282,-0.676894,0.046857,-0.36361,0.121054,0.0,15.0,96.0,172.0,29.0,0.0
465182,1.0788879999999998,-1.265363,-0.7577119999999999,0.193806,-0.33762800000000004,-0.07818,0.0,15.0,96.0,172.0,29.0,0.0
465183,1.025625,-1.254499,-0.8275899999999999,0.515896,-0.11593599999999997,-0.066399,0.0,15.0,96.0,172.0,29.0,0.0
465184,0.97543,-1.2509370000000002,-0.8808389999999999,0.445809,-0.105026,0.136246,0.0,15.0,96.0,172.0,29.0,0.0
465185,0.937717,-1.255123,-0.909212,0.348304,-0.147136,0.141508,0.0,15.0,96.0,172.0,29.0,0.0
465186,0.920265,-1.268563,-0.916482,0.108805,-0.039208,-0.017544999999999998,0.0,15.0,96.0,172.0,29.0,0.0
465187,0.921898,-1.284845,-0.912041,-0.110075,-0.08312699999999999,-0.130392,0.0,15.0,96.0,172.0,29.0,0.0
465188,0.933062,-1.297815,-0.906354,-0.187397,0.072612,0.000902,0.0,15.0,96.0,172.0,29.0,0.0
465189,0.928309,-1.306189,-0.917359,-0.016334,-0.046372,0.070425,0.0,15.0,96.0,172.0,29.0,0.0
465190,0.905741,-1.306949,-0.946497,0.163918,-0.066437,0.0014,0.0,15.0,96.0,172.0,29.0,0.0
465191,0.8840530000000001,-1.2976,-0.980331,0.214715,-0.070961,0.052422,0.0,15.0,96.0,172.0,29.0,0.0
465192,0.8565879999999999,-1.27808,-1.019761,0.111319,-0.224523,0.100775,0.0,15.0,96.0,172.0,29.0,0.0
465193,0.811325,-1.2497280000000002,-1.071295,-0.026825,-0.304902,0.130475,0.0,15.0,96.0,172.0,29.0,0.0
465194,0.748123,-1.2119209999999998,-1.130683,-0.184397,-0.283766,0.09959,0.0,15.0,96.0,172.0,29.0,0.0
465195,0.682161,-1.165102,-1.186273,-0.294744,-0.235769,0.080212,0.0,15.0,96.0,172.0,29.0,0.0
465196,0.632108,-1.113358,-1.227137,-0.373493,-0.184144,0.112476,0.0,15.0,96.0,172.0,29.0,0.0
465197,0.6021850000000001,-1.0620889999999998,-1.252558,-0.458912,-0.162651,0.120641,0.0,15.0,96.0,172.0,29.0,0.0
465198,0.586446,-1.015013,-1.266792,-0.191972,-0.155441,0.171703,0.0,15.0,96.0,172.0,29.0,0.0
465199,0.572847,-0.971966,-1.277776,-0.065963,0.47564,-0.116766,0.0,15.0,96.0,172.0,29.0,0.0
465200,0.5633670000000001,-0.933103,-1.279586,0.294982,0.6652939999999999,-0.099018,0.0,15.0,96.0,172.0,29.0,0.0
465201,0.5827640000000001,-0.91751,-1.257541,0.2561,0.200615,-0.145981,0.0,15.0,96.0,172.0,29.0,0.0
465202,0.611621,-0.921959,-1.224585,0.180458,0.581036,-0.19904,0.0,15.0,96.0,172.0,29.0,0.0
465203,0.641943,-0.931011,-1.193214,-0.038528,0.450675,-0.339194,0.0,15.0,96.0,172.0,29.0,0.0
465204,0.681478,-0.943454,-1.154992,0.051555,-0.249318,-0.238057,0.0,15.0,96.0,172.0,29.0,0.0
465205,0.723539,-0.967059,-1.121134,0.026551,-0.162072,-0.26769,0.0,15.0,96.0,172.0,29.0,0.0
465206,0.758838,-1.001376,-1.094622,0.001909,-0.128743,-0.231706,0.0,15.0,96.0,172.0,29.0,0.0
465207,0.7716850000000001,-1.041726,-1.086648,-0.008858,-0.263484,-0.029175,0.0,15.0,96.0,172.0,29.0,0.0
465208,0.762374,-1.085423,-1.0974270000000002,0.16522,-0.535197,0.176751,0.0,15.0,96.0,172.0,29.0,0.0
465209,0.7606350000000001,-1.13109,-1.096054,0.146952,-0.32489,0.101245,0.0,15.0,96.0,172.0,29.0,0.0
465210,0.762317,-1.178863,-1.088392,0.169471,-0.017938,0.032632,0.0,15.0,96.0,172.0,29.0,0.0
465211,0.773476,-1.21851,-1.073716,-0.080911,0.12771300000000002,-0.060794000000000015,0.0,15.0,96.0,172.0,29.0,0.0
465212,0.822833,-1.245701,-1.017188,-0.195654,-0.067035,-0.072624,0.0,15.0,96.0,172.0,29.0,0.0
465213,0.878558,-1.267693,-0.953516,-0.469776,-0.393364,0.136503,0.0,15.0,96.0,172.0,29.0,0.0
465214,0.927584,-1.287151,-0.901139,-0.364519,-0.521596,0.23745300000000005,0.0,15.0,96.0,172.0,29.0,0.0
465215,0.973044,-1.304333,-0.8550690000000001,-0.197662,-0.428148,0.207878,0.0,15.0,96.0,172.0,29.0,0.0
465216,1.007677,-1.314005,-0.816121,-0.085097,-0.306962,0.218291,0.0,15.0,96.0,172.0,29.0,0.0
465217,1.024386,-1.318856,-0.7929,0.297142,0.64569,0.440348,0.0,15.0,96.0,172.0,29.0,0.0
465218,1.0489700000000002,-1.31715,-0.764688,0.290912,0.666411,0.338042,0.0,15.0,96.0,172.0,29.0,0.0
465219,1.057919,-1.304145,-0.743159,0.095043,0.395388,0.118609,0.0,15.0,96.0,172.0,29.0,0.0
465220,1.072493,-1.291181,-0.712687,-0.28819,1.491841,0.228989,0.0,15.0,96.0,172.0,29.0,0.0
465221,1.106576,-1.27888,-0.6789069999999999,-0.248883,0.227914,0.20735100000000006,0.0,15.0,96.0,172.0,29.0,0.0
465222,1.077766,-1.259162,-0.712992,-0.131201,-0.39382,0.211566,0.0,15.0,96.0,172.0,29.0,0.0
465223,1.0275530000000002,-1.240272,-0.775533,0.338646,-0.059642,-0.29385500000000003,0.0,15.0,96.0,172.0,29.0,0.0
465224,0.977357,-1.23349,-0.8389129999999999,0.427185,0.128128,-0.108148,0.0,15.0,96.0,172.0,29.0,0.0
465225,0.936799,-1.236061,-0.884659,0.453761,0.14035699999999998,0.06998,0.0,15.0,96.0,172.0,29.0,0.0
465226,0.911684,-1.248458,-0.909509,0.233953,-0.073284,0.113034,0.0,15.0,96.0,172.0,29.0,0.0
465227,0.900227,-1.265935,-0.920479,0.303645,0.017639,-0.018784,0.0,15.0,96.0,172.0,29.0,0.0
465228,0.895042,-1.279816,-0.932512,0.120512,-0.118226,0.028438,0.0,15.0,96.0,172.0,29.0,0.0
465229,0.895034,-1.28726,-0.940287,0.041214,-0.15118800000000002,0.069186,0.0,15.0,96.0,172.0,29.0,0.0
465230,0.8877520000000001,-1.284635,-0.950605,0.006162,-0.217544,0.078388,0.0,15.0,96.0,172.0,29.0,0.0
465231,0.872818,-1.2685879999999998,-0.969133,-0.012899,-0.135147,0.025758,0.0,15.0,96.0,172.0,29.0,0.0
465232,0.8474649999999999,-1.236065,-1.002092,-0.090518,-0.13325,0.07728099999999999,0.0,15.0,96.0,172.0,29.0,0.0
465233,0.801365,-1.188459,-1.054483,-0.193006,-0.180008,0.063854,0.0,15.0,96.0,172.0,29.0,0.0
465234,0.7404470000000001,-1.130839,-1.117386,-0.421135,-0.12626700000000002,0.042759,0.0,15.0,96.0,172.0,29.0,0.0
465235,0.6889069999999999,-1.073264,-1.169149,-0.521084,0.018148,0.169101,0.0,15.0,96.0,172.0,29.0,0.0
465236,0.657339,-1.021372,-1.200142,-0.494587,0.077839,0.16237100000000002,0.0,15.0,96.0,172.0,29.0,0.0
465237,0.64158,-0.977681,-1.218604,-0.072452,-0.147563,0.005339,0.0,15.0,96.0,172.0,29.0,0.0
465238,0.6386850000000001,-0.945014,-1.231009,0.349433,0.7014729999999999,-0.2172,0.0,15.0,96.0,172.0,29.0,0.0
465239,0.655809,-0.92557,-1.219117,0.286707,0.734987,-0.25758400000000004,0.0,15.0,96.0,172.0,29.0,0.0
465240,0.6819149999999999,-0.923751,-1.1898,0.282204,0.429762,-0.269014,0.0,15.0,96.0,172.0,29.0,0.0
465241,0.70414,-0.935509,-1.167502,0.225064,0.364517,-0.149043,0.0,15.0,96.0,172.0,29.0,0.0
465242,0.728101,-0.954526,-1.145668,0.160052,0.100006,-0.146735,0.0,15.0,96.0,172.0,29.0,0.0
465243,0.759108,-0.977176,-1.11996,0.216507,-0.14836400000000002,-0.200565,0.0,15.0,96.0,172.0,29.0,0.0
465244,0.783953,-1.005268,-1.100098,0.131436,-0.205542,-0.19516,0.0,15.0,96.0,172.0,29.0,0.0
465245,0.7893720000000001,-1.0363209999999998,-1.098147,0.17627,-0.291475,-0.096888,0.0,15.0,96.0,172.0,29.0,0.0
465246,0.780917,-1.070224,-1.1077549999999998,0.23602,-0.418446,0.041206,0.0,15.0,96.0,172.0,29.0,0.0
465247,0.7801680000000001,-1.107422,-1.103712,0.035445,-0.459353,0.131328,0.0,15.0,96.0,172.0,29.0,0.0
465248,0.800873,-1.149033,-1.074183,-0.13988499999999998,-0.275879,0.038031,0.0,15.0,96.0,172.0,29.0,0.0
465249,0.81517,-1.188439,-1.05209,-0.158399,0.135002,-0.089989,0.0,15.0,96.0,172.0,29.0,0.0
465250,0.843975,-1.210073,-1.016146,-0.38907,-0.025196,-0.006636,0.0,15.0,96.0,172.0,29.0,0.0
465251,0.8837430000000001,-1.224236,-0.965916,-0.5152939999999999,-0.16251600000000002,0.064704,0.0,15.0,96.0,172.0,29.0,0.0
465252,0.92891,-1.243006,-0.90998,-0.503836,-0.607599,0.293533,0.0,15.0,96.0,172.0,29.0,0.0
465253,0.980616,-1.264519,-0.850881,-0.337228,-0.665331,0.279787,0.0,15.0,96.0,172.0,29.0,0.0
465254,1.023509,-1.283049,-0.796953,-0.209767,-0.5101859999999999,0.200206,0.0,15.0,96.0,172.0,29.0,0.0
465255,1.034156,-1.293492,-0.771999,0.091942,1.074321,0.356141,0.0,15.0,96.0,172.0,29.0,0.0
465256,1.051958,-1.292666,-0.749316,0.283302,1.208428,0.4794,0.0,15.0,96.0,172.0,29.0,0.0
465257,1.047739,-1.277407,-0.741418,-0.032226,0.325034,0.413545,0.0,15.0,96.0,172.0,29.0,0.0
465258,1.011133,-1.267149,-0.759506,-0.129197,-0.487501,-0.192524,0.0,15.0,96.0,172.0,29.0,0.0
465259,0.993252,-1.261947,-0.767245,-0.015179,0.6481,-0.605919,0.0,15.0,96.0,172.0,29.0,0.0
465260,1.041935,-1.264293,-0.736737,0.206654,1.5372370000000002,-0.0671,0.0,15.0,96.0,172.0,29.0,0.0
465261,1.080014,-1.264784,-0.720694,0.181822,0.074961,0.138533,0.0,15.0,96.0,172.0,29.0,0.0
465262,1.059284,-1.262561,-0.748291,0.12981199999999998,-0.1144,0.08634700000000001,0.0,15.0,96.0,172.0,29.0,0.0
465263,0.980937,-1.265002,-0.830535,0.195189,-0.152079,0.053224,0.0,15.0,96.0,172.0,29.0,0.0
465264,0.888544,-1.271517,-0.92029,0.465663,-0.012541,0.017882,0.0,15.0,96.0,172.0,29.0,0.0
465265,0.848673,-1.280737,-0.96404,0.398622,0.003611,0.151562,0.0,15.0,96.0,172.0,29.0,0.0
465266,0.8611030000000001,-1.287625,-0.96275,0.2308,-0.063278,0.019865,0.0,15.0,96.0,172.0,29.0,0.0
465267,0.878445,-1.281929,-0.959444,0.054889,-0.177271,-0.001986,0.0,15.0,96.0,172.0,29.0,0.0
465268,0.8702469999999999,-1.263038,-0.979412,-0.057378,-0.305585,-0.046507,0.0,15.0,96.0,172.0,29.0,0.0
465269,0.844462,-1.232409,-1.013123,-0.120016,-0.305703,0.054859000000000005,0.0,15.0,96.0,172.0,29.0,0.0
465270,0.803044,-1.189366,-1.058302,-0.123941,-0.266863,0.049223,0.0,15.0,96.0,172.0,29.0,0.0
465271,0.744718,-1.135902,-1.115299,-0.286997,-0.344293,0.047846,0.0,15.0,96.0,172.0,29.0,0.0
465272,0.6899109999999999,-1.081751,-1.164902,-0.412753,-0.323837,0.126165,0.0,15.0,96.0,172.0,29.0,0.0
465273,0.656505,-1.035749,-1.1930040000000002,-0.4562850000000001,-0.271972,0.175617,0.0,15.0,96.0,172.0,29.0,0.0
465274,0.642991,-0.997157,-1.203075,-0.101255,0.063282,0.149175,0.0,15.0,96.0,172.0,29.0,0.0
465275,0.649466,-0.965362,-1.201075,0.06166,0.105861,0.274338,0.0,15.0,96.0,172.0,29.0,0.0
465276,0.652636,-0.943434,-1.203499,0.16589,0.272361,0.287215,0.0,15.0,96.0,172.0,29.0,0.0
465277,0.6494,-0.928298,-1.208979,0.365354,0.37048,-0.369363,0.0,15.0,96.0,172.0,29.0,0.0
465278,0.646034,-0.933996,-1.196129,0.557901,0.038252,-0.298157,0.0,15.0,96.0,172.0,29.0,0.0
465279,0.664132,-0.968691,-1.167969,0.314444,0.33859,-0.314414,0.0,15.0,96.0,172.0,29.0,0.0
465280,0.708649,-1.006569,-1.130703,0.155301,0.146652,-0.493632,0.0,15.0,96.0,172.0,29.0,0.0
465281,0.759025,-1.041325,-1.098693,0.108915,0.035607,-0.529044,0.0,15.0,96.0,172.0,29.0,0.0
465282,0.781632,-1.074249,-1.088716,0.27025,-0.086279,-0.14443699999999998,0.0,15.0,96.0,172.0,29.0,0.0
465283,0.780219,-1.110068,-1.092407,0.2213,-0.4360729999999999,0.107991,0.0,15.0,96.0,172.0,29.0,0.0
465284,0.781597,-1.149712,-1.082703,0.010309,-0.365756,0.267751,0.0,15.0,96.0,172.0,29.0,0.0
465285,0.773871,-1.191588,-1.07195,-0.01084,-0.162768,0.131133,0.0,15.0,96.0,172.0,29.0,0.0
465286,0.761079,-1.223564,-1.063132,-0.10045,-0.30479,0.061096,0.0,15.0,96.0,172.0,29.0,0.0
465287,0.773071,-1.245976,-1.029664,-0.15976300000000002,-0.362122,0.077771,0.0,15.0,96.0,172.0,29.0,0.0
465288,0.797507,-1.265368,-0.98309,-0.391356,-0.356444,0.29199899999999995,0.0,15.0,96.0,172.0,29.0,0.0
465289,0.810448,-1.286239,-0.948309,-0.422799,-0.603005,0.358153,0.0,15.0,96.0,172.0,29.0,0.0
465290,0.819768,-1.311433,-0.920805,-0.324227,-0.720826,0.363156,0.0,15.0,96.0,172.0,29.0,0.0
465291,0.8418399999999999,-1.337365,-0.887942,-0.144032,-0.82499,0.133941,0.0,15.0,96.0,172.0,29.0,0.0
465292,0.8671260000000001,-1.358794,-0.848826,0.10891,-0.397045,-0.534492,0.0,15.0,96.0,172.0,29.0,0.0
465293,0.8942,-1.368448,-0.796664,0.506892,0.61223,-0.5629890000000001,0.0,15.0,96.0,172.0,29.0,0.0
465294,1.007539,-1.36351,-0.676896,-0.003752,1.3964370000000002,0.255049,0.0,15.0,96.0,172.0,29.0,0.0
465295,1.074755,-1.349341,-0.60958,-0.007519,0.449485,-0.021216,0.0,15.0,96.0,172.0,29.0,0.0
465296,1.065198,-1.339256,-0.603947,0.378414,0.542311,0.146549,0.0,15.0,96.0,172.0,29.0,0.0
465297,1.008117,-1.334544,-0.655492,0.187798,-0.042183,0.345706,0.0,15.0,96.0,172.0,29.0,0.0
465298,0.943195,-1.330742,-0.72558,0.16595,-0.315945,0.119458,0.0,15.0,96.0,172.0,29.0,0.0
465299,0.85603,-1.328384,-0.81009,0.21747800000000006,-0.328489,0.054495,0.0,15.0,96.0,172.0,29.0,0.0
465300,0.77304,-1.332472,-0.8832559999999999,0.289229,0.096701,-0.02929,0.0,15.0,96.0,172.0,29.0,0.0
465301,0.721063,-1.347596,-0.922114,0.261305,-0.011159,0.059005,0.0,15.0,96.0,172.0,29.0,0.0
465302,0.6919850000000001,-1.3710129999999998,-0.942605,0.31534,-0.018455000000000003,-0.102655,0.0,15.0,96.0,172.0,29.0,0.0
465303,0.672482,-1.39276,-0.962221,0.207276,-0.117006,-0.094847,0.0,15.0,96.0,172.0,29.0,0.0
465304,0.608273,-1.405622,-1.0296530000000002,0.137575,-0.213303,-0.01705,0.0,15.0,96.0,172.0,29.0,0.0
465305,0.507285,-1.414479,-1.1287200000000002,0.188557,-0.17812999999999998,0.045294,0.0,15.0,96.0,172.0,29.0,0.0
465306,0.403075,-1.4210200000000002,-1.227859,0.311583,-0.128255,0.146128,0.0,15.0,96.0,172.0,29.0,0.0
465307,0.321927,-1.422973,-1.304731,0.321467,-0.16505799999999998,0.036357,0.0,15.0,96.0,172.0,29.0,0.0
465308,0.25653200000000004,-1.420291,-1.366301,0.287221,-0.20299,0.106686,0.0,15.0,96.0,172.0,29.0,0.0
465309,0.195033,-1.406899,-1.419367,0.260834,-0.212719,0.125894,0.0,15.0,96.0,172.0,29.0,0.0
465310,0.162472,-1.382101,-1.437398,0.182766,-0.091823,-0.013556,0.0,15.0,96.0,172.0,29.0,0.0
465311,0.181748,-1.346401,-1.400313,0.13558,0.019471,0.001562,0.0,15.0,96.0,172.0,29.0,0.0
465312,0.23870500000000006,-1.297217,-1.3225049999999998,0.051523,0.14371099999999998,0.060904,0.0,15.0,96.0,172.0,29.0,0.0
465313,0.301919,-1.234517,-1.234217,-0.034487000000000004,0.731777,0.0559,0.0,15.0,96.0,172.0,29.0,0.0
465314,0.356093,-1.170426,-1.150513,-0.045159,0.982846,0.079426,0.0,15.0,96.0,172.0,29.0,0.0
465315,0.395039,-1.131651,-1.084208,-0.100448,1.177374,0.11069,0.0,15.0,96.0,172.0,29.0,0.0
465316,0.4259439999999999,-1.118791,-1.031805,0.040211,0.512353,0.055864,0.0,15.0,96.0,172.0,29.0,0.0
465317,0.4556060000000001,-1.111209,-0.981145,0.329622,0.277196,0.031472,0.0,15.0,96.0,172.0,29.0,0.0
465318,0.499144,-1.10313,-0.918192,0.247182,0.258897,0.043013,0.0,15.0,96.0,172.0,29.0,0.0
465319,0.552581,-1.091165,-0.852087,0.17204,0.124355,-0.085609,0.0,15.0,96.0,172.0,29.0,0.0
465320,0.600142,-1.07354,-0.7870779999999999,0.18434,0.028393,-0.083457,0.0,15.0,96.0,172.0,29.0,0.0
465321,0.632476,-1.055477,-0.720143,0.203523,-0.002322,-0.026057,0.0,15.0,96.0,172.0,29.0,0.0
465322,0.640009,-1.04505,-0.659104,-0.032816000000000005,-0.379644,0.294865,0.0,15.0,96.0,172.0,29.0,0.0
465323,0.620782,-1.049075,-0.6057020000000001,-0.063277,-0.462407,0.355106,0.0,15.0,96.0,172.0,29.0,0.0
465324,0.589333,-1.06603,-0.554543,0.004285,-0.549497,0.373104,0.0,15.0,96.0,172.0,29.0,0.0
465325,0.5483520000000001,-1.089743,-0.517443,0.015163,-0.5374180000000001,0.330047,0.0,15.0,96.0,172.0,29.0,0.0
465326,0.499779,-1.113922,-0.49973,-0.017148,-0.5114029999999999,0.30364,0.0,15.0,96.0,172.0,29.0,0.0
465327,0.448114,-1.1350209999999998,-0.49434,-0.061058,-0.247165,0.218031,0.0,15.0,96.0,172.0,29.0,0.0
465328,0.397539,-1.150752,-0.49307,0.043463,0.019974,0.138825,0.0,15.0,96.0,172.0,29.0,0.0
465329,0.365947,-1.160278,-0.483284,0.137226,0.217409,0.077028,0.0,15.0,96.0,172.0,29.0,0.0
465330,0.365083,-1.156864,-0.457682,0.16810899999999998,0.602703,-0.057286,0.0,15.0,96.0,172.0,29.0,0.0
465331,0.387993,-1.143514,-0.420371,0.037361,0.268066,-0.100313,0.0,15.0,96.0,172.0,29.0,0.0
465332,0.420863,-1.128132,-0.382307,0.058111,0.017712000000000002,-0.174238,0.0,15.0,96.0,172.0,29.0,0.0
465333,0.454494,-1.118571,-0.344271,0.138691,-0.14143499999999998,-0.379553,0.0,15.0,96.0,172.0,29.0,0.0
465334,0.484497,-1.118527,-0.302189,0.31669400000000003,0.67708,-0.058637,0.0,15.0,96.0,172.0,29.0,0.0
465335,0.50492,-1.122924,-0.25111,0.6980529999999999,1.097684,0.260016,0.0,15.0,96.0,172.0,29.0,0.0
465336,0.53581,-1.129436,-0.183275,0.063854,0.809635,0.33649,0.0,15.0,96.0,172.0,29.0,0.0
465337,0.5515140000000001,-1.129724,-0.14131400000000002,-0.194893,0.219881,0.385548,0.0,15.0,96.0,172.0,29.0,0.0
465338,0.546221,-1.124931,-0.122853,-0.292535,-0.022187,0.321365,0.0,15.0,96.0,172.0,29.0,0.0
465339,0.523977,-1.12329,-0.116154,-0.34757,-0.154428,0.362587,0.0,15.0,96.0,172.0,29.0,0.0
465340,0.480256,-1.130119,-0.12769,-0.204162,-0.267714,0.499997,0.0,15.0,96.0,172.0,29.0,0.0
465341,0.42407,-1.148835,-0.145784,0.049227,-0.299464,0.5826319999999999,0.0,15.0,96.0,172.0,29.0,0.0
465342,0.376435,-1.182495,-0.151416,0.252896,-0.029069,0.5835279999999999,0.0,15.0,96.0,172.0,29.0,0.0
465343,0.344577,-1.224013,-0.150251,0.26263600000000004,0.296681,0.32110700000000003,0.0,15.0,96.0,172.0,29.0,0.0
465344,0.326572,-1.2620790000000002,-0.150254,0.254432,0.34080900000000003,0.245104,0.0,15.0,96.0,172.0,29.0,0.0
465345,0.342106,-1.298914,-0.121973,0.090641,0.199071,0.173334,0.0,15.0,96.0,172.0,29.0,0.0
465346,0.365937,-1.329433,-0.078706,-0.08521799999999999,0.098231,0.117228,0.0,15.0,96.0,172.0,29.0,0.0
465347,0.35336100000000004,-1.35106,-0.06293,-0.07974099999999999,-0.051272000000000005,0.153919,0.0,15.0,96.0,172.0,29.0,0.0
465348,0.301677,-1.3688,-0.080049,0.040066,-0.144341,0.152514,0.0,15.0,96.0,172.0,29.0,0.0
465349,0.231008,-1.384837,-0.115984,0.09929,-0.172823,0.151911,0.0,15.0,96.0,172.0,29.0,0.0
465350,0.156888,-1.399887,-0.161721,0.13453199999999998,-0.210299,0.155926,0.0,15.0,96.0,172.0,29.0,0.0
465351,0.092892,-1.413682,-0.20621,0.116272,-0.215115,0.216803,0.0,15.0,96.0,172.0,29.0,0.0
465352,0.040147,-1.424448,-0.243936,0.147652,-0.222937,0.151342,0.0,15.0,96.0,172.0,29.0,0.0
465353,-0.0034100000000000003,-1.433626,-0.275616,0.15397,-0.224234,0.142371,0.0,15.0,96.0,172.0,29.0,0.0
465354,-0.057609,-1.443577,-0.321511,0.197886,-0.092367,0.02362,0.0,15.0,96.0,172.0,29.0,0.0
465355,-0.138708,-1.45487,-0.395243,0.258144,0.101499,-0.030029000000000007,0.0,15.0,96.0,172.0,29.0,0.0
465356,-0.267746,-1.465294,-0.514547,0.307298,0.103277,-0.06425700000000001,0.0,15.0,96.0,172.0,29.0,0.0
465357,-0.4317220000000001,-1.47056,-0.664922,0.30516,0.100601,-0.113238,0.0,15.0,96.0,172.0,29.0,0.0
465358,-0.555031,-1.46965,-0.7726930000000001,0.216289,0.100722,-0.10088,0.0,15.0,96.0,172.0,29.0,0.0
465359,-0.6085520000000001,-1.46289,-0.811144,0.221718,0.129901,-0.061357,0.0,15.0,96.0,172.0,29.0,0.0
465360,-0.607246,-1.450283,-0.794405,0.27020900000000003,0.137807,-4e-05,0.0,15.0,96.0,172.0,29.0,0.0
465361,-0.547549,-1.430812,-0.7143520000000001,0.5426850000000001,0.201554,0.270044,0.0,15.0,96.0,172.0,29.0,0.0
465362,-0.4319850000000001,-1.405809,-0.573858,0.468854,0.11238,0.353232,0.0,15.0,96.0,172.0,29.0,0.0
465363,-0.281314,-1.377188,-0.393675,0.29425300000000004,-0.15844,0.3783,0.0,15.0,96.0,172.0,29.0,0.0
465364,-0.124551,-1.342919,-0.20519,0.22020100000000006,-0.114163,0.14798599999999998,0.0,15.0,96.0,172.0,29.0,0.0
465365,0.013454,-1.300619,-0.0362,0.140849,0.480566,0.082659,0.0,15.0,96.0,172.0,29.0,0.0
465366,0.118684,-1.257759,0.091033,-0.13128,0.679625,0.184267,0.0,15.0,96.0,172.0,29.0,0.0
465367,0.192965,-1.222213,0.179149,-0.098383,0.5394359999999999,0.157849,0.0,15.0,96.0,172.0,29.0,0.0
465368,0.253863,-1.190049,0.25076,-0.011738,0.36861,0.230789,0.0,15.0,96.0,172.0,29.0,0.0
465369,0.288844,-1.1584709999999998,0.304319,0.286046,0.095955,0.211174,0.0,15.0,96.0,172.0,29.0,0.0
465370,0.303784,-1.133649,0.350377,0.406962,-0.022098,0.202274,0.0,15.0,96.0,172.0,29.0,0.0
465371,0.31705500000000003,-1.12131,0.40458,0.341939,-0.03742,0.122847,0.0,15.0,96.0,172.0,29.0,0.0
465372,0.335428,-1.116286,0.468575,0.224506,-0.073128,0.054441,0.0,15.0,96.0,172.0,29.0,0.0
465373,0.355057,-1.1111950000000002,0.539307,0.093029,-0.094197,0.148811,0.0,15.0,96.0,172.0,29.0,0.0
465374,0.363292,-1.1058370000000002,0.610765,0.059264,-0.206019,0.27833800000000003,0.0,15.0,96.0,172.0,29.0,0.0
465375,0.360845,-1.107637,0.686901,0.060172,-0.277458,0.357375,0.0,15.0,96.0,172.0,29.0,0.0
465376,0.360178,-1.1199940000000002,0.773718,0.097196,-0.268124,0.331981,0.0,15.0,96.0,172.0,29.0,0.0
465377,0.363708,-1.137256,0.864283,0.119741,-0.28280500000000003,0.310248,0.0,15.0,96.0,172.0,29.0,0.0
465378,0.366277,-1.150516,0.943932,0.133446,-0.223506,0.243677,0.0,15.0,96.0,172.0,29.0,0.0
465379,0.367892,-1.156824,1.007411,0.094821,-0.17064200000000002,0.339835,0.0,15.0,96.0,172.0,29.0,0.0
465380,0.371769,-1.160792,1.061759,0.046424,-0.008641,0.4899060000000001,0.0,15.0,96.0,172.0,29.0,0.0
465381,0.38754,-1.170475,1.116722,0.06778300000000001,0.14821700000000002,0.5302560000000001,0.0,15.0,96.0,172.0,29.0,0.0
465382,0.426724,-1.187151,1.182538,-0.056086,0.149201,0.334933,0.0,15.0,96.0,172.0,29.0,0.0
465383,0.4832550000000001,-1.20329,1.258783,-0.034437,0.115968,0.213279,0.0,15.0,96.0,172.0,29.0,0.0
465384,0.5427489999999999,-1.213833,1.334765,0.086052,0.055668,-0.044804,0.0,15.0,96.0,172.0,29.0,0.0
465385,0.586498,-1.2197360000000002,1.396421,0.254869,-0.153822,-0.114983,0.0,15.0,96.0,172.0,29.0,0.0
465386,0.629029,-1.22382,1.453861,0.07959400000000001,-0.213797,-0.37572,0.0,15.0,96.0,172.0,29.0,0.0
465387,0.694001,-1.226617,1.54005,0.233693,0.661141,-0.171678,0.0,15.0,96.0,172.0,29.0,0.0
465388,0.736392,-1.225407,1.613979,0.968346,2.118016,0.228753,0.0,15.0,96.0,172.0,29.0,0.0
465389,0.7766609999999999,-1.2157950000000002,1.699887,-0.584029,0.6224430000000001,0.793799,0.0,15.0,96.0,172.0,29.0,0.0
465390,0.777118,-1.209334,1.7529169999999998,-0.495749,-0.385042,0.5234489999999999,0.0,15.0,96.0,172.0,29.0,0.0
465391,0.754884,-1.216089,1.7787849999999998,-0.439803,-0.562397,0.414047,0.0,15.0,96.0,172.0,29.0,0.0
465392,0.709236,-1.235601,1.777493,-0.429999,-0.48376,0.247393,0.0,15.0,96.0,172.0,29.0,0.0
465393,0.636896,-1.257718,1.747168,-0.393406,-0.26300500000000004,0.12679300000000002,0.0,15.0,96.0,172.0,29.0,0.0
465394,0.5839529999999999,-1.282738,1.731602,-0.099277,0.225147,0.079746,0.0,15.0,96.0,172.0,29.0,0.0
465395,0.584634,-1.311442,1.756775,0.10661,0.398724,0.102721,0.0,15.0,96.0,172.0,29.0,0.0
465396,0.624972,-1.335621,1.807437,0.104524,0.013183000000000002,0.071417,0.0,15.0,96.0,172.0,29.0,0.0
465397,0.6625840000000001,-1.349674,1.84632,0.134242,-0.059026,-0.090617,0.0,15.0,96.0,172.0,29.0,0.0
465398,0.694869,-1.358309,1.875919,0.093497,-0.133973,-0.122978,0.0,15.0,96.0,172.0,29.0,0.0
465399,0.71795,-1.363387,1.896848,0.03308,-0.238394,-0.114147,0.0,15.0,96.0,172.0,29.0,0.0
465400,0.7173970000000001,-1.365125,1.898521,0.156798,-0.257443,0.021715,0.0,15.0,96.0,172.0,29.0,0.0
465401,0.696175,-1.361397,1.881901,0.219963,-0.196921,0.07016,0.0,15.0,96.0,172.0,29.0,0.0
465402,0.680388,-1.351361,1.863846,0.272022,-0.174812,0.159977,0.0,15.0,96.0,172.0,29.0,0.0
465403,0.702908,-1.339223,1.878669,0.185144,-0.344095,0.267975,0.0,15.0,96.0,172.0,29.0,0.0
465404,0.744657,-1.328742,1.914865,0.096521,-0.359993,0.174228,0.0,15.0,96.0,172.0,29.0,0.0
465405,0.766497,-1.320702,1.938044,0.073156,-0.302568,0.059252,0.0,15.0,96.0,172.0,29.0,0.0
465406,0.773517,-1.313899,1.950986,-0.04753,-0.075093,0.082851,0.0,15.0,96.0,172.0,29.0,0.0
465407,0.764791,-1.304467,1.948827,-0.194839,-0.202643,0.108591,0.0,15.0,96.0,172.0,29.0,0.0
465408,0.7343350000000001,-1.284208,1.92208,-0.216056,-0.265564,0.152034,0.0,15.0,96.0,172.0,29.0,0.0
465409,0.690307,-1.249397,1.881376,-0.169454,-0.476016,0.214937,0.0,15.0,96.0,172.0,29.0,0.0
465410,0.656529,-1.2015360000000002,1.849605,-0.14168,-0.415154,0.160216,0.0,15.0,96.0,172.0,29.0,0.0
465411,0.644844,-1.145702,1.836842,-0.143421,-0.324574,0.135037,0.0,15.0,96.0,172.0,29.0,0.0
465412,0.659904,-1.090276,1.844745,-0.166486,-0.120611,0.038361,0.0,15.0,96.0,172.0,29.0,0.0
465413,0.68921,-1.041033,1.862751,-0.19641,0.105091,0.046752,0.0,15.0,96.0,172.0,29.0,0.0
465414,0.715647,-1.002789,1.874911,0.728348,0.5011260000000001,-0.361942,0.0,15.0,96.0,172.0,29.0,0.0
465415,0.725066,-0.981599,1.875777,0.641165,0.603107,-0.199738,0.0,15.0,96.0,172.0,29.0,0.0
465416,0.7307239999999999,-0.983445,1.885173,0.456981,0.542085,-0.013978,0.0,15.0,96.0,172.0,29.0,0.0
465417,0.742074,-0.994913,1.902385,0.26083,0.354984,-0.15379,0.0,15.0,96.0,172.0,29.0,0.0
465418,0.741187,-1.012613,1.907617,0.323085,-0.133497,-0.252017,0.0,15.0,96.0,172.0,29.0,0.0
465419,0.7494460000000001,-1.043277,1.916117,0.277652,-0.281142,-0.32175,0.0,15.0,96.0,172.0,29.0,0.0
465420,0.775572,-1.083854,1.939637,0.114476,-0.222787,-0.252398,0.0,15.0,96.0,172.0,29.0,0.0
465421,0.798461,-1.128048,1.965173,0.096041,-0.124296,-0.17191800000000002,0.0,15.0,96.0,172.0,29.0,0.0
465422,0.8210459999999999,-1.170095,1.997126,0.018322,-0.111019,-0.080203,0.0,15.0,96.0,172.0,29.0,0.0
465423,0.8508389999999999,-1.205264,2.0364720000000003,-0.243388,-0.418278,-0.008723999999999999,0.0,15.0,96.0,172.0,29.0,0.0
465424,0.872244,-1.23559,2.069385,-0.13763,-0.098258,-0.097713,0.0,15.0,96.0,172.0,29.0,0.0
465425,0.898057,-1.252093,2.106345,-0.146681,-0.136731,-0.135616,0.0,15.0,96.0,172.0,29.0,0.0
465426,0.930529,-1.259308,2.149936,-0.386541,-0.402303,0.28222,0.0,15.0,96.0,172.0,29.0,0.0
465427,0.966365,-1.269574,2.19685,-0.45369,-0.728809,0.4426,0.0,15.0,96.0,172.0,29.0,0.0
465428,1.003312,-1.290009,2.246984,-0.372762,-0.837775,0.407243,0.0,15.0,96.0,172.0,29.0,0.0
465429,1.058078,-1.316731,2.319129,-0.096585,-0.324573,0.29987600000000003,0.0,15.0,96.0,172.0,29.0,0.0
465430,1.106847,-1.336664,2.395032,0.25522,0.8951120000000001,0.091585,0.0,15.0,96.0,172.0,29.0,0.0
465431,1.133751,-1.343353,2.444515,0.101511,1.911618,-0.008419,0.0,15.0,96.0,172.0,29.0,0.0
465432,1.263775,-1.345091,2.573297,-0.15776600000000002,2.006565,-0.337202,0.0,15.0,96.0,172.0,29.0,0.0
465433,1.318162,-1.322701,2.62127,0.23041,0.409631,-0.08151,0.0,15.0,96.0,172.0,29.0,0.0
465434,1.2543030000000002,-1.290581,2.557969,0.25356300000000004,-0.041791,0.037884,0.0,15.0,96.0,172.0,29.0,0.0
465435,1.165036,-1.2642799999999998,2.467909,0.14439000000000002,-0.738959,-0.13761800000000002,0.0,15.0,96.0,172.0,29.0,0.0
465436,1.090056,-1.250611,2.39,0.007917,-0.669575,-0.000637,0.0,15.0,96.0,172.0,29.0,0.0
465437,1.0458889999999998,-1.252383,2.350698,0.03719,-0.373546,0.228899,0.0,15.0,96.0,172.0,29.0,0.0
465438,1.0431700000000002,-1.272693,2.356801,0.072725,-0.082864,0.015011000000000004,0.0,15.0,96.0,172.0,29.0,0.0
465439,1.033332,-1.303802,2.338773,0.153185,0.659776,0.100304,0.0,15.0,96.0,172.0,29.0,0.0
465440,1.024979,-1.329524,2.309842,-0.053142,0.02158,0.25101,0.0,15.0,96.0,172.0,29.0,0.0
465441,1.007993,-1.3426,2.277626,-0.054531,-0.404664,-0.007909999999999999,0.0,15.0,96.0,172.0,29.0,0.0
465442,0.948214,-1.340363,2.20253,0.208362,-0.375408,-0.083393,0.0,15.0,96.0,172.0,29.0,0.0
465443,0.888849,-1.321525,2.124876,0.221943,-0.26435,0.022656,0.0,15.0,96.0,172.0,29.0,0.0
465444,0.841259,-1.287495,2.059576,0.113452,-0.272989,0.091239,0.0,15.0,96.0,172.0,29.0,0.0
465445,0.7947930000000001,-1.241363,2.002701,-0.111759,-0.372907,0.076714,0.0,15.0,96.0,172.0,29.0,0.0
465446,0.7608739999999999,-1.187928,1.962792,-0.308197,-0.352783,-0.021774,0.0,15.0,96.0,172.0,29.0,0.0
465447,0.743703,-1.1306770000000002,1.938806,-0.411224,-0.253578,-0.015017,0.0,15.0,96.0,172.0,29.0,0.0
465448,0.747877,-1.073115,1.932853,-0.364272,-0.012465,0.070948,0.0,15.0,96.0,172.0,29.0,0.0
465449,0.768602,-1.0233709999999998,1.937366,-0.20087,0.20085,0.103659,0.0,15.0,96.0,172.0,29.0,0.0
465450,0.7779520000000001,-0.987875,1.935176,0.456708,0.116634,-0.061126,0.0,15.0,96.0,172.0,29.0,0.0
465451,0.776201,-0.965668,1.934858,0.456207,0.086018,-0.455171,0.0,15.0,96.0,172.0,29.0,0.0
465452,0.774058,-0.960567,1.946569,0.41318,-0.182264,-0.405257,0.0,15.0,96.0,172.0,29.0,0.0
465453,0.793315,-0.979996,1.967638,0.076472,0.354197,-0.466558,0.0,15.0,96.0,172.0,29.0,0.0
465454,0.830665,-1.016787,2.002017,0.24020500000000006,0.201656,-0.419914,0.0,15.0,96.0,172.0,29.0,0.0
465455,0.882086,-1.05617,2.036306,0.242484,0.060676,-0.500798,0.0,15.0,96.0,172.0,29.0,0.0
465456,0.914984,-1.095029,2.050822,0.294105,-0.048136,-0.475417,0.0,15.0,96.0,172.0,29.0,0.0
465457,0.930588,-1.131638,2.059078,0.011307,-0.58965,0.17587,0.0,15.0,96.0,172.0,29.0,0.0
465458,0.948495,-1.168785,2.081897,-0.143766,-0.558276,0.180674,0.0,15.0,96.0,172.0,29.0,0.0
465459,0.956185,-1.2090379999999998,2.101876,-0.219135,-0.082981,-0.210808,0.0,15.0,96.0,172.0,29.0,0.0
465460,0.978496,-1.237493,2.138444,-0.189288,-0.268941,-0.013923,0.0,15.0,96.0,172.0,29.0,0.0
465461,1.027352,-1.253413,2.199687,-0.464757,-0.330518,0.225072,0.0,15.0,96.0,172.0,29.0,0.0
465462,1.074474,-1.266169,2.2589,-0.472308,-0.532725,0.286637,0.0,15.0,96.0,172.0,29.0,0.0
465463,1.102588,-1.28338,2.297048,-0.331354,-0.704493,0.364647,0.0,15.0,96.0,172.0,29.0,0.0
465464,1.1227120000000002,-1.302905,2.322917,-0.297742,-0.641242,0.271226,0.0,15.0,96.0,172.0,29.0,0.0
465465,1.143476,-1.321095,2.356276,0.497015,0.532402,-0.067165,0.0,15.0,96.0,172.0,29.0,0.0
465466,1.225374,-1.337449,2.447342,0.349793,1.919177,0.447246,0.0,15.0,96.0,172.0,29.0,0.0
465467,1.297494,-1.332055,2.515807,-0.008020000000000001,1.50842,0.093182,0.0,15.0,96.0,172.0,29.0,0.0
465468,1.289507,-1.316135,2.51805,-0.174496,0.27936700000000003,0.036937,0.0,15.0,96.0,172.0,29.0,0.0
465469,1.235885,-1.298849,2.462068,0.027291000000000003,0.369194,0.194026,0.0,15.0,96.0,172.0,29.0,0.0
465470,1.178826,-1.287332,2.384316,0.15095,0.031058,0.15595499999999998,0.0,15.0,96.0,172.0,29.0,0.0
465471,1.154128,-1.286576,2.332082,0.537189,-0.099224,-0.138702,0.0,15.0,96.0,172.0,29.0,0.0
465472,1.129909,-1.294427,2.2888610000000003,0.764151,0.076766,0.010892,0.0,15.0,96.0,172.0,29.0,0.0
465473,1.097595,-1.308266,2.246959,0.637674,0.07122,0.063658,0.0,15.0,96.0,172.0,29.0,0.0
465474,1.042997,-1.320486,2.194041,0.209463,-0.135706,-0.029613,0.0,15.0,96.0,172.0,29.0,0.0
465475,0.982751,-1.322114,2.144959,-0.042221,-0.100936,-0.077385,0.0,15.0,96.0,172.0,29.0,0.0
465476,0.932432,-1.311499,2.097121,-0.253506,-0.203371,-0.110971,0.0,15.0,96.0,172.0,29.0,0.0
465477,0.86141,-1.285657,2.019712,-0.373871,-0.342069,-0.062648,0.0,15.0,96.0,172.0,29.0,0.0
465478,0.779419,-1.244534,1.924679,-0.33432,-0.35993600000000003,0.033929,0.0,15.0,96.0,172.0,29.0,0.0
465479,0.722708,-1.187809,1.846951,-0.070511,-0.420976,0.068448,0.0,15.0,96.0,172.0,29.0,0.0
465480,0.694375,-1.122414,1.7993990000000002,-0.241038,-0.618374,0.005596,0.0,15.0,96.0,172.0,29.0,0.0
465481,0.67867,-1.061449,1.773956,-0.433019,-0.570695,0.016501,0.0,15.0,96.0,172.0,29.0,0.0
465482,0.660991,-1.007044,1.755326,-0.405709,-0.423167,0.098815,0.0,15.0,96.0,172.0,29.0,0.0
465483,0.650157,-0.956159,1.742088,-0.19499,-0.205472,0.240035,0.0,15.0,96.0,172.0,29.0,0.0
465484,0.634858,-0.916248,1.738247,0.342573,0.7719239999999999,-0.037701,0.0,15.0,96.0,172.0,29.0,0.0
465485,0.5996279999999999,-0.889915,1.7252610000000002,0.348394,0.7882279999999999,-0.008218000000000001,0.0,15.0,96.0,172.0,29.0,0.0
465486,0.609589,-0.8944709999999999,1.750293,0.5407770000000001,0.291121,-0.378398,0.0,15.0,96.0,172.0,29.0,0.0
465487,0.656331,-0.940771,1.790674,0.26342600000000005,1.040834,-0.469829,0.0,15.0,96.0,172.0,29.0,0.0
465488,0.730247,-0.993252,1.841315,0.093348,0.477349,-0.66564,0.0,15.0,96.0,172.0,29.0,0.0
465489,0.8091689999999999,-1.039981,1.895875,0.067335,-0.163939,-0.443512,0.0,15.0,96.0,172.0,29.0,0.0
465490,0.846459,-1.077842,1.920637,0.113281,-0.099048,-0.087745,0.0,15.0,96.0,172.0,29.0,0.0
465491,0.864346,-1.114103,1.9347,0.110043,-0.5543600000000001,0.158721,0.0,15.0,96.0,172.0,29.0,0.0
465492,0.900106,-1.155229,1.976051,-0.074771,-0.4278270000000001,0.269237,0.0,15.0,96.0,172.0,29.0,0.0
465493,0.944178,-1.200977,2.033027,0.053498,-0.144688,0.15859,0.0,15.0,96.0,172.0,29.0,0.0
465494,0.993874,-1.235547,2.1013610000000003,0.057859,-0.521446,0.142034,0.0,15.0,96.0,172.0,29.0,0.0
465495,1.049316,-1.259199,2.176462,-0.158992,-0.807772,0.237559,0.0,15.0,96.0,172.0,29.0,0.0
465496,1.08427,-1.277718,2.234394,-0.35180100000000003,-0.856376,0.12333800000000003,0.0,15.0,96.0,172.0,29.0,0.0
465497,1.111665,-1.2988879999999998,2.288719,-0.402502,-0.800663,-0.022815,0.0,15.0,96.0,172.0,29.0,0.0
465498,1.145559,-1.317832,2.3625,-0.23532600000000006,-0.7190449999999999,-0.421112,0.0,15.0,96.0,172.0,29.0,0.0
465499,1.160922,-1.328153,2.444703,0.590377,1.876645,0.000402,0.0,15.0,96.0,172.0,29.0,0.0
465500,1.271406,-1.33994,2.572988,-0.098834,2.637033,0.570333,0.0,15.0,96.0,172.0,29.0,0.0
465501,1.339526,-1.328275,2.629859,-0.477103,0.905653,0.072498,0.0,15.0,96.0,172.0,29.0,0.0
465502,1.340742,-1.3087540000000002,2.600462,-0.654328,0.773227,0.36046,0.0,15.0,96.0,172.0,29.0,0.0
465503,1.254276,-1.293264,2.492122,0.129868,-0.475116,0.190363,0.0,15.0,96.0,172.0,29.0,0.0
465504,1.210145,-1.278635,2.426273,0.6388739999999999,-0.369947,-0.334478,0.0,15.0,96.0,172.0,29.0,0.0
465505,1.178613,-1.277965,2.37709,0.800602,-0.289843,-0.065945,0.0,15.0,96.0,172.0,29.0,0.0
465506,1.130864,-1.284537,2.323483,0.790203,-0.198321,-0.03524,0.0,15.0,96.0,172.0,29.0,0.0
465507,1.088148,-1.296,2.289587,0.26527399999999995,-0.246431,0.138355,0.0,15.0,96.0,172.0,29.0,0.0
465508,1.067718,-1.3072629999999998,2.287121,-0.054347,-0.289298,0.032993,0.0,15.0,96.0,172.0,29.0,0.0
465509,1.0660120000000002,-1.30839,2.302027,-0.179493,-0.247049,-0.029354,0.0,15.0,96.0,172.0,29.0,0.0
465510,1.041151,-1.294765,2.281335,-0.3174,0.08387599999999999,-0.17519400000000002,0.0,15.0,96.0,172.0,29.0,0.0
465511,0.976207,-1.271557,2.207508,-0.283771,0.011923,0.019466,0.0,15.0,96.0,172.0,29.0,0.0
465512,0.903951,-1.235854,2.113954,-0.222246,-0.066866,0.127317,0.0,15.0,96.0,172.0,29.0,0.0
465513,0.844517,-1.182817,2.032009,-0.034949,-0.40062,0.01022,0.0,15.0,96.0,172.0,29.0,0.0
465514,0.800216,-1.120009,1.973789,-0.362169,-0.438923,-0.067813,0.0,15.0,96.0,172.0,29.0,0.0
465515,0.767099,-1.061963,1.938231,-0.432697,-0.535408,-0.012888,0.0,15.0,96.0,172.0,29.0,0.0
465516,0.741104,-1.011183,1.9174,-0.189832,-0.359103,0.180563,0.0,15.0,96.0,172.0,29.0,0.0
465517,0.71736,-0.961876,1.901576,0.014913999999999997,0.183182,0.108805,0.0,15.0,96.0,172.0,29.0,0.0
465518,0.683293,-0.917706,1.884593,0.298709,0.484721,-0.097655,0.0,15.0,96.0,172.0,29.0,0.0
465519,0.649682,-0.884244,1.866834,0.425633,0.536684,-0.339471,0.0,15.0,96.0,172.0,29.0,0.0
465520,0.6473409999999999,-0.881498,1.884371,0.535064,0.676824,-0.490814,0.0,15.0,96.0,172.0,29.0,0.0
465521,0.6533939999999999,-0.903351,1.906259,0.154418,0.589824,-0.386095,0.0,15.0,96.0,172.0,29.0,0.0
465522,0.6874439999999999,-0.938789,1.934685,-0.238768,-0.137761,-0.4207520000000001,0.0,15.0,96.0,172.0,29.0,0.0
465523,0.746212,-0.980846,1.969145,-0.103949,-0.342016,-0.344172,0.0,15.0,96.0,172.0,29.0,0.0
465524,0.791238,-1.019323,1.991342,-0.08845700000000001,-0.282799,-0.184394,0.0,15.0,96.0,172.0,29.0,0.0
465525,0.806659,-1.055818,1.994469,0.06698,-0.268878,-0.019669,0.0,15.0,96.0,172.0,29.0,0.0
465526,0.824493,-1.093341,2.00381,0.149531,-0.376082,0.017925,0.0,15.0,96.0,172.0,29.0,0.0
465527,0.865656,-1.134174,2.044162,0.17666099999999998,-0.4426229999999999,0.084842,0.0,15.0,96.0,172.0,29.0,0.0
465528,0.913738,-1.174403,2.096363,0.261546,-0.046651,0.015984,0.0,15.0,96.0,172.0,29.0,0.0
465529,0.964648,-1.203147,2.151736,-0.088245,-0.087121,-0.093717,0.0,15.0,96.0,172.0,29.0,0.0
465530,1.0288469999999998,-1.218373,2.222144,-0.268359,-0.211641,-0.049914,0.0,15.0,96.0,172.0,29.0,0.0
465531,1.074107,-1.230586,2.2787330000000003,-0.530446,-0.5798909999999999,0.100164,0.0,15.0,96.0,172.0,29.0,0.0
465532,1.098598,-1.245375,2.317684,-0.358641,-0.6519689999999999,0.315242,0.0,15.0,96.0,172.0,29.0,0.0
465533,1.103907,-1.261462,2.344258,-0.338466,-0.532996,0.387568,0.0,15.0,96.0,172.0,29.0,0.0
465534,1.088854,-1.2781360000000002,2.370125,0.369557,1.029413,0.270737,0.0,15.0,96.0,172.0,29.0,0.0
465535,1.157096,-1.297678,2.456134,0.52957,1.6437849999999998,0.356123,0.0,15.0,96.0,172.0,29.0,0.0
465536,1.236094,-1.2970540000000002,2.540417,0.276083,1.750705,-0.248224,0.0,15.0,96.0,172.0,29.0,0.0
465537,1.257609,-1.2826,2.548031,-0.222974,0.390653,0.203682,0.0,15.0,96.0,172.0,29.0,0.0
465538,1.193758,-1.260186,2.476982,0.062354,-0.598006,-0.047452,0.0,15.0,96.0,172.0,29.0,0.0
465539,1.145551,-1.243174,2.417511,0.23240700000000006,-0.375155,-0.372287,0.0,15.0,96.0,172.0,29.0,0.0
465540,1.1154620000000002,-1.239826,2.376014,0.307555,-0.264544,-0.242644,0.0,15.0,96.0,172.0,29.0,0.0
465541,1.0881459999999998,-1.247847,2.345794,0.493544,0.15892,0.053374,0.0,15.0,96.0,172.0,29.0,0.0
465542,1.065589,-1.2660049999999998,2.321686,0.222592,0.076623,0.18709,0.0,15.0,96.0,172.0,29.0,0.0
465543,1.053273,-1.291017,2.307405,0.11716300000000003,0.003056,0.010342,0.0,15.0,96.0,172.0,29.0,0.0
465544,1.049333,-1.310154,2.30113,0.076887,-0.078804,0.011483,0.0,15.0,96.0,172.0,29.0,0.0
465545,1.043385,-1.318762,2.288843,-0.129108,-0.217141,0.084882,0.0,15.0,96.0,172.0,29.0,0.0
465546,1.006293,-1.318493,2.2427650000000003,-0.080702,-0.364153,0.070739,0.0,15.0,96.0,172.0,29.0,0.0
465547,0.94848,-1.3078,2.1754580000000003,-0.032482,-0.40191,0.028793,0.0,15.0,96.0,172.0,29.0,0.0
465548,0.896824,-1.281269,2.109491,0.009252,-0.237111,-0.064613,0.0,15.0,96.0,172.0,29.0,0.0
465549,0.844359,-1.238155,2.042024,0.000381,-0.25553200000000004,0.03352,0.0,15.0,96.0,172.0,29.0,0.0
465550,0.7852100000000001,-1.183164,1.972138,-0.073258,-0.40951,0.001932,0.0,15.0,96.0,172.0,29.0,0.0
465551,0.731316,-1.122982,1.91194,-0.30337800000000004,-0.435621,-0.02012,0.0,15.0,96.0,172.0,29.0,0.0
465552,0.698982,-1.065941,1.873346,-0.499783,-0.482728,0.103665,0.0,15.0,96.0,172.0,29.0,0.0
465553,0.6779569999999999,-1.012921,1.849736,-0.20918,0.053091999999999986,0.093249,0.0,15.0,96.0,172.0,29.0,0.0
465554,0.6571779999999999,-0.958889,1.829301,0.042525,0.243824,0.031077,0.0,15.0,96.0,172.0,29.0,0.0
465555,0.626901,-0.910516,1.803097,0.417005,0.537771,0.0219,0.0,15.0,96.0,172.0,29.0,0.0
465556,0.6211439999999999,-0.8853120000000001,1.799434,0.481871,0.194119,-0.415711,0.0,15.0,96.0,172.0,29.0,0.0
465557,0.625205,-0.8934709999999999,1.815586,0.662569,0.6299739999999999,-0.5877859999999999,0.0,15.0,96.0,172.0,29.0,0.0
465558,0.6494310000000001,-0.931113,1.840466,0.608449,0.914726,-0.737351,0.0,15.0,96.0,172.0,29.0,0.0
465559,0.68275,-0.9707,1.862386,0.178189,-0.022089,-0.317866,0.0,15.0,96.0,172.0,29.0,0.0
465560,0.727572,-1.008823,1.881665,0.071648,-0.148039,-0.385747,0.0,15.0,96.0,172.0,29.0,0.0
465561,0.765134,-1.0442209999999998,1.894917,-0.042295,-0.17096,-0.39031,0.0,15.0,96.0,172.0,29.0,0.0
465562,0.788412,-1.078961,1.908725,0.142566,-0.41226,0.088285,0.0,15.0,96.0,172.0,29.0,0.0
465563,0.826175,-1.120085,1.944399,0.116667,-0.8577790000000001,0.16039,0.0,15.0,96.0,172.0,29.0,0.0
465564,0.8842409999999999,-1.17179,2.009513,0.112947,-0.666763,0.11761,0.0,15.0,96.0,172.0,29.0,0.0
465565,0.932781,-1.222707,2.071294,0.046275,-0.07087,-0.166062,0.0,15.0,96.0,172.0,29.0,0.0
465566,0.993148,-1.25404,2.1455040000000003,-0.067423,-0.07079500000000001,-0.135552,0.0,15.0,96.0,172.0,29.0,0.0
465567,1.060189,-1.270505,2.229924,-0.5181560000000001,-0.475148,0.214055,0.0,15.0,96.0,172.0,29.0,0.0
465568,1.108041,-1.286373,2.295862,-0.519173,-0.757538,0.238478,0.0,15.0,96.0,172.0,29.0,0.0
465569,1.1352950000000002,-1.302906,2.340071,-0.455123,-0.894782,0.246272,0.0,15.0,96.0,172.0,29.0,0.0
465570,1.157634,-1.316625,2.388186,0.011431,-0.555412,-0.366626,0.0,15.0,96.0,172.0,29.0,0.0
465571,1.224139,-1.326691,2.498424,0.443118,1.911375,0.602082,0.0,15.0,96.0,172.0,29.0,0.0
465572,1.323431,-1.328001,2.608371,0.160446,2.348605,0.580178,0.0,15.0,96.0,172.0,29.0,0.0
465573,1.375227,-1.313374,2.65217,-0.474371,0.600959,-0.415253,0.0,15.0,96.0,172.0,29.0,0.0
465574,1.3572799999999998,-1.302154,2.626854,-0.220634,0.981486,0.087122,0.0,15.0,96.0,172.0,29.0,0.0
465575,1.2893059999999998,-1.297267,2.546415,0.09524,-0.25052800000000003,0.197959,0.0,15.0,96.0,172.0,29.0,0.0
465576,1.240308,-1.290659,2.480245,0.254849,-0.332889,-0.036001,0.0,15.0,96.0,172.0,29.0,0.0
465577,1.208453,-1.2865799999999998,2.431112,0.472896,-0.235501,-0.139046,0.0,15.0,96.0,172.0,29.0,0.0
465578,1.189868,-1.291406,2.404773,0.623027,0.003452,-0.045262,0.0,15.0,96.0,172.0,29.0,0.0
465579,1.179483,-1.303197,2.401409,0.474491,-0.054924,-0.044467,0.0,15.0,96.0,172.0,29.0,0.0
465580,1.18254,-1.317632,2.422314,0.252126,0.074127,-0.043935,0.0,15.0,96.0,172.0,29.0,0.0
465581,1.195614,-1.329656,2.4464080000000004,0.035969,0.019489,-0.096274,0.0,15.0,96.0,172.0,29.0,0.0
465582,1.200568,-1.335179,2.452901,-0.221069,-4e-06,-0.051604,0.0,15.0,96.0,172.0,29.0,0.0
465583,1.168774,-1.340213,2.420701,-0.224371,-0.114067,0.109237,0.0,15.0,96.0,172.0,29.0,0.0
465584,1.095046,-1.341855,2.348571,-0.199771,-0.230835,0.143361,0.0,15.0,96.0,172.0,29.0,0.0
465585,1.010958,-1.33367,2.265759,0.007192000000000001,-0.281221,0.061184,0.0,15.0,96.0,172.0,29.0,0.0
465586,0.933763,-1.309559,2.187904,0.027718,-0.229255,0.057301,0.0,15.0,96.0,172.0,29.0,0.0
465587,0.8460700000000001,-1.268714,2.099224,-0.013529,-0.355079,0.093488,0.0,15.0,96.0,172.0,29.0,0.0
465588,0.753563,-1.2159870000000002,2.007998,-0.187152,-0.509933,0.093064,0.0,15.0,96.0,172.0,29.0,0.0
465589,0.674916,-1.160402,1.928524,-0.307343,-0.568972,0.080581,0.0,15.0,96.0,172.0,29.0,0.0
465590,0.626504,-1.108229,1.875143,-0.401606,-0.538953,0.120584,0.0,15.0,96.0,172.0,29.0,0.0
465591,0.602421,-1.058459,1.840378,-0.388733,-0.390705,-0.039627,0.0,15.0,96.0,172.0,29.0,0.0
465592,0.590631,-1.001054,1.81005,-0.221837,-0.019316,-0.037873,0.0,15.0,96.0,172.0,29.0,0.0
465593,0.599892,-0.946643,1.791823,0.042188,0.26093,0.190008,0.0,15.0,96.0,172.0,29.0,0.0
465594,0.6183930000000001,-0.91824,1.791514,-0.025083,1.029913,0.120116,0.0,15.0,96.0,172.0,29.0,0.0
465595,0.645325,-0.913303,1.81074,0.851181,0.401924,-0.7130449999999999,0.0,15.0,96.0,172.0,29.0,0.0
465596,0.6768430000000001,-0.941758,1.837867,0.498233,0.97612,-0.601079,0.0,15.0,96.0,172.0,29.0,0.0
465597,0.7111930000000001,-0.978569,1.860367,0.578098,0.426358,-0.458538,0.0,15.0,96.0,172.0,29.0,0.0
465598,0.76669,-1.017526,1.888505,0.31145100000000003,-0.018825,-0.452624,0.0,15.0,96.0,172.0,29.0,0.0
465599,0.809906,-1.053783,1.91148,0.28429,-0.255331,-0.335493,0.0,15.0,96.0,172.0,29.0,0.0
465600,0.809046,-1.090036,1.910346,0.280489,-0.459611,-0.021936,0.0,15.0,96.0,172.0,29.0,0.0
465601,0.8003,-1.132226,1.917553,0.125365,-0.677592,0.161691,0.0,15.0,96.0,172.0,29.0,0.0
465602,0.814036,-1.18173,1.955805,0.056582000000000014,-0.578248,0.050616,0.0,15.0,96.0,172.0,29.0,0.0
465603,0.8342280000000001,-1.227231,2.004439,0.031289,-0.4814,-0.12293,0.0,15.0,96.0,172.0,29.0,0.0
465604,0.859052,-1.253723,2.053969,-0.215314,-0.06621,0.026771,0.0,15.0,96.0,172.0,29.0,0.0
465605,0.8927209999999999,-1.266263,2.114044,-0.363417,-0.129204,0.109912,0.0,15.0,96.0,172.0,29.0,0.0
465606,0.923309,-1.280383,2.170575,-0.535309,-0.21783,0.171536,0.0,15.0,96.0,172.0,29.0,0.0
465607,0.939491,-1.301698,2.209142,-0.342214,-0.821692,0.396952,0.0,15.0,96.0,172.0,29.0,0.0
465608,0.952461,-1.32662,2.23855,-0.282931,-0.895065,0.388024,0.0,15.0,96.0,172.0,29.0,0.0
465609,0.982431,-1.352032,2.275371,-0.22485300000000005,-0.8719030000000001,0.22511,0.0,15.0,96.0,172.0,29.0,0.0
465610,1.025249,-1.374178,2.325754,0.41202,0.44958,-0.6414449999999999,0.0,15.0,96.0,172.0,29.0,0.0
465611,1.117851,-1.388834,2.4161330000000003,0.776065,2.203796,0.34311,0.0,15.0,96.0,172.0,29.0,0.0
465612,1.242673,-1.376012,2.524394,-0.388846,0.548162,-0.132609,0.0,15.0,96.0,172.0,29.0,0.0
465613,1.19555,-1.358571,2.487688,0.119397,-0.185389,-0.237386,0.0,15.0,96.0,172.0,29.0,0.0
465614,1.127664,-1.354698,2.427565,0.575446,0.992024,0.20942,0.0,15.0,96.0,172.0,29.0,0.0
465615,1.115761,-1.3564,2.407361,0.233947,0.0559,0.246693,0.0,15.0,96.0,172.0,29.0,0.0
465616,1.057328,-1.353355,2.337225,0.423543,-0.46185,-0.004182,0.0,15.0,96.0,172.0,29.0,0.0
465617,0.984291,-1.35295,2.263489,0.554218,-0.373612,-0.150324,0.0,15.0,96.0,172.0,29.0,0.0
465618,0.936069,-1.3628049999999998,2.223558,0.572513,0.058936,-0.053384,0.0,15.0,96.0,172.0,29.0,0.0
465619,0.915604,-1.380872,2.222013,0.351397,0.04267,-0.152902,0.0,15.0,96.0,172.0,29.0,0.0
465620,0.930722,-1.404349,2.257217,0.287658,0.017208,-0.17691400000000002,0.0,15.0,96.0,172.0,29.0,0.0
465621,0.936503,-1.427402,2.276602,0.205356,0.092508,-0.254432,0.0,15.0,96.0,172.0,29.0,0.0
465622,0.848914,-1.443515,2.195787,0.327423,0.058748,-0.08533500000000001,0.0,15.0,96.0,172.0,29.0,0.0
465623,0.6932689999999999,-1.453734,2.0477830000000004,0.385808,0.006569,0.004886,0.0,15.0,96.0,172.0,29.0,0.0
465624,0.536555,-1.457003,1.902946,0.35935300000000003,-0.2885,0.083135,0.0,15.0,96.0,172.0,29.0,0.0
465625,0.429088,-1.4481190000000002,1.807461,0.348565,-0.294364,-0.0377,0.0,15.0,96.0,172.0,29.0,0.0
465626,0.369705,-1.423746,1.758102,0.266892,-0.267085,-0.050666,0.0,15.0,96.0,172.0,29.0,0.0
465627,0.318348,-1.384024,1.718678,0.039895,-0.450336,0.224887,0.0,15.0,96.0,172.0,29.0,0.0
465628,0.263475,-1.333877,1.682425,-0.15784700000000002,-0.5997819999999999,-0.071398,0.0,15.0,96.0,172.0,29.0,0.0
465629,0.226333,-1.279969,1.6690009999999995,-0.220624,-0.352752,-0.108232,0.0,15.0,96.0,172.0,29.0,0.0
465630,0.23156,-1.225607,1.699912,0.036956,0.19293,0.399675,0.0,15.0,96.0,172.0,29.0,0.0
465631,0.26255700000000004,-1.168205,1.763687,-0.034857,0.357692,0.268764,0.0,15.0,96.0,172.0,29.0,0.0
465632,0.307815,-1.113463,1.839619,0.204035,1.123381,0.189961,0.0,15.0,96.0,172.0,29.0,0.0
465633,0.355509,-1.089217,1.911329,0.302667,1.257748,0.03646,0.0,15.0,96.0,172.0,29.0,0.0
465634,0.427281,-1.074056,1.99333,-0.00742,0.794413,-0.147878,0.0,15.0,96.0,172.0,29.0,0.0
465635,0.509252,-1.057404,2.069991,0.162388,0.550349,-0.251168,0.0,15.0,96.0,172.0,29.0,0.0
465636,0.580901,-1.048989,2.140431,0.224773,0.451119,-0.1435,0.0,15.0,96.0,172.0,29.0,0.0
465637,0.637195,-1.04635,2.20344,0.259072,0.34555,-0.089948,0.0,15.0,96.0,172.0,29.0,0.0
465638,0.675678,-1.046733,2.270259,0.5662510000000001,0.07987000000000001,-0.020133,0.0,15.0,96.0,172.0,29.0,0.0
465639,0.701411,-1.051532,2.3471740000000003,0.429553,0.074687,0.088715,0.0,15.0,96.0,172.0,29.0,0.0
465640,0.698972,-1.062943,2.408603,0.301223,-0.270336,0.228676,0.0,15.0,96.0,172.0,29.0,0.0
465641,0.676426,-1.081279,2.454294,0.121747,-0.533469,0.210368,0.0,15.0,96.0,172.0,29.0,0.0
465642,0.64258,-1.1056290000000002,2.491924,0.028418,-0.722024,0.25761300000000004,0.0,15.0,96.0,172.0,29.0,0.0
465643,0.601788,-1.135016,2.52395,-0.079189,-0.77968,0.342614,0.0,15.0,96.0,172.0,29.0,0.0
465644,0.5609069999999999,-1.168126,2.553452,-0.172216,-0.6940350000000001,0.373693,0.0,15.0,96.0,172.0,29.0,0.0
465645,0.52623,-1.200787,2.586139,-0.124486,-0.427914,0.376823,0.0,15.0,96.0,172.0,29.0,0.0
465646,0.506205,-1.225775,2.627892,0.0022010000000000003,-0.16963,0.169982,0.0,15.0,96.0,172.0,29.0,0.0
465647,0.500225,-1.232078,2.668703,0.189606,0.344111,-0.010812,0.0,15.0,96.0,172.0,29.0,0.0
465648,0.507674,-1.224184,2.7096720000000003,0.231446,0.828102,0.119155,0.0,15.0,96.0,172.0,29.0,0.0
465649,0.502612,-1.205466,2.731511,0.157711,0.41925,0.120134,0.0,15.0,96.0,172.0,29.0,0.0
465650,0.498293,-1.178002,2.738427,0.082677,-0.342575,-0.145059,0.0,15.0,96.0,172.0,29.0,0.0
465651,0.520525,-1.160725,2.769891,-0.14218,-0.330865,-0.311544,0.0,15.0,96.0,172.0,29.0,0.0
465652,0.539505,-1.155894,2.822023,0.432652,0.687719,-0.153429,0.0,15.0,96.0,172.0,29.0,0.0
465653,0.592601,-1.15834,2.922101,0.447839,1.644972,0.556349,0.0,15.0,96.0,172.0,29.0,0.0
465654,0.650706,-1.160061,3.025569,0.006202,1.470822,0.793165,0.0,15.0,96.0,172.0,29.0,0.0
465655,0.6547310000000001,-1.149998,3.0681580000000004,-0.5273680000000001,-0.282056,0.5313939999999999,0.0,15.0,96.0,172.0,29.0,0.0
465656,0.633303,-1.145681,3.086482,-0.559991,-0.422374,0.437618,0.0,15.0,96.0,172.0,29.0,0.0
465657,0.597346,-1.156961,3.090471,-0.433734,-0.383099,0.324409,0.0,15.0,96.0,172.0,29.0,0.0
465658,0.540762,-1.181904,3.0783560000000003,-0.110895,-0.31003400000000003,0.396176,0.0,15.0,96.0,172.0,29.0,0.0
465659,0.478422,-1.216109,3.067936,0.281019,-0.001872,0.448263,0.0,15.0,96.0,172.0,29.0,0.0
465660,0.443137,-1.258813,3.083423,0.519227,0.304697,0.391439,0.0,15.0,96.0,172.0,29.0,0.0
465661,0.455125,-1.301921,3.1268830000000003,0.284068,0.378169,0.22524,0.0,15.0,96.0,172.0,29.0,0.0
465662,0.504423,-1.334585,-3.09148,0.027073000000000003,-0.022921,0.18818,0.0,15.0,96.0,172.0,29.0,0.0
465663,0.565738,-1.360266,-3.010002,-0.105982,-0.058227,0.085244,0.0,15.0,96.0,172.0,29.0,0.0
465664,0.6039939999999999,-1.381149,-2.940202,-0.15194100000000002,-0.054672000000000005,-0.003093,0.0,15.0,96.0,172.0,29.0,0.0
465665,0.601273,-1.400275,-2.901349,-0.087878,-0.055946,-0.064953,0.0,15.0,96.0,172.0,29.0,0.0
465666,0.5821810000000001,-1.418891,-2.87724,0.150945,0.034816,0.012506,0.0,15.0,96.0,172.0,29.0,0.0
465667,0.576742,-1.436375,-2.850738,0.177201,-0.072293,0.113344,0.0,15.0,96.0,172.0,29.0,0.0
465668,0.56648,-1.449388,-2.840061,0.14616400000000002,-0.134714,0.092558,0.0,15.0,96.0,172.0,29.0,0.0
465669,0.539825,-1.458594,-2.849735,0.106461,-0.16613599999999998,0.138485,0.0,15.0,96.0,172.0,29.0,0.0
465670,0.504278,-1.467618,-2.868425,0.186467,-0.07286799999999999,0.1038,0.0,15.0,96.0,172.0,29.0,0.0
465671,0.464163,-1.480644,-2.892088,0.337363,0.0544,0.062185,0.0,15.0,96.0,172.0,29.0,0.0
465672,0.422044,-1.49671,-2.9172290000000003,0.317809,0.056271,-0.070742,0.0,15.0,96.0,172.0,29.0,0.0
465673,0.300155,-1.513409,-3.016412,0.398063,0.105436,-0.120545,0.0,15.0,96.0,172.0,29.0,0.0
465674,0.082081,-1.52575,3.072197,0.2998,0.048744,-0.127927,0.0,15.0,96.0,172.0,29.0,0.0
465675,-0.192266,-1.529801,2.819761,0.255517,0.065919,-0.120503,0.0,15.0,96.0,172.0,29.0,0.0
465676,-0.367714,-1.523842,2.664555,0.354844,0.095722,-0.011257,0.0,15.0,96.0,172.0,29.0,0.0
465677,-0.34716,-1.505988,2.709165,0.496478,0.202157,0.07710299999999999,0.0,15.0,96.0,172.0,29.0,0.0
465678,-0.195981,-1.47868,2.8903790000000003,0.45624,0.236845,0.147327,0.0,15.0,96.0,172.0,29.0,0.0
465679,-0.001825,-1.442337,3.119695,0.14092000000000002,-0.22525,0.271348,0.0,15.0,96.0,172.0,29.0,0.0
465680,0.16029200000000002,-1.396081,-2.961407,0.112946,-0.218266,0.314853,0.0,15.0,96.0,172.0,29.0,0.0
465681,0.281711,-1.34546,-2.799294,0.128733,0.40231,0.214362,0.0,15.0,96.0,172.0,29.0,0.0
465682,0.356741,-1.295332,-2.688961,-0.06215900000000001,0.5613520000000001,0.213044,0.0,15.0,96.0,172.0,29.0,0.0
465683,0.402435,-1.247906,-2.618977,-0.09145,0.575329,0.250138,0.0,15.0,96.0,172.0,29.0,0.0
465684,0.442934,-1.206569,-2.559685,-0.039116000000000005,0.432804,0.209597,0.0,15.0,96.0,172.0,29.0,0.0
465685,0.4679180000000001,-1.1695879999999998,-2.514106,0.047909,0.184894,0.208925,0.0,15.0,96.0,172.0,29.0,0.0
465686,0.476836,-1.137853,-2.477481,0.111492,0.145122,0.231501,0.0,15.0,96.0,172.0,29.0,0.0
465687,0.48194,-1.113084,-2.433813,0.16544,0.060103,0.184875,0.0,15.0,96.0,172.0,29.0,0.0
465688,0.48678,-1.093864,-2.382553,0.101672,-0.029185000000000006,0.110423,0.0,15.0,96.0,172.0,29.0,0.0
465689,0.4918520000000001,-1.078354,-2.3273650000000004,0.060497,-0.052522000000000006,0.082104,0.0,15.0,96.0,172.0,29.0,0.0
465690,0.490825,-1.066686,-2.270763,0.014346,-0.10644,0.092151,0.0,15.0,96.0,172.0,29.0,0.0
465691,0.482417,-1.0622790000000002,-2.211043,0.018559,-0.172189,0.217856,0.0,15.0,96.0,172.0,29.0,0.0
465692,0.474708,-1.067233,-2.141726,0.005255,-0.226378,0.305192,0.0,15.0,96.0,172.0,29.0,0.0
465693,0.473221,-1.078506,-2.066831,0.013244999999999998,-0.271618,0.26669,0.0,15.0,96.0,172.0,29.0,0.0
465694,0.474963,-1.091573,-1.996628,0.068518,-0.328195,0.207988,0.0,15.0,96.0,172.0,29.0,0.0
465695,0.475028,-1.102561,-1.940491,0.065303,-0.27237100000000003,0.218795,0.0,15.0,96.0,172.0,29.0,0.0
465696,0.480459,-1.111444,-1.890705,0.038845,-0.145455,0.291189,0.0,15.0,96.0,172.0,29.0,0.0
465697,0.503366,-1.122682,-1.834566,0.09162,-0.005712,0.360719,0.0,15.0,96.0,172.0,29.0,0.0
465698,0.548479,-1.135348,-1.7689240000000002,0.05964600000000001,0.132076,0.281582,0.0,15.0,96.0,172.0,29.0,0.0
465699,0.595529,-1.143567,-1.706005,0.033279,0.21505,0.07964600000000001,0.0,15.0,96.0,172.0,29.0,0.0
465700,0.631067,-1.143537,-1.6513520000000002,0.094952,-0.053156,0.07471799999999999,0.0,15.0,96.0,172.0,29.0,0.0
465701,0.65978,-1.141599,-1.600726,0.110246,-0.413954,0.093216,0.0,15.0,96.0,172.0,29.0,0.0
465702,0.694724,-1.145645,-1.546528,0.120727,-0.60046,-0.103677,0.0,15.0,96.0,172.0,29.0,0.0
465703,0.745658,-1.154597,-1.473691,-0.213172,-0.110692,-0.371749,0.0,15.0,96.0,172.0,29.0,0.0
465704,0.79278,-1.168551,-1.398498,0.039189,0.442197,-0.18175,0.0,15.0,96.0,172.0,29.0,0.0
465705,0.825714,-1.183478,-1.331261,0.12317,1.773904,0.806901,0.0,15.0,96.0,172.0,29.0,0.0
465706,0.8471290000000001,-1.180561,-1.259209,-0.841564,-0.076629,0.7536579999999999,0.0,15.0,96.0,172.0,29.0,0.0
465707,0.8275,-1.186898,-1.224978,-0.657226,-0.27810300000000004,0.601547,0.0,15.0,96.0,172.0,29.0,0.0
465708,0.769876,-1.203406,-1.229596,-0.358442,-0.318384,0.223367,0.0,15.0,96.0,172.0,29.0,0.0
465709,0.679469,-1.2162309999999998,-1.268952,-0.2686,-0.199974,0.123627,0.0,15.0,96.0,172.0,29.0,0.0
465710,0.622893,-1.229243,-1.284547,-0.270197,0.13811700000000002,0.083969,0.0,15.0,96.0,172.0,29.0,0.0
465711,0.639336,-1.248074,-1.245087,0.003557,0.043614,0.246655,0.0,15.0,96.0,172.0,29.0,0.0
465712,0.706228,-1.26431,-1.169631,0.101282,-0.116608,0.198026,0.0,15.0,96.0,172.0,29.0,0.0
465713,0.779393,-1.2744879999999998,-1.098429,0.087495,-0.005081,0.09777,0.0,15.0,96.0,172.0,29.0,0.0
465714,0.824824,-1.279679,-1.057808,0.069533,0.012642,0.087625,0.0,15.0,96.0,172.0,29.0,0.0
465715,0.851202,-1.285766,-1.0310979999999998,-0.119755,-0.15975699999999998,0.119319,0.0,15.0,96.0,172.0,29.0,0.0
465716,0.8589450000000001,-1.294093,-1.019266,-0.07159199999999999,-0.244905,0.119163,0.0,15.0,96.0,172.0,29.0,0.0
465717,0.853037,-1.299533,-1.021468,0.040315,-0.288064,0.071099,0.0,15.0,96.0,172.0,29.0,0.0
465718,0.839609,-1.299449,-1.036434,0.161474,-0.221849,0.126506,0.0,15.0,96.0,172.0,29.0,0.0
465719,0.834997,-1.295285,-1.050648,0.178525,-0.218802,0.150791,0.0,15.0,96.0,172.0,29.0,0.0
465720,0.8550059999999999,-1.289563,-1.04333,0.105636,-0.244329,0.110825,0.0,15.0,96.0,172.0,29.0,0.0
465721,0.886792,-1.284074,-1.018672,0.103561,-0.096337,0.028184,0.0,15.0,96.0,172.0,29.0,0.0
465722,0.9006129999999999,-1.278944,-1.003711,0.062637,-0.106638,0.002542,0.0,15.0,96.0,172.0,29.0,0.0
465723,0.879748,-1.272571,-1.017398,0.003442,-0.109577,-0.000397,0.0,15.0,96.0,172.0,29.0,0.0
465724,0.835673,-1.262634,-1.054142,-0.053884,-0.263989,0.056911,0.0,15.0,96.0,172.0,29.0,0.0
465725,0.784736,-1.246958,-1.099146,-0.009484,-0.236687,0.14820899999999998,0.0,15.0,96.0,172.0,29.0,0.0
465726,0.734548,-1.224168,-1.145572,0.000654,-0.239977,0.257515,0.0,15.0,96.0,172.0,29.0,0.0
465727,0.6873779999999999,-1.191075,-1.188695,-0.060148,-0.113613,0.16122,0.0,15.0,96.0,172.0,29.0,0.0
465728,0.655363,-1.147004,-1.220589,-0.079605,-0.023185,0.135161,0.0,15.0,96.0,172.0,29.0,0.0
465729,0.645267,-1.0948209999999998,-1.237633,-0.102302,0.073434,0.125944,0.0,15.0,96.0,172.0,29.0,0.0
465730,0.647555,-1.037126,-1.244247,-0.24958,0.091401,0.173228,0.0,15.0,96.0,172.0,29.0,0.0
465731,0.6484409999999999,-0.979369,-1.248574,-0.182793,0.125527,0.184395,0.0,15.0,96.0,172.0,29.0,0.0
465732,0.641452,-0.922889,-1.259315,-0.200962,0.225937,0.136049,0.0,15.0,96.0,172.0,29.0,0.0
465733,0.643536,-0.875389,-1.268401,0.166454,0.844146,-0.24637,0.0,15.0,96.0,172.0,29.0,0.0
465734,0.669512,-0.8554719999999999,-1.254085,0.14386,0.857058,-0.244637,0.0,15.0,96.0,172.0,29.0,0.0
465735,0.690966,-0.8490129999999999,-1.231802,0.520311,0.494275,-0.23233,0.0,15.0,96.0,172.0,29.0,0.0
465736,0.694545,-0.857672,-1.224116,0.315758,0.077205,-0.15119100000000002,0.0,15.0,96.0,172.0,29.0,0.0
465737,0.716819,-0.8825649999999999,-1.20812,0.187652,-0.085161,-0.200317,0.0,15.0,96.0,172.0,29.0,0.0
465738,0.7476970000000001,-0.918194,-1.1863629999999998,0.027925,-0.235516,-0.154003,0.0,15.0,96.0,172.0,29.0,0.0
465739,0.777584,-0.958459,-1.166924,0.018926,-0.32113,-0.13234,0.0,15.0,96.0,172.0,29.0,0.0
465740,0.799187,-1.0017,-1.153383,0.011224,-0.431835,-0.032657,0.0,15.0,96.0,172.0,29.0,0.0
465741,0.811429,-1.04586,-1.142827,0.081187,-0.565856,0.048514,0.0,15.0,96.0,172.0,29.0,0.0
465742,0.826683,-1.093516,-1.11498,-0.141074,-0.495334,0.064076,0.0,15.0,96.0,172.0,29.0,0.0
465743,0.843569,-1.143038,-1.076819,-0.156636,-0.370149,0.047823,0.0,15.0,96.0,172.0,29.0,0.0
465744,0.856268,-1.178839,-1.045391,-0.29052100000000003,0.197007,-0.092855,0.0,15.0,96.0,172.0,29.0,0.0
465745,0.8895879999999999,-1.194982,-0.994548,-0.512566,-0.121966,0.056135,0.0,15.0,96.0,172.0,29.0,0.0
465746,0.92732,-1.205508,-0.940887,-0.6489739999999999,-0.322448,0.17018699999999998,0.0,15.0,96.0,172.0,29.0,0.0
465747,0.97262,-1.221678,-0.882044,-0.439217,-0.4890060000000001,0.2375,0.0,15.0,96.0,172.0,29.0,0.0
465748,1.026949,-1.242387,-0.815537,-0.215687,-0.309228,0.244169,0.0,15.0,96.0,172.0,29.0,0.0
465749,1.07268,-1.263309,-0.756533,-0.184985,0.102018,0.326039,0.0,15.0,96.0,172.0,29.0,0.0
465750,1.087907,-1.2823790000000002,-0.742837,0.190807,1.520263,0.2287,0.0,15.0,96.0,172.0,29.0,0.0
465751,1.111183,-1.290549,-0.721687,-0.02247,1.023876,0.103432,0.0,15.0,96.0,172.0,29.0,0.0
465752,1.117356,-1.295501,-0.701699,-0.15671300000000002,0.404797,-0.071649,0.0,15.0,96.0,172.0,29.0,0.0
465753,1.132315,-1.294958,-0.682359,0.100002,0.978706,-0.02758,0.0,15.0,96.0,172.0,29.0,0.0
465754,1.1705219999999998,-1.286795,-0.6546420000000001,0.277597,0.027668,-0.044936,0.0,15.0,96.0,172.0,29.0,0.0
465755,1.182536,-1.27082,-0.653663,0.286953,-0.237036,-0.079452,0.0,15.0,96.0,172.0,29.0,0.0
465756,1.160166,-1.260262,-0.679506,0.286516,-0.396201,-0.099144,0.0,15.0,96.0,172.0,29.0,0.0
465757,1.124109,-1.260527,-0.711407,0.25627300000000003,-0.210064,0.047425,0.0,15.0,96.0,172.0,29.0,0.0
465758,1.082696,-1.270835,-0.7415149999999999,0.114877,-0.20937600000000006,0.165871,0.0,15.0,96.0,172.0,29.0,0.0
465759,1.054,-1.28843,-0.756621,0.010644,0.052327,0.156612,0.0,15.0,96.0,172.0,29.0,0.0
465760,1.065336,-1.307052,-0.736798,-0.075476,0.167438,0.06866599999999999,0.0,15.0,96.0,172.0,29.0,0.0
465761,1.095083,-1.31981,-0.7117220000000001,-0.158156,0.113714,-0.007622,0.0,15.0,96.0,172.0,29.0,0.0
465762,1.083867,-1.326178,-0.7355970000000001,-0.188703,-0.260147,-0.061295,0.0,15.0,96.0,172.0,29.0,0.0
465763,1.041473,-1.328409,-0.790303,-0.007889,-0.384083,0.047181,0.0,15.0,96.0,172.0,29.0,0.0
465764,0.999706,-1.327226,-0.8439840000000001,0.092974,-0.414941,0.091808,0.0,15.0,96.0,172.0,29.0,0.0
465765,0.970438,-1.320346,-0.883437,0.162734,-0.33016,0.106692,0.0,15.0,96.0,172.0,29.0,0.0
465766,0.954772,-1.307136,-0.909034,0.165266,-0.259083,0.117841,0.0,15.0,96.0,172.0,29.0,0.0
465767,0.930331,-1.286567,-0.942791,0.067437,-0.1625,0.114107,0.0,15.0,96.0,172.0,29.0,0.0
465768,0.878027,-1.256695,-1.001643,-0.069958,-0.14896600000000002,0.111835,0.0,15.0,96.0,172.0,29.0,0.0
465769,0.807233,-1.216285,-1.076015,-0.148853,-0.229244,0.013638,0.0,15.0,96.0,172.0,29.0,0.0
465770,0.736809,-1.165278,-1.1493790000000002,-0.163167,-0.210326,0.06576699999999999,0.0,15.0,96.0,172.0,29.0,0.0
465771,0.6777449999999999,-1.10672,-1.2118950000000002,-0.201447,-0.12606199999999998,0.055484000000000006,0.0,15.0,96.0,172.0,29.0,0.0
465772,0.638421,-1.046808,-1.253238,-0.220952,-0.105287,0.247244,0.0,15.0,96.0,172.0,29.0,0.0
465773,0.608594,-0.987831,-1.285558,-0.106429,-0.047404,0.248058,0.0,15.0,96.0,172.0,29.0,0.0
465774,0.579915,-0.926192,-1.317587,-0.020414,0.153604,0.17218,0.0,15.0,96.0,172.0,29.0,0.0
465775,0.59297,-0.874469,-1.324361,0.014631,0.8840110000000001,-0.439029,0.0,15.0,96.0,172.0,29.0,0.0
465776,0.660899,-0.857398,-1.284667,0.198225,0.8855049999999999,-0.520192,0.0,15.0,96.0,172.0,29.0,0.0
465777,0.7006760000000001,-0.851952,-1.25243,0.2532,0.753948,-0.451769,0.0,15.0,96.0,172.0,29.0,0.0
465778,0.719812,-0.860165,-1.2302620000000002,0.351129,0.220825,-0.330998,0.0,15.0,96.0,172.0,29.0,0.0
465779,0.755111,-0.8862540000000001,-1.199247,0.179837,-0.093892,-0.159685,0.0,15.0,96.0,172.0,29.0,0.0
465780,0.801439,-0.926134,-1.159888,0.061364,-0.242448,-0.078902,0.0,15.0,96.0,172.0,29.0,0.0
465781,0.8360270000000001,-0.97027,-1.127633,0.203742,-0.417537,-0.052320000000000005,0.0,15.0,96.0,172.0,29.0,0.0
465782,0.8540110000000001,-1.011426,-1.112101,0.161718,-0.568873,-0.008532,0.0,15.0,96.0,172.0,29.0,0.0
465783,0.855007,-1.049201,-1.106577,0.199727,-0.683157,0.045286,0.0,15.0,96.0,172.0,29.0,0.0
465784,0.8587819999999999,-1.090242,-1.084431,0.035910000000000004,-0.769734,0.110404,0.0,15.0,96.0,172.0,29.0,0.0
465785,0.881474,-1.140314,-1.035932,-0.24623,-0.623822,-0.033374,0.0,15.0,96.0,172.0,29.0,0.0
465786,0.893559,-1.186469,-0.999868,-0.210242,-0.007877,-0.230373,0.0,15.0,96.0,172.0,29.0,0.0
465787,0.911154,-1.207326,-0.957419,-0.403759,0.11478499999999997,0.053270000000000005,0.0,15.0,96.0,172.0,29.0,0.0
465788,0.942076,-1.219981,-0.905531,-0.660994,-0.13130799999999998,0.060457,0.0,15.0,96.0,172.0,29.0,0.0
465789,0.991411,-1.236629,-0.840248,-0.38269,-0.302014,0.210938,0.0,15.0,96.0,172.0,29.0,0.0
465790,1.044713,-1.252507,-0.775365,-0.20224,-0.185215,0.305697,0.0,15.0,96.0,172.0,29.0,0.0
465791,1.075195,-1.266973,-0.7307680000000001,-0.112848,0.07888200000000001,0.301019,0.0,15.0,96.0,172.0,29.0,0.0
465792,1.095947,-1.282506,-0.700104,0.229137,0.857568,0.420921,0.0,15.0,96.0,172.0,29.0,0.0
465793,1.079611,-1.285153,-0.702518,0.091031,0.24703200000000006,-0.001014,0.0,15.0,96.0,172.0,29.0,0.0
465794,1.068626,-1.283216,-0.695491,0.091274,0.357244,-0.482598,0.0,15.0,96.0,172.0,29.0,0.0
465795,1.099142,-1.277842,-0.670816,-0.165074,1.055789,0.045708,0.0,15.0,96.0,172.0,29.0,0.0
465796,1.096674,-1.260183,-0.681816,0.06448,-0.30705,0.199946,0.0,15.0,96.0,172.0,29.0,0.0
465797,1.056031,-1.238736,-0.725621,0.122379,-0.389983,0.036679,0.0,15.0,96.0,172.0,29.0,0.0
465798,1.013751,-1.224581,-0.775243,0.314649,-0.463949,-0.017,0.0,15.0,96.0,172.0,29.0,0.0
465799,0.992974,-1.2240209999999998,-0.803145,0.337376,-0.102446,0.123571,0.0,15.0,96.0,172.0,29.0,0.0
465800,0.984095,-1.234525,-0.8135359999999999,0.243091,-0.009879,0.20899,0.0,15.0,96.0,172.0,29.0,0.0
465801,0.998341,-1.254661,-0.801672,0.092533,0.218837,0.129204,0.0,15.0,96.0,172.0,29.0,0.0
465802,1.031204,-1.277073,-0.7695960000000001,0.07191399999999999,0.29688600000000004,0.084914,0.0,15.0,96.0,172.0,29.0,0.0
465803,1.05089,-1.295215,-0.756981,-0.161383,-0.047518,0.000408,0.0,15.0,96.0,172.0,29.0,0.0
465804,1.033462,-1.306262,-0.788462,-0.042728,-0.252705,-0.081911,0.0,15.0,96.0,172.0,29.0,0.0
465805,0.993191,-1.309337,-0.8467620000000001,-0.010654,-0.382197,-0.08678999999999999,0.0,15.0,96.0,172.0,29.0,0.0
465806,0.951728,-1.302331,-0.904565,0.0866,-0.402991,-0.053549,0.0,15.0,96.0,172.0,29.0,0.0
465807,0.920696,-1.281609,-0.947129,0.078733,-0.276591,0.070851,0.0,15.0,96.0,172.0,29.0,0.0
465808,0.8844290000000001,-1.246219,-0.988889,-0.005989,-0.0692,0.136892,0.0,15.0,96.0,172.0,29.0,0.0
465809,0.8235549999999999,-1.197387,-1.054163,-0.081235,-0.193357,0.197511,0.0,15.0,96.0,172.0,29.0,0.0
465810,0.750942,-1.138058,-1.127027,-0.142671,-0.26368600000000003,0.210159,0.0,15.0,96.0,172.0,29.0,0.0
465811,0.68686,-1.076746,-1.188966,-0.390242,-0.25169600000000003,0.176247,0.0,15.0,96.0,172.0,29.0,0.0
465812,0.649042,-1.0194379999999998,-1.22881,-0.406174,-0.223091,0.22690900000000006,0.0,15.0,96.0,172.0,29.0,0.0
465813,0.6259140000000001,-0.965531,-1.2577120000000002,-0.282928,-0.082223,0.093148,0.0,15.0,96.0,172.0,29.0,0.0
465814,0.598955,-0.913735,-1.294451,0.087001,-0.140835,0.140406,0.0,15.0,96.0,172.0,29.0,0.0
465815,0.5738800000000001,-0.867367,-1.332812,0.265293,0.143469,0.16261099999999998,0.0,15.0,96.0,172.0,29.0,0.0
465816,0.575711,-0.8377479999999999,-1.339351,0.035559,0.5951489999999999,-0.210821,0.0,15.0,96.0,172.0,29.0,0.0
465817,0.597826,-0.832259,-1.316386,0.533961,0.26277399999999995,-0.509184,0.0,15.0,96.0,172.0,29.0,0.0
465818,0.6250829999999999,-0.8519100000000001,-1.287012,0.236622,0.658837,-0.521947,0.0,15.0,96.0,172.0,29.0,0.0
465819,0.663945,-0.8856069999999999,-1.256137,0.249125,0.336739,-0.34477,0.0,15.0,96.0,172.0,29.0,0.0
465820,0.722685,-0.928601,-1.219504,0.096362,0.061553,-0.335283,0.0,15.0,96.0,172.0,29.0,0.0
465821,0.781997,-0.973855,-1.187158,0.054215999999999986,-0.13733099999999998,-0.269529,0.0,15.0,96.0,172.0,29.0,0.0
465822,0.814412,-1.013768,-1.169625,0.143403,-0.289565,-0.047584,0.0,15.0,96.0,172.0,29.0,0.0
465823,0.832584,-1.052624,-1.152524,0.30432,-0.623166,0.206937,0.0,15.0,96.0,172.0,29.0,0.0
465824,0.870848,-1.099784,-1.105525,0.128974,-0.7517510000000001,0.150316,0.0,15.0,96.0,172.0,29.0,0.0
465825,0.912186,-1.153349,-1.048527,-0.021213,-0.470722,0.116653,0.0,15.0,96.0,172.0,29.0,0.0
465826,0.953058,-1.196655,-0.992257,-0.218756,-0.174657,-0.047316,0.0,15.0,96.0,172.0,29.0,0.0
465827,0.999076,-1.219788,-0.929117,-0.403562,-0.31659,0.008870000000000001,0.0,15.0,96.0,172.0,29.0,0.0
465828,1.037424,-1.2347549999999998,-0.8664729999999999,-0.610046,-0.420859,0.028094,0.0,15.0,96.0,172.0,29.0,0.0
465829,1.061706,-1.251091,-0.814103,-0.532199,-0.385226,0.213412,0.0,15.0,96.0,172.0,29.0,0.0
465830,1.072181,-1.26593,-0.769412,-0.398522,-0.212463,0.127878,0.0,15.0,96.0,172.0,29.0,0.0
465831,1.074979,-1.281014,-0.732637,-0.130331,1.504737,0.44999,0.0,15.0,96.0,172.0,29.0,0.0
465832,1.097037,-1.287021,-0.715516,0.103061,1.7573869999999998,-0.043719,0.0,15.0,96.0,172.0,29.0,0.0
465833,1.167445,-1.271644,-0.6654899999999999,-0.233643,1.486842,-0.113016,0.0,15.0,96.0,172.0,29.0,0.0
465834,1.18092,-1.246403,-0.675723,0.08255,0.4920060000000001,0.310269,0.0,15.0,96.0,172.0,29.0,0.0
465835,1.154035,-1.2251450000000002,-0.7207279999999999,0.274693,-0.33825500000000003,0.080854,0.0,15.0,96.0,172.0,29.0,0.0
465836,1.133923,-1.215683,-0.75764,0.382543,-0.606842,-0.057025,0.0,15.0,96.0,172.0,29.0,0.0
465837,1.104189,-1.214921,-0.796554,0.395054,-0.521814,-0.042032,0.0,15.0,96.0,172.0,29.0,0.0
465838,1.074497,-1.224852,-0.8240700000000001,0.383891,-0.197485,0.067234,0.0,15.0,96.0,172.0,29.0,0.0
465839,1.044567,-1.242202,-0.84059,0.354813,-0.146967,0.155658,0.0,15.0,96.0,172.0,29.0,0.0
465840,1.035784,-1.262153,-0.829907,0.146152,0.221097,0.051367,0.0,15.0,96.0,172.0,29.0,0.0
465841,1.054017,-1.277301,-0.7981189999999999,-0.034204000000000005,0.129279,-0.004441,0.0,15.0,96.0,172.0,29.0,0.0
465842,1.07366,-1.283496,-0.7808729999999999,-0.275963,-0.11099,-0.066896,0.0,15.0,96.0,172.0,29.0,0.0
465843,1.058625,-1.283651,-0.8055399999999999,-0.232545,-0.322612,-0.071892,0.0,15.0,96.0,172.0,29.0,0.0
465844,1.023184,-1.278833,-0.8508549999999999,-0.102676,-0.371819,-0.009787,0.0,15.0,96.0,172.0,29.0,0.0
465845,0.98565,-1.267377,-0.896741,0.007866,-0.289022,0.02822,0.0,15.0,96.0,172.0,29.0,0.0
465846,0.958267,-1.247955,-0.929958,0.020216,-0.109501,0.165261,0.0,15.0,96.0,172.0,29.0,0.0
465847,0.934315,-1.2192040000000002,-0.961263,-0.049545,-0.22257800000000005,0.192679,0.0,15.0,96.0,172.0,29.0,0.0
465848,0.8890319999999999,-1.177957,-1.014118,-0.109867,-0.327818,0.109498,0.0,15.0,96.0,172.0,29.0,0.0
465849,0.8321,-1.127032,-1.078446,-0.274685,-0.330998,0.06793400000000001,0.0,15.0,96.0,172.0,29.0,0.0
465850,0.779866,-1.072039,-1.137234,-0.26877,-0.213856,0.094915,0.0,15.0,96.0,172.0,29.0,0.0
465851,0.7359,-1.016567,-1.184743,-0.312741,-0.106715,0.071291,0.0,15.0,96.0,172.0,29.0,0.0
465852,0.692334,-0.959945,-1.231098,-0.203617,0.070961,0.046497,0.0,15.0,96.0,172.0,29.0,0.0
465853,0.6458699999999999,-0.904448,-1.282373,0.390534,0.452777,0.008351,0.0,15.0,96.0,172.0,29.0,0.0
465854,0.6136520000000001,-0.862809,-1.322786,0.25827100000000003,0.6355,-0.116707,0.0,15.0,96.0,172.0,29.0,0.0
465855,0.620707,-0.843,-1.330324,-0.00073,0.5604100000000001,-0.33092,0.0,15.0,96.0,172.0,29.0,0.0
465856,0.649805,-0.843514,-1.308679,0.329137,0.6243850000000001,-0.384504,0.0,15.0,96.0,172.0,29.0,0.0
465857,0.673009,-0.858368,-1.286828,0.14877,0.60359,-0.349781,0.0,15.0,96.0,172.0,29.0,0.0
465858,0.701097,-0.883461,-1.268301,0.029495,0.050761,-0.266396,0.0,15.0,96.0,172.0,29.0,0.0
465859,0.742942,-0.920478,-1.24532,0.008479,-0.144585,-0.257234,0.0,15.0,96.0,172.0,29.0,0.0
465860,0.789654,-0.963728,-1.224634,0.033483,-0.229222,-0.23882,0.0,15.0,96.0,172.0,29.0,0.0
465861,0.816033,-1.003937,-1.2130610000000002,0.123664,-0.418054,-0.036695,0.0,15.0,96.0,172.0,29.0,0.0
465862,0.834348,-1.044447,-1.195892,0.235251,-0.581398,0.060903,0.0,15.0,96.0,172.0,29.0,0.0
465863,0.862427,-1.090641,-1.1553870000000002,0.219362,-0.678488,0.05841900000000001,0.0,15.0,96.0,172.0,29.0,0.0
465864,0.8951819999999999,-1.14085,-1.105031,0.01266,-0.110602,-0.09125,0.0,15.0,96.0,172.0,29.0,0.0
465865,0.934525,-1.175781,-1.051712,-0.05641,0.379546,-0.117721,0.0,15.0,96.0,172.0,29.0,0.0
465866,0.984424,-1.192748,-0.985804,-0.370531,-0.08109,0.005168,0.0,15.0,96.0,172.0,29.0,0.0
465867,1.028934,-1.2076870000000002,-0.923858,-0.673765,-0.325178,0.10738,0.0,15.0,96.0,172.0,29.0,0.0
465868,1.069769,-1.227356,-0.8658809999999999,-0.460425,-0.5861029999999999,0.178379,0.0,15.0,96.0,172.0,29.0,0.0
465869,1.1025049999999998,-1.248096,-0.817376,-0.28339699999999995,-0.5650970000000001,0.176899,0.0,15.0,96.0,172.0,29.0,0.0
465870,1.126296,-1.266339,-0.7766810000000001,-0.154645,-0.415878,0.113958,0.0,15.0,96.0,172.0,29.0,0.0
465871,1.162862,-1.286021,-0.732955,0.326147,1.471916,0.337015,0.0,15.0,96.0,172.0,29.0,0.0
465872,1.183306,-1.2887030000000002,-0.712093,0.459882,1.173284,0.192411,0.0,15.0,96.0,172.0,29.0,0.0
465873,1.19184,-1.276822,-0.680146,-0.070556,0.801064,-0.216191,0.0,15.0,96.0,172.0,29.0,0.0
465874,1.166103,-1.2631290000000002,-0.682395,0.011411,0.496115,0.229733,0.0,15.0,96.0,172.0,29.0,0.0
465875,1.122806,-1.246518,-0.7161069999999999,0.002599,0.5012770000000001,0.248509,0.0,15.0,96.0,172.0,29.0,0.0
465876,1.085067,-1.228985,-0.758722,0.02157,-0.4749100000000001,-0.033433,0.0,15.0,96.0,172.0,29.0,0.0
465877,1.050794,-1.217577,-0.800331,0.131399,-0.401856,-0.026812,0.0,15.0,96.0,172.0,29.0,0.0
465878,1.028992,-1.218696,-0.8243659999999999,0.20382,-0.031119,0.086618,0.0,15.0,96.0,172.0,29.0,0.0
465879,1.023351,-1.232823,-0.8261790000000001,0.101525,0.042106,0.267442,0.0,15.0,96.0,172.0,29.0,0.0
465880,1.039847,-1.254143,-0.802729,0.132301,0.175267,0.17437,0.0,15.0,96.0,172.0,29.0,0.0
465881,1.073214,-1.27215,-0.767813,0.113479,0.225661,0.116499,0.0,15.0,96.0,172.0,29.0,0.0
465882,1.09339,-1.280663,-0.75941,-0.239242,-0.010208,-0.097552,0.0,15.0,96.0,172.0,29.0,0.0
465883,1.065911,-1.283182,-0.805338,-0.154412,-0.224609,-0.125418,0.0,15.0,96.0,172.0,29.0,0.0
465884,1.00869,-1.280484,-0.8808219999999999,-0.077593,-0.364191,-0.068487,0.0,15.0,96.0,172.0,29.0,0.0
465885,0.956448,-1.272634,-0.952021,0.048267,-0.336722,-0.062551,0.0,15.0,96.0,172.0,29.0,0.0
465886,0.926425,-1.255552,-1.001223,0.055269000000000006,-0.14624700000000002,0.030106,0.0,15.0,96.0,172.0,29.0,0.0
465887,0.89991,-1.226468,-1.046361,0.019666,-0.075778,0.039437,0.0,15.0,96.0,172.0,29.0,0.0
465888,0.85613,-1.184562,-1.104663,-0.08064500000000001,-0.327701,0.100385,0.0,15.0,96.0,172.0,29.0,0.0
465889,0.8024220000000001,-1.1348790000000002,-1.167295,-0.22926,-0.341649,-0.005102000000000001,0.0,15.0,96.0,172.0,29.0,0.0
465890,0.751359,-1.08145,-1.224894,-0.276629,-0.25255900000000003,0.055462,0.0,15.0,96.0,172.0,29.0,0.0
465891,0.7037979999999999,-1.025952,-1.273508,-0.237257,-0.096175,0.085482,0.0,15.0,96.0,172.0,29.0,0.0
465892,0.65003,-0.966891,-1.320347,-0.032042,0.011043,0.07752300000000001,0.0,15.0,96.0,172.0,29.0,0.0
465893,0.595874,-0.907324,-1.364894,0.124152,0.07224900000000001,0.15174300000000002,0.0,15.0,96.0,172.0,29.0,0.0
465894,0.56038,-0.861964,-1.392611,0.032742,0.787921,0.071953,0.0,15.0,96.0,172.0,29.0,0.0
465895,0.576541,-0.8422620000000001,-1.382933,-0.014954,0.432499,-0.352934,0.0,15.0,96.0,172.0,29.0,0.0
465896,0.614974,-0.841807,-1.350859,0.191486,0.307176,-0.469005,0.0,15.0,96.0,172.0,29.0,0.0
465897,0.644598,-0.8512040000000001,-1.3245790000000002,0.18899999999999997,0.27324,-0.27208000000000004,0.0,15.0,96.0,172.0,29.0,0.0
465898,0.668209,-0.86945,-1.305308,0.0486,-0.05174,-0.095,0.0,15.0,96.0,172.0,29.0,0.0
465899,0.702006,-0.900294,-1.280162,0.005928,-0.115953,-0.116021,0.0,15.0,96.0,172.0,29.0,0.0
465900,0.743306,-0.937717,-1.253234,0.011911,-0.161846,-0.141086,0.0,15.0,96.0,172.0,29.0,0.0
465901,0.777655,-0.976841,-1.232338,0.187035,-0.256254,0.019029,0.0,15.0,96.0,172.0,29.0,0.0
465902,0.7985439999999999,-1.018193,-1.2154,0.203677,-0.27868200000000004,-0.013499,0.0,15.0,96.0,172.0,29.0,0.0
465903,0.818387,-1.06275,-1.18698,0.306895,-0.5824060000000001,0.099858,0.0,15.0,96.0,172.0,29.0,0.0
465904,0.846865,-1.113017,-1.138226,-0.035897000000000005,-0.545245,0.037161,0.0,15.0,96.0,172.0,29.0,0.0
465905,0.8753790000000001,-1.165416,-1.088419,-0.079391,-0.337852,-0.045416000000000005,0.0,15.0,96.0,172.0,29.0,0.0
465906,0.903965,-1.201152,-1.037611,-0.185963,0.271661,-0.161551,0.0,15.0,96.0,172.0,29.0,0.0
465907,0.94019,-1.219871,-0.97598,-0.454119,-0.15498199999999998,0.062764,0.0,15.0,96.0,172.0,29.0,0.0
465908,0.983401,-1.234677,-0.91358,-0.7130350000000001,-0.287883,0.0467,0.0,15.0,96.0,172.0,29.0,0.0
465909,1.0296040000000002,-1.249909,-0.8540690000000001,-0.510247,-0.25671,0.159606,0.0,15.0,96.0,172.0,29.0,0.0
465910,1.058494,-1.260734,-0.8161649999999999,-0.227231,-0.238753,0.244433,0.0,15.0,96.0,172.0,29.0,0.0
465911,1.076845,-1.269107,-0.7973359999999999,-0.114897,-0.16903900000000002,0.23482600000000006,0.0,15.0,96.0,172.0,29.0,0.0
465912,1.103293,-1.276708,-0.778722,0.076051,1.031413,0.364126,0.0,15.0,96.0,172.0,29.0,0.0
465913,1.100981,-1.2721,-0.779411,0.199072,0.5408609999999999,0.29572,0.0,15.0,96.0,172.0,29.0,0.0
465914,1.104275,-1.2685959999999998,-0.757046,0.16459200000000002,0.411191,-0.222392,0.0,15.0,96.0,172.0,29.0,0.0
465915,1.125674,-1.260246,-0.725698,0.058763,1.138945,0.100467,0.0,15.0,96.0,172.0,29.0,0.0
465916,1.1195959999999998,-1.241004,-0.734517,0.066353,0.13908,0.111907,0.0,15.0,96.0,172.0,29.0,0.0
465917,1.084491,-1.219638,-0.782699,0.039721,-0.045435,0.029501,0.0,15.0,96.0,172.0,29.0,0.0
465918,1.045643,-1.20812,-0.8335610000000001,0.249518,-0.27276500000000004,-0.154495,0.0,15.0,96.0,172.0,29.0,0.0
465919,1.016163,-1.208941,-0.862999,0.145759,-0.142715,0.209358,0.0,15.0,96.0,172.0,29.0,0.0
465920,1.008903,-1.22365,-0.860092,0.15879400000000002,-0.147821,0.204188,0.0,15.0,96.0,172.0,29.0,0.0
465921,1.022945,-1.249047,-0.8349190000000001,0.098617,0.225434,0.191431,0.0,15.0,96.0,172.0,29.0,0.0
465922,1.05675,-1.273985,-0.796262,-0.084824,0.200815,0.067444,0.0,15.0,96.0,172.0,29.0,0.0
465923,1.0743200000000002,-1.293138,-0.780964,-0.086174,0.042176,-0.053407,0.0,15.0,96.0,172.0,29.0,0.0
465924,1.058734,-1.30534,-0.802416,-0.046839,-0.229804,-0.052238,0.0,15.0,96.0,172.0,29.0,0.0
465925,1.018612,-1.311097,-0.850397,0.046334,-0.395575,-0.112431,0.0,15.0,96.0,172.0,29.0,0.0
465926,0.973147,-1.308586,-0.90272,0.094972,-0.390777,-0.1349,0.0,15.0,96.0,172.0,29.0,0.0
465927,0.934344,-1.297169,-0.945871,0.064928,-0.093138,0.025492,0.0,15.0,96.0,172.0,29.0,0.0
465928,0.893279,-1.279181,-0.987924,-0.06640499999999999,-0.148775,0.131304,0.0,15.0,96.0,172.0,29.0,0.0
465929,0.839528,-1.254675,-1.042244,-0.148071,-0.256158,0.107776,0.0,15.0,96.0,172.0,29.0,0.0
465930,0.77662,-1.221117,-1.107993,-0.216804,-0.296889,0.264407,0.0,15.0,96.0,172.0,29.0,0.0
465931,0.709248,-1.178359,-1.179466,-0.250541,-0.490508,0.222319,0.0,15.0,96.0,172.0,29.0,0.0
465932,0.648014,-1.128462,-1.2477280000000002,-0.26514,-0.501564,0.188527,0.0,15.0,96.0,172.0,29.0,0.0
465933,0.605995,-1.0762969999999998,-1.299412,-0.217745,-0.316944,0.120833,0.0,15.0,96.0,172.0,29.0,0.0
465934,0.581074,-1.021695,-1.332561,-0.103094,-0.112882,-0.041988,0.0,15.0,96.0,172.0,29.0,0.0
465935,0.564609,-0.962739,-1.3550950000000002,-0.144102,0.055202,-0.068573,0.0,15.0,96.0,172.0,29.0,0.0
465936,0.5668890000000001,-0.911652,-1.361882,0.317235,0.612743,0.061709,0.0,15.0,96.0,172.0,29.0,0.0
465937,0.584838,-0.8816120000000001,-1.3512110000000002,0.029587,0.8412879999999999,-0.226101,0.0,15.0,96.0,172.0,29.0,0.0
465938,0.605748,-0.8680770000000001,-1.332471,0.193633,0.544392,-0.409665,0.0,15.0,96.0,172.0,29.0,0.0
465939,0.6205350000000001,-0.8737719999999999,-1.31431,0.471003,0.650542,-0.453513,0.0,15.0,96.0,172.0,29.0,0.0
465940,0.637143,-0.8961540000000001,-1.293894,0.493484,0.267303,-0.232099,0.0,15.0,96.0,172.0,29.0,0.0
465941,0.6595989999999999,-0.925763,-1.269204,0.38757,0.101433,-0.181755,0.0,15.0,96.0,172.0,29.0,0.0
465942,0.6860539999999999,-0.96043,-1.245161,0.13456,-0.207652,-0.144072,0.0,15.0,96.0,172.0,29.0,0.0
465943,0.701469,-0.997818,-1.231298,0.07949500000000001,-0.38126,0.068472,0.0,15.0,96.0,172.0,29.0,0.0
465944,0.701627,-1.038281,-1.225782,0.142458,-0.506033,0.17640699999999998,0.0,15.0,96.0,172.0,29.0,0.0
465945,0.709403,-1.086058,-1.2072969999999998,0.152793,-0.5975659999999999,0.189351,0.0,15.0,96.0,172.0,29.0,0.0
465946,0.7216239999999999,-1.140873,-1.176396,-0.08063,-0.342591,-0.015473,0.0,15.0,96.0,172.0,29.0,0.0
465947,0.728905,-1.192475,-1.146458,-0.051301,-0.36288,-0.052874,0.0,15.0,96.0,172.0,29.0,0.0
465948,0.7429520000000001,-1.230361,-1.106988,-0.24081,0.036257,-0.110217,0.0,15.0,96.0,172.0,29.0,0.0
465949,0.774038,-1.257045,-1.048905,-0.5260279999999999,-0.011134,0.044932,0.0,15.0,96.0,172.0,29.0,0.0
465950,0.804145,-1.279629,-0.996963,-0.517044,-0.017861000000000002,0.023381,0.0,15.0,96.0,172.0,29.0,0.0
465951,0.825011,-1.298921,-0.962059,-0.47545,-0.278897,0.185646,0.0,15.0,96.0,172.0,29.0,0.0
465952,0.8550399999999999,-1.3119610000000002,-0.925902,-0.187841,-0.4371020000000001,0.231503,0.0,15.0,96.0,172.0,29.0,0.0
465953,0.902643,-1.320881,-0.8818020000000001,-0.13863399999999998,-0.442414,0.214943,0.0,15.0,96.0,172.0,29.0,0.0
465954,0.966623,-1.326811,-0.8311930000000001,-0.017399,-0.21305900000000005,0.176307,0.0,15.0,96.0,172.0,29.0,0.0
465955,1.017834,-1.327396,-0.7929430000000001,-0.029324,0.8980670000000001,0.027577,0.0,15.0,96.0,172.0,29.0,0.0
465956,1.041122,-1.323723,-0.77075,0.235048,0.799136,0.240129,0.0,15.0,96.0,172.0,29.0,0.0
465957,1.0600690000000002,-1.323616,-0.732164,0.150471,0.588576,0.139785,0.0,15.0,96.0,172.0,29.0,0.0
465958,1.042623,-1.325893,-0.716767,0.111422,0.061729999999999986,0.147077,0.0,15.0,96.0,172.0,29.0,0.0
465959,1.027498,-1.3310879999999998,-0.717737,0.276272,-0.001208,-0.261725,0.0,15.0,96.0,172.0,29.0,0.0
465960,1.085654,-1.332852,-0.6738810000000001,0.242786,0.637337,-0.071739,0.0,15.0,96.0,172.0,29.0,0.0
465961,1.09812,-1.326069,-0.672567,0.12048699999999997,0.284771,-0.06228400000000001,0.0,15.0,96.0,172.0,29.0,0.0
465962,1.0790799999999998,-1.321237,-0.690168,0.200953,-0.159924,0.105636,0.0,15.0,96.0,172.0,29.0,0.0
465963,1.054922,-1.323883,-0.704451,0.25760900000000003,-0.173727,0.110953,0.0,15.0,96.0,172.0,29.0,0.0
465964,1.04422,-1.335985,-0.700593,0.252305,-0.113626,0.164503,0.0,15.0,96.0,172.0,29.0,0.0
465965,1.049956,-1.3541,-0.679427,0.161577,-0.050923,0.093068,0.0,15.0,96.0,172.0,29.0,0.0
465966,1.054229,-1.3724040000000002,-0.662886,0.06115900000000001,-0.100136,-0.027463,0.0,15.0,96.0,172.0,29.0,0.0
465967,1.036004,-1.387033,-0.6725979999999999,0.069492,-0.231485,0.026365,0.0,15.0,96.0,172.0,29.0,0.0
465968,0.983853,-1.398456,-0.719069,0.073745,-0.279589,0.0203,0.0,15.0,96.0,172.0,29.0,0.0
465969,0.911272,-1.408752,-0.787791,0.164777,-0.273429,0.007654,0.0,15.0,96.0,172.0,29.0,0.0
465970,0.847223,-1.420048,-0.848203,0.214473,-0.176266,0.007441,0.0,15.0,96.0,172.0,29.0,0.0
465971,0.790606,-1.430373,-0.902066,0.205598,-0.114195,-0.020914,0.0,15.0,96.0,172.0,29.0,0.0
465972,0.709354,-1.434321,-0.983059,0.089615,-0.12574200000000002,-0.123267,0.0,15.0,96.0,172.0,29.0,0.0
465973,0.5918100000000001,-1.430269,-1.09892,0.08560599999999999,-0.23944,-0.1006,0.0,15.0,96.0,172.0,29.0,0.0
465974,0.461682,-1.417706,-1.223275,0.134731,-0.283852,-0.04995,0.0,15.0,96.0,172.0,29.0,0.0
465975,0.343433,-1.395003,-1.329,0.360376,-0.216567,0.009225,0.0,15.0,96.0,172.0,29.0,0.0
465976,0.277441,-1.361904,-1.380257,0.38451,0.188517,0.065227,0.0,15.0,96.0,172.0,29.0,0.0
465977,0.274581,-1.3178219999999998,-1.36882,0.300385,0.251417,0.113746,0.0,15.0,96.0,172.0,29.0,0.0
465978,0.292873,-1.259811,-1.326557,0.124508,0.27367600000000003,0.082086,0.0,15.0,96.0,172.0,29.0,0.0
465979,0.317734,-1.197423,-1.267906,0.003496,0.499638,0.15495699999999998,0.0,15.0,96.0,172.0,29.0,0.0
465980,0.342024,-1.140941,-1.208199,-0.110441,0.63434,0.14290899999999998,0.0,15.0,96.0,172.0,29.0,0.0
465981,0.369153,-1.104846,-1.158093,-0.218684,1.13903,0.17763099999999998,0.0,15.0,96.0,172.0,29.0,0.0
465982,0.407939,-1.089383,-1.108801,0.045956,0.610881,0.124076,0.0,15.0,96.0,172.0,29.0,0.0
465983,0.448679,-1.076117,-1.055221,0.45032,0.378409,0.136626,0.0,15.0,96.0,172.0,29.0,0.0
465984,0.487055,-1.059899,-0.998259,0.30981,0.22480100000000006,0.07589,0.0,15.0,96.0,172.0,29.0,0.0
465985,0.524608,-1.045853,-0.942295,0.176583,0.19373,-0.047488,0.0,15.0,96.0,172.0,29.0,0.0
465986,0.5585060000000001,-1.036365,-0.8851969999999999,0.177126,0.174537,-0.109436,0.0,15.0,96.0,172.0,29.0,0.0
465987,0.582763,-1.029242,-0.8257180000000001,0.190279,0.033747000000000006,-0.040018,0.0,15.0,96.0,172.0,29.0,0.0
465988,0.586194,-1.025088,-0.7688649999999999,0.117823,-0.03872,0.169639,0.0,15.0,96.0,172.0,29.0,0.0
465989,0.5661649999999999,-1.027857,-0.71825,0.064501,-0.11071,0.28216,0.0,15.0,96.0,172.0,29.0,0.0
465990,0.533737,-1.0379200000000002,-0.671284,-0.025111,-0.367315,0.407301,0.0,15.0,96.0,172.0,29.0,0.0
465991,0.496305,-1.052173,-0.628052,-0.023185,-0.356097,0.4100220000000001,0.0,15.0,96.0,172.0,29.0,0.0
465992,0.457575,-1.068582,-0.59099,-0.016118,-0.350716,0.375883,0.0,15.0,96.0,172.0,29.0,0.0
465993,0.422181,-1.085916,-0.557764,-0.019503,-0.334743,0.354931,0.0,15.0,96.0,172.0,29.0,0.0
465994,0.393349,-1.10387,-0.5289050000000001,-0.067807,-0.019253,0.227782,0.0,15.0,96.0,172.0,29.0,0.0
465995,0.376035,-1.120097,-0.499004,0.007397,0.10146,0.186718,0.0,15.0,96.0,172.0,29.0,0.0
465996,0.380968,-1.133807,-0.461288,0.064844,0.222769,0.146353,0.0,15.0,96.0,172.0,29.0,0.0
465997,0.393073,-1.135145,-0.42526,-0.056027,0.318105,-0.05938300000000001,0.0,15.0,96.0,172.0,29.0,0.0
465998,0.397085,-1.120845,-0.402629,-0.025005,0.170439,-0.073006,0.0,15.0,96.0,172.0,29.0,0.0
465999,0.401793,-1.100311,-0.382904,0.057757,0.03425,-0.078277,0.0,15.0,96.0,172.0,29.0,0.0
466000,0.408285,-1.085564,-0.358202,0.357333,-0.382934,-0.148259,0.0,15.0,96.0,172.0,29.0,0.0
466001,0.421076,-1.082398,-0.325326,0.259313,-0.39897,-0.164298,0.0,15.0,96.0,172.0,29.0,0.0
466002,0.437379,-1.087806,-0.28775100000000003,0.277012,-0.332052,-0.230926,0.0,15.0,96.0,172.0,29.0,0.0
466003,0.458675,-1.093509,-0.24353400000000006,0.527174,0.513596,0.041366,0.0,15.0,96.0,172.0,29.0,0.0
466004,0.495473,-1.102658,-0.181068,0.545908,0.765595,0.144024,0.0,15.0,96.0,172.0,29.0,0.0
466005,0.536488,-1.114379,-0.114232,0.441409,0.918006,0.177954,0.0,15.0,96.0,172.0,29.0,0.0
466006,0.556724,-1.120429,-0.071008,-0.133602,0.34736300000000003,0.268325,0.0,15.0,96.0,172.0,29.0,0.0
466007,0.54842,-1.122621,-0.047892,-0.25011700000000003,0.023428,0.286131,0.0,15.0,96.0,172.0,29.0,0.0
466008,0.51758,-1.125364,-0.038766,-0.24599,-0.07634400000000001,0.335312,0.0,15.0,96.0,172.0,29.0,0.0
466009,0.46899,-1.13421,-0.042923,-0.074477,-0.209103,0.466413,0.0,15.0,96.0,172.0,29.0,0.0
466010,0.413235,-1.151463,-0.049593,0.077257,-0.245499,0.492131,0.0,15.0,96.0,172.0,29.0,0.0
466011,0.373236,-1.1812,-0.041213,0.24678200000000006,-0.141722,0.644729,0.0,15.0,96.0,172.0,29.0,0.0
466012,0.35735700000000004,-1.219272,-0.018793,0.161633,0.002252,0.491171,0.0,15.0,96.0,172.0,29.0,0.0
466013,0.356847,-1.255764,0.009692,0.106675,0.099384,0.388561,0.0,15.0,96.0,172.0,29.0,0.0
466014,0.375342,-1.290249,0.052294000000000014,-0.143425,0.235553,0.230119,0.0,15.0,96.0,172.0,29.0,0.0
466015,0.399099,-1.321315,0.100719,-0.24420300000000006,0.148696,0.142894,0.0,15.0,96.0,172.0,29.0,0.0
466016,0.40002,-1.347369,0.127973,-0.185917,0.095001,0.08746,0.0,15.0,96.0,172.0,29.0,0.0
466017,0.377569,-1.369198,0.13228299999999998,0.106827,0.100925,0.008228000000000001,0.0,15.0,96.0,172.0,29.0,0.0
466018,0.340438,-1.387682,0.119366,0.157993,0.090541,-0.014002,0.0,15.0,96.0,172.0,29.0,0.0
466019,0.299845,-1.402216,0.100135,0.186049,0.090302,-0.010092,0.0,15.0,96.0,172.0,29.0,0.0
466020,0.264214,-1.410984,0.085333,0.149021,-0.0697,0.058689,0.0,15.0,96.0,172.0,29.0,0.0
466021,0.23168,-1.414396,0.07302,0.19418,-0.12905999999999998,0.117013,0.0,15.0,96.0,172.0,29.0,0.0
466022,0.203563,-1.415516,0.061802,0.209786,-0.162925,0.141335,0.0,15.0,96.0,172.0,29.0,0.0
466023,0.176887,-1.418208,0.047633,0.249522,-0.130196,0.092482,0.0,15.0,96.0,172.0,29.0,0.0
466024,0.147421,-1.427113,0.02856,0.286546,-0.066691,0.04993,0.0,15.0,96.0,172.0,29.0,0.0
466025,0.102901,-1.442533,-0.00433,0.30032800000000004,-0.018778,-0.030898,0.0,15.0,96.0,172.0,29.0,0.0
466026,0.038719,-1.460717,-0.053797000000000005,0.236534,0.002345,-0.120973,0.0,15.0,96.0,172.0,29.0,0.0
466027,-0.06465,-1.475558,-0.137843,0.253621,-0.006729000000000001,-0.161133,0.0,15.0,96.0,172.0,29.0,0.0
466028,-0.175897,-1.482588,-0.228645,0.252004,-0.014163,-0.156132,0.0,15.0,96.0,172.0,29.0,0.0
466029,-0.23086,-1.4786,-0.263475,0.192083,-0.039424,-0.020305,0.0,15.0,96.0,172.0,29.0,0.0
466030,-0.245849,-1.46375,-0.25566500000000003,0.227875,-0.024076,0.138518,0.0,15.0,96.0,172.0,29.0,0.0
466031,-0.234137,-1.442047,-0.212939,0.278539,-0.005792,0.223101,0.0,15.0,96.0,172.0,29.0,0.0
466032,-0.17698699999999998,-1.418134,-0.117718,0.242464,0.05788,0.277884,0.0,15.0,96.0,172.0,29.0,0.0
466033,-0.070965,-1.393082,0.0266,0.202489,-0.023374,0.270687,0.0,15.0,96.0,172.0,29.0,0.0
466034,0.051121,-1.3624459999999998,0.185067,0.163977,0.132772,0.160676,0.0,15.0,96.0,172.0,29.0,0.0
466035,0.16078199999999998,-1.324017,0.323964,0.048193,0.427604,0.108094,0.0,15.0,96.0,172.0,29.0,0.0
466036,0.244964,-1.281641,0.427312,0.006520000000000001,0.395839,0.117675,0.0,15.0,96.0,172.0,29.0,0.0
466037,0.311747,-1.243094,0.507296,0.054952,0.344125,0.054552,0.0,15.0,96.0,172.0,29.0,0.0
466038,0.35977,-1.210068,0.5713689999999999,0.073056,0.30937,0.18331,0.0,15.0,96.0,172.0,29.0,0.0
466039,0.380543,-1.183873,0.617476,0.257892,0.132275,0.206184,0.0,15.0,96.0,172.0,29.0,0.0
466040,0.38967,-1.164169,0.6599659999999999,0.231333,0.015118,0.150779,0.0,15.0,96.0,172.0,29.0,0.0
466041,0.404764,-1.150255,0.708814,0.148255,-0.049038,-0.001867,0.0,15.0,96.0,172.0,29.0,0.0
466042,0.422326,-1.139072,0.763388,0.114902,-0.045972000000000006,-0.07646900000000001,0.0,15.0,96.0,172.0,29.0,0.0
466043,0.427711,-1.132019,0.820407,0.095563,-0.100935,-0.005751,0.0,15.0,96.0,172.0,29.0,0.0
466044,0.424524,-1.130194,0.8820620000000001,0.123246,-0.167404,0.044226,0.0,15.0,96.0,172.0,29.0,0.0
466045,0.425503,-1.131305,0.953024,0.209431,-0.174026,0.127627,0.0,15.0,96.0,172.0,29.0,0.0
466046,0.429798,-1.131753,1.026491,0.205542,-0.15078,0.126866,0.0,15.0,96.0,172.0,29.0,0.0
466047,0.426967,-1.129709,1.092553,0.186111,-0.135001,0.133627,0.0,15.0,96.0,172.0,29.0,0.0
466048,0.419211,-1.126519,1.150041,0.054457000000000005,-0.08190700000000001,0.220932,0.0,15.0,96.0,172.0,29.0,0.0
466049,0.415323,-1.124153,1.201331,0.030846,-0.120149,0.232902,0.0,15.0,96.0,172.0,29.0,0.0
466050,0.420917,-1.1236700000000002,1.247825,0.030398,-0.14115,0.249301,0.0,15.0,96.0,172.0,29.0,0.0
466051,0.439859,-1.129292,1.296972,0.072297,-0.174557,0.275868,0.0,15.0,96.0,172.0,29.0,0.0
466052,0.471913,-1.143723,1.356473,0.068927,-0.138484,0.147108,0.0,15.0,96.0,172.0,29.0,0.0
466053,0.513346,-1.16574,1.424681,0.052986,-0.102811,0.023533,0.0,15.0,96.0,172.0,29.0,0.0
466054,0.5516260000000001,-1.189068,1.489674,0.12248,0.133608,-0.230624,0.0,15.0,96.0,172.0,29.0,0.0
466055,0.5686329999999999,-1.202705,1.535975,0.18396,0.148588,-0.229181,0.0,15.0,96.0,172.0,29.0,0.0
466056,0.570719,-1.204242,1.569584,0.182364,-0.130772,-0.123067,0.0,15.0,96.0,172.0,29.0,0.0
466057,0.580693,-1.202666,1.610474,0.075195,-0.043125,-0.259876,0.0,15.0,96.0,172.0,29.0,0.0
466058,0.6152,-1.204703,1.673138,0.088033,0.246931,-0.12678599999999998,0.0,15.0,96.0,172.0,29.0,0.0
466059,0.65699,-1.208868,1.7451290000000002,0.012185,0.845302,0.410944,0.0,15.0,96.0,172.0,29.0,0.0
466060,0.6942149999999999,-1.208381,1.813893,-0.228584,0.478256,0.431433,0.0,15.0,96.0,172.0,29.0,0.0
466061,0.715093,-1.206681,1.862961,-0.387074,0.06374500000000001,0.408093,0.0,15.0,96.0,172.0,29.0,0.0
466062,0.720867,-1.214699,1.89896,-0.33475,-0.431558,0.300624,0.0,15.0,96.0,172.0,29.0,0.0
466063,0.711728,-1.2328370000000002,1.924452,-0.276147,-0.446088,0.31725,0.0,15.0,96.0,172.0,29.0,0.0
466064,0.678998,-1.253128,1.927689,-0.181761,-0.279739,0.231508,0.0,15.0,96.0,172.0,29.0,0.0
466065,0.639967,-1.274293,1.920686,-0.21945,0.188732,0.13561900000000002,0.0,15.0,96.0,172.0,29.0,0.0
466066,0.629203,-1.301205,1.930271,-0.0052060000000000006,0.40224,0.164609,0.0,15.0,96.0,172.0,29.0,0.0
466067,0.653332,-1.322162,1.95874,0.041952,0.38329,0.127237,0.0,15.0,96.0,172.0,29.0,0.0
466068,0.6973630000000001,-1.334055,1.996173,0.023121,0.099472,0.122951,0.0,15.0,96.0,172.0,29.0,0.0
466069,0.738546,-1.342454,2.023871,-0.046902,-0.057051,0.061359,0.0,15.0,96.0,172.0,29.0,0.0
466070,0.7641600000000001,-1.350998,2.034043,-0.07637999999999999,-0.126469,0.043788,0.0,15.0,96.0,172.0,29.0,0.0
466071,0.781109,-1.361076,2.035973,-0.036157,-0.28737,0.082403,0.0,15.0,96.0,172.0,29.0,0.0
466072,0.792987,-1.371716,2.032591,0.036202,-0.297128,0.109427,0.0,15.0,96.0,172.0,29.0,0.0
466073,0.8066369999999999,-1.381317,2.026497,0.118517,-0.2128,0.127918,0.0,15.0,96.0,172.0,29.0,0.0
466074,0.8375819999999999,-1.388891,2.029667,0.189494,-0.143947,0.064696,0.0,15.0,96.0,172.0,29.0,0.0
466075,0.885395,-1.392516,2.045791,0.264201,-0.028279,0.016616,0.0,15.0,96.0,172.0,29.0,0.0
466076,0.935829,-1.390547,2.068712,0.274949,-0.085789,-0.00541,0.0,15.0,96.0,172.0,29.0,0.0
466077,0.97255,-1.383026,2.0874200000000003,0.30145500000000003,-0.16355999999999998,-0.09684,0.0,15.0,96.0,172.0,29.0,0.0
466078,0.978796,-1.372103,2.086906,0.22205,-0.206033,-0.130275,0.0,15.0,96.0,172.0,29.0,0.0
466079,0.944973,-1.35897,2.053358,0.101354,-0.288333,-0.10538,0.0,15.0,96.0,172.0,29.0,0.0
466080,0.881244,-1.343909,1.99256,0.054101,-0.28298,-0.027397,0.0,15.0,96.0,172.0,29.0,0.0
466081,0.812825,-1.325039,1.925645,-0.038834,-0.263334,0.193553,0.0,15.0,96.0,172.0,29.0,0.0
466082,0.751649,-1.300889,1.863973,-0.044227,-0.257176,0.221103,0.0,15.0,96.0,172.0,29.0,0.0
466083,0.687729,-1.268326,1.79985,-0.093525,-0.348403,0.191181,0.0,15.0,96.0,172.0,29.0,0.0
466084,0.617417,-1.222847,1.729968,-0.024827,-0.365611,0.06661,0.0,15.0,96.0,172.0,29.0,0.0
466085,0.555012,-1.163384,1.668355,-0.0891,-0.30595100000000003,0.029007,0.0,15.0,96.0,172.0,29.0,0.0
466086,0.518656,-1.098717,1.6306889999999998,-0.158673,-0.259628,0.00218,0.0,15.0,96.0,172.0,29.0,0.0
466087,0.516938,-1.038919,1.621619,-0.07147200000000001,-0.213724,0.159338,0.0,15.0,96.0,172.0,29.0,0.0
466088,0.524157,-0.985909,1.625094,-0.097147,-0.185642,0.196437,0.0,15.0,96.0,172.0,29.0,0.0
466089,0.536274,-0.932009,1.62507,0.001478,0.294166,-0.170801,0.0,15.0,96.0,172.0,29.0,0.0
466090,0.572317,-0.8856370000000001,1.629779,0.464895,0.722676,-0.374769,0.0,15.0,96.0,172.0,29.0,0.0
466091,0.626761,-0.8691629999999999,1.665701,0.389351,0.6216020000000001,-0.308871,0.0,15.0,96.0,172.0,29.0,0.0
466092,0.675556,-0.8715870000000001,1.708291,0.313825,1.026351,-0.40933,0.0,15.0,96.0,172.0,29.0,0.0
466093,0.7052729999999999,-0.889335,1.7355200000000002,0.153898,0.072163,-0.145035,0.0,15.0,96.0,172.0,29.0,0.0
466094,0.740487,-0.922665,1.756598,0.135431,-0.18735,-0.201212,0.0,15.0,96.0,172.0,29.0,0.0
466095,0.7843640000000001,-0.969986,1.780994,0.06665700000000001,-0.434909,-0.27478400000000003,0.0,15.0,96.0,172.0,29.0,0.0
466096,0.816088,-1.024625,1.796477,0.192089,-0.649868,-0.033233,0.0,15.0,96.0,172.0,29.0,0.0
466097,0.816152,-1.077939,1.792814,0.250377,-0.64365,0.049193,0.0,15.0,96.0,172.0,29.0,0.0
466098,0.8113199999999999,-1.129406,1.79608,0.277442,-0.54605,-0.002801,0.0,15.0,96.0,172.0,29.0,0.0
466099,0.8241959999999999,-1.176705,1.830626,-0.037943,-0.377279,-0.054804999999999986,0.0,15.0,96.0,172.0,29.0,0.0
466100,0.8682290000000001,-1.215441,1.894386,-0.1353,-0.35277600000000003,-0.097684,0.0,15.0,96.0,172.0,29.0,0.0
466101,0.925175,-1.239136,1.961982,-0.309225,-0.023003,0.03267,0.0,15.0,96.0,172.0,29.0,0.0
466102,0.98093,-1.249861,2.033041,-0.60547,-0.436337,0.053986,0.0,15.0,96.0,172.0,29.0,0.0
466103,1.012664,-1.26218,2.088906,-0.563721,-0.561397,0.054360000000000006,0.0,15.0,96.0,172.0,29.0,0.0
466104,1.026841,-1.277685,2.134979,-0.365895,-0.187803,0.334058,0.0,15.0,96.0,172.0,29.0,0.0
466105,1.034964,-1.298333,2.180318,-0.114258,1.070779,0.262016,0.0,15.0,96.0,172.0,29.0,0.0
466106,1.037261,-1.318916,2.198243,0.020312,1.32283,0.414093,0.0,15.0,96.0,172.0,29.0,0.0
466107,1.127352,-1.3353270000000002,2.289119,-0.11758699999999997,2.482139,0.064351,0.0,15.0,96.0,172.0,29.0,0.0
466108,1.225175,-1.328161,2.3624,-0.13305799999999998,0.388591,0.308209,0.0,15.0,96.0,172.0,29.0,0.0
466109,1.200779,-1.305902,2.325893,0.356932,-0.489443,-0.033428,0.0,15.0,96.0,172.0,29.0,0.0
466110,1.166434,-1.282872,2.27712,0.502264,-0.610035,-0.452269,0.0,15.0,96.0,172.0,29.0,0.0
466111,1.146183,-1.271313,2.250423,0.439429,-0.730636,-0.313114,0.0,15.0,96.0,172.0,29.0,0.0
466112,1.125413,-1.268262,2.233227,0.324665,-0.524546,-0.242047,0.0,15.0,96.0,172.0,29.0,0.0
466113,1.097338,-1.275877,2.21611,0.294141,-0.10981,0.131043,0.0,15.0,96.0,172.0,29.0,0.0
466114,1.066891,-1.291284,2.199188,0.003695,-0.021264,0.243277,0.0,15.0,96.0,172.0,29.0,0.0
466115,1.051983,-1.308842,2.2003470000000003,-0.039978,0.213725,0.197718,0.0,15.0,96.0,172.0,29.0,0.0
466116,1.062058,-1.325427,2.222867,-0.103806,-0.073685,0.148472,0.0,15.0,96.0,172.0,29.0,0.0
466117,1.0699459999999998,-1.33396,2.228031,-0.160147,-0.235605,-0.135688,0.0,15.0,96.0,172.0,29.0,0.0
466118,1.033122,-1.332064,2.183451,-0.034532,-0.518666,-0.182116,0.0,15.0,96.0,172.0,29.0,0.0
466119,0.974953,-1.314874,2.122336,0.10926199999999997,-0.352104,-0.110973,0.0,15.0,96.0,172.0,29.0,0.0
466120,0.905791,-1.275813,2.049567,-0.016874,0.042339,0.023391,0.0,15.0,96.0,172.0,29.0,0.0
466121,0.8290549999999999,-1.222849,1.969568,-0.073632,-0.051266,0.128409,0.0,15.0,96.0,172.0,29.0,0.0
466122,0.7565890000000001,-1.161635,1.902106,-0.253967,-0.129704,0.16636800000000002,0.0,15.0,96.0,172.0,29.0,0.0
466123,0.701661,-1.0975549999999998,1.854101,-0.439071,-0.12723299999999998,0.151687,0.0,15.0,96.0,172.0,29.0,0.0
466124,0.671887,-1.033315,1.825321,-0.463562,-0.096138,0.204278,0.0,15.0,96.0,172.0,29.0,0.0
466125,0.657516,-0.969549,1.802225,-0.281697,-0.06765800000000001,0.10688,0.0,15.0,96.0,172.0,29.0,0.0
466126,0.649388,-0.911827,1.770949,0.34317,0.327708,-0.182348,0.0,15.0,96.0,172.0,29.0,0.0
466127,0.6426,-0.868712,1.738725,0.326408,0.35483400000000004,-0.153021,0.0,15.0,96.0,172.0,29.0,0.0
466128,0.645207,-0.8507450000000001,1.732031,0.56985,0.628782,-0.554333,0.0,15.0,96.0,172.0,29.0,0.0
466129,0.646278,-0.854999,1.7377209999999998,0.337298,0.334724,-0.415699,0.0,15.0,96.0,172.0,29.0,0.0
466130,0.659794,-0.8807,1.756887,0.342273,0.31811,-0.4365810000000001,0.0,15.0,96.0,172.0,29.0,0.0
466131,0.686759,-0.914111,1.787769,0.196166,0.086245,-0.228681,0.0,15.0,96.0,172.0,29.0,0.0
466132,0.723928,-0.950716,1.822765,0.018672,-0.219258,-0.265933,0.0,15.0,96.0,172.0,29.0,0.0
466133,0.749033,-0.989243,1.843341,0.061654,-0.294625,-0.238702,0.0,15.0,96.0,172.0,29.0,0.0
466134,0.747829,-1.028864,1.844397,0.200512,-0.476556,-0.05769700000000001,0.0,15.0,96.0,172.0,29.0,0.0
466135,0.739798,-1.068359,1.845356,0.357602,-0.631783,0.086131,0.0,15.0,96.0,172.0,29.0,0.0
466136,0.750239,-1.108754,1.869919,0.290049,-0.753252,0.187631,0.0,15.0,96.0,172.0,29.0,0.0
466137,0.800775,-1.154972,1.931832,-0.198611,-0.874317,0.13158399999999998,0.0,15.0,96.0,172.0,29.0,0.0
466138,0.857447,-1.203734,1.992701,-0.274915,-0.251394,-0.060935,0.0,15.0,96.0,172.0,29.0,0.0
466139,0.917847,-1.23015,2.05946,-0.291358,0.284817,-0.265314,0.0,15.0,96.0,172.0,29.0,0.0
466140,0.988107,-1.2431219999999998,2.141097,-0.6845640000000001,-0.164872,0.004543,0.0,15.0,96.0,172.0,29.0,0.0
466141,1.05031,-1.25949,2.215892,-0.769217,-0.404205,0.12236199999999997,0.0,15.0,96.0,172.0,29.0,0.0
466142,1.104531,-1.280166,2.281784,-0.349193,-0.3771,0.149167,0.0,15.0,96.0,172.0,29.0,0.0
466143,1.122477,-1.298538,2.314716,-0.06836,0.076141,-0.014022,0.0,15.0,96.0,172.0,29.0,0.0
466144,1.134021,-1.318253,2.339243,0.4947,1.354184,0.560231,0.0,15.0,96.0,172.0,29.0,0.0
466145,1.179821,-1.322779,2.379632,0.707746,1.378927,0.364735,0.0,15.0,96.0,172.0,29.0,0.0
466146,1.2048450000000002,-1.319416,2.426454,0.24595100000000006,1.185635,0.159022,0.0,15.0,96.0,172.0,29.0,0.0
466147,1.203922,-1.310782,2.450402,0.008361,0.598525,0.193483,0.0,15.0,96.0,172.0,29.0,0.0
466148,1.156799,-1.297674,2.412718,0.013584,0.038181,0.220025,0.0,15.0,96.0,172.0,29.0,0.0
466149,1.116771,-1.284569,2.361342,0.046857,-0.33369,-0.228263,0.0,15.0,96.0,172.0,29.0,0.0
466150,1.087754,-1.27985,2.323396,0.101771,-0.179729,-0.110424,0.0,15.0,96.0,172.0,29.0,0.0
466151,1.062032,-1.283212,2.296037,0.128955,-0.123269,-0.089834,0.0,15.0,96.0,172.0,29.0,0.0
466152,1.052903,-1.294749,2.292504,0.007166,-0.249204,0.325804,0.0,15.0,96.0,172.0,29.0,0.0
466153,1.079415,-1.312843,2.328968,0.129642,-0.07471799999999999,0.153346,0.0,15.0,96.0,172.0,29.0,0.0
466154,1.1286459999999998,-1.328994,2.379723,0.188827,0.132745,0.108321,0.0,15.0,96.0,172.0,29.0,0.0
466155,1.171015,-1.337464,2.410695,0.01235,0.032821,0.019015,0.0,15.0,96.0,172.0,29.0,0.0
466156,1.171579,-1.339743,2.397777,-0.036805,-0.19805,-0.056018,0.0,15.0,96.0,172.0,29.0,0.0
466157,1.120333,-1.334018,2.33473,-0.006649,-0.26821100000000003,-0.071117,0.0,15.0,96.0,172.0,29.0,0.0
466158,1.034284,-1.3135059999999998,2.236061,0.054415,-0.180874,-0.139234,0.0,15.0,96.0,172.0,29.0,0.0
466159,0.932042,-1.273238,2.120508,0.001085,-0.095917,-0.007314,0.0,15.0,96.0,172.0,29.0,0.0
466160,0.8280209999999999,-1.216819,2.005591,-0.128026,-0.351606,0.143974,0.0,15.0,96.0,172.0,29.0,0.0
466161,0.7327670000000001,-1.152841,1.904655,-0.220709,-0.6895859999999999,0.212697,0.0,15.0,96.0,172.0,29.0,0.0
466162,0.657504,-1.093528,1.826695,-0.430536,-0.787118,0.144556,0.0,15.0,96.0,172.0,29.0,0.0
466163,0.614758,-1.043633,1.7806529999999998,-0.511895,-0.686473,0.13881300000000002,0.0,15.0,96.0,172.0,29.0,0.0
466164,0.597856,-0.992563,1.7512330000000005,-0.27458,-0.072308,-0.139525,0.0,15.0,96.0,172.0,29.0,0.0
466165,0.596551,-0.934313,1.72029,0.5736680000000001,0.771844,0.250616,0.0,15.0,96.0,172.0,29.0,0.0
466166,0.61493,-0.905535,1.7092189999999998,0.363996,0.8049189999999999,0.228596,0.0,15.0,96.0,172.0,29.0,0.0
466167,0.6182449999999999,-0.8950549999999999,1.7095220000000002,0.428749,0.383437,-0.0051530000000000005,0.0,15.0,96.0,172.0,29.0,0.0
466168,0.610779,-0.898883,1.717354,0.520858,0.561591,-0.468733,0.0,15.0,96.0,172.0,29.0,0.0
466169,0.626012,-0.927178,1.742904,0.526252,0.544293,-0.492375,0.0,15.0,96.0,172.0,29.0,0.0
466170,0.666006,-0.958416,1.774398,0.306947,0.146837,-0.244334,0.0,15.0,96.0,172.0,29.0,0.0
466171,0.729615,-0.994913,1.811172,-0.069405,-0.114911,-0.479041,0.0,15.0,96.0,172.0,29.0,0.0
466172,0.7761680000000001,-1.03285,1.841328,-0.065342,-0.134962,-0.519354,0.0,15.0,96.0,172.0,29.0,0.0
466173,0.802686,-1.07372,1.869132,0.051723000000000005,-0.30438000000000004,-0.041957,0.0,15.0,96.0,172.0,29.0,0.0
466174,0.831627,-1.119465,1.910233,0.13162100000000002,-0.627452,0.147919,0.0,15.0,96.0,172.0,29.0,0.0
466175,0.8604229999999999,-1.170937,1.957911,0.158833,-0.648701,0.107947,0.0,15.0,96.0,172.0,29.0,0.0
466176,0.8693540000000001,-1.217132,1.987586,0.097961,-0.135238,-0.038888,0.0,15.0,96.0,172.0,29.0,0.0
466177,0.893086,-1.247781,2.034145,-0.281764,-0.100016,-0.021868,0.0,15.0,96.0,172.0,29.0,0.0
466178,0.945929,-1.271252,2.114727,-0.385899,-0.128597,0.01027,0.0,15.0,96.0,172.0,29.0,0.0
466179,1.000296,-1.289379,2.2006360000000003,-0.498989,-0.50267,0.100866,0.0,15.0,96.0,172.0,29.0,0.0
466180,1.0483209999999998,-1.30655,2.2751,-0.338512,-0.582202,0.29962,0.0,15.0,96.0,172.0,29.0,0.0
466181,1.087613,-1.319914,2.3373060000000003,-0.302058,-0.4905600000000001,0.33713000000000004,0.0,15.0,96.0,172.0,29.0,0.0
466182,1.103606,-1.328734,2.378971,0.218946,0.796092,-0.153087,0.0,15.0,96.0,172.0,29.0,0.0
466183,1.164365,-1.340192,2.448016,0.252242,1.842588,0.524414,0.0,15.0,96.0,172.0,29.0,0.0
466184,1.220159,-1.334755,2.49724,-0.018379,1.708576,0.295345,0.0,15.0,96.0,172.0,29.0,0.0
466185,1.221634,-1.323201,2.514048,-0.103213,0.096185,-0.032135000000000004,0.0,15.0,96.0,172.0,29.0,0.0
466186,1.177034,-1.312366,2.478047,0.06858600000000001,0.343449,0.180788,0.0,15.0,96.0,172.0,29.0,0.0
466187,1.141669,-1.304038,2.427901,0.303883,-0.156098,0.016637,0.0,15.0,96.0,172.0,29.0,0.0
466188,1.120992,-1.292771,2.3793450000000003,0.334057,-0.198049,-0.057209,0.0,15.0,96.0,172.0,29.0,0.0
466189,1.103427,-1.286509,2.334341,0.403237,-0.186073,-0.039464,0.0,15.0,96.0,172.0,29.0,0.0
466190,1.089944,-1.289045,2.303135,0.399295,-0.2592,0.074728,0.0,15.0,96.0,172.0,29.0,0.0
466191,1.081052,-1.2986540000000002,2.292628,0.291662,-0.405534,0.080302,0.0,15.0,96.0,172.0,29.0,0.0
466192,1.086992,-1.311191,2.30937,0.234899,-0.229034,-0.045008,0.0,15.0,96.0,172.0,29.0,0.0
466193,1.11585,-1.3232620000000002,2.341191,0.190258,-0.03379,-0.153917,0.0,15.0,96.0,172.0,29.0,0.0
466194,1.140397,-1.329994,2.360179,0.118959,-0.021089,-0.162977,0.0,15.0,96.0,172.0,29.0,0.0
466195,1.124283,-1.329781,2.338331,0.014065,-0.27142,-0.082886,0.0,15.0,96.0,172.0,29.0,0.0
466196,1.071928,-1.322151,2.282633,0.05024,-0.174157,0.012407,0.0,15.0,96.0,172.0,29.0,0.0
466197,1.005047,-1.304946,2.21711,-0.002119,-0.114131,0.144758,0.0,15.0,96.0,172.0,29.0,0.0
466198,0.935735,-1.276154,2.1540060000000003,-0.038128,-0.2104,0.114228,0.0,15.0,96.0,172.0,29.0,0.0
466199,0.853298,-1.234642,2.079104,-0.06169,-0.22277800000000006,0.105634,0.0,15.0,96.0,172.0,29.0,0.0
466200,0.7741560000000001,-1.180438,2.003819,-0.207589,-0.207503,-0.083114,0.0,15.0,96.0,172.0,29.0,0.0
466201,0.708317,-1.119314,1.937954,-0.213487,-0.044973,0.015088,0.0,15.0,96.0,172.0,29.0,0.0
466202,0.662796,-1.05837,1.894042,-0.290635,-0.003409,0.017993000000000002,0.0,15.0,96.0,172.0,29.0,0.0
466203,0.628454,-0.998997,1.860654,-0.022325,0.124342,0.036807,0.0,15.0,96.0,172.0,29.0,0.0
466204,0.600066,-0.940865,1.826085,0.192845,0.493186,0.025811,0.0,15.0,96.0,172.0,29.0,0.0
466205,0.594712,-0.89792,1.801864,0.114292,0.658977,-0.052985,0.0,15.0,96.0,172.0,29.0,0.0
466206,0.619451,-0.880358,1.810995,0.168281,0.513655,-0.428988,0.0,15.0,96.0,172.0,29.0,0.0
466207,0.651829,-0.8816959999999999,1.841313,0.152925,0.59009,-0.390658,0.0,15.0,96.0,172.0,29.0,0.0
466208,0.6744600000000001,-0.8970379999999999,1.870398,0.180552,0.464017,-0.320933,0.0,15.0,96.0,172.0,29.0,0.0
466209,0.696515,-0.922497,1.892715,0.13163,0.014152,-0.229352,0.0,15.0,96.0,172.0,29.0,0.0
466210,0.72916,-0.959928,1.917771,0.108676,-0.086423,-0.24715,0.0,15.0,96.0,172.0,29.0,0.0
466211,0.762617,-1.005092,1.942238,0.117408,-0.157978,-0.255597,0.0,15.0,96.0,172.0,29.0,0.0
466212,0.777432,-1.050099,1.957275,0.160735,-0.414256,0.0076349999999999986,0.0,15.0,96.0,172.0,29.0,0.0
466213,0.781107,-1.0925790000000002,1.968738,0.300282,-0.678512,0.190242,0.0,15.0,96.0,172.0,29.0,0.0
466214,0.8053899999999999,-1.137822,2.003729,0.185905,-0.749641,0.149478,0.0,15.0,96.0,172.0,29.0,0.0
466215,0.842391,-1.1919620000000002,2.055959,0.045453,-0.04929,-0.131442,0.0,15.0,96.0,172.0,29.0,0.0
466216,0.868827,-1.235243,2.10155,-0.067142,0.03563,-0.102201,0.0,15.0,96.0,172.0,29.0,0.0
466217,0.910614,-1.254989,2.168199,-0.282858,-0.137451,0.031795,0.0,15.0,96.0,172.0,29.0,0.0
466218,0.964204,-1.265994,2.244199,-0.813287,-0.496936,0.215044,0.0,15.0,96.0,172.0,29.0,0.0
466219,0.999887,-1.278446,2.299064,-0.500625,-0.745167,0.199356,0.0,15.0,96.0,172.0,29.0,0.0
466220,1.025582,-1.292597,2.341455,-0.470046,-0.772419,0.248837,0.0,15.0,96.0,172.0,29.0,0.0
466221,1.040076,-1.305477,2.368631,-0.078159,-0.454511,-0.243588,0.0,15.0,96.0,172.0,29.0,0.0
466222,1.065466,-1.320553,2.418787,0.428295,1.505132,0.591196,0.0,15.0,96.0,172.0,29.0,0.0
466223,1.147991,-1.330137,2.485792,0.376575,2.0350900000000003,0.510779,0.0,15.0,96.0,172.0,29.0,0.0
466224,1.2057,-1.315823,2.525936,0.184979,1.620175,0.076126,0.0,15.0,96.0,172.0,29.0,0.0
466225,1.265862,-1.291789,2.572413,0.189188,0.658467,0.246204,0.0,15.0,96.0,172.0,29.0,0.0
466226,1.222693,-1.270224,2.532474,0.253634,-0.202863,0.454165,0.0,15.0,96.0,172.0,29.0,0.0
466227,1.1755,-1.2526,2.47624,0.231037,-0.504825,-0.046236,0.0,15.0,96.0,172.0,29.0,0.0
466228,1.126978,-1.245294,2.414741,0.350115,-0.144374,-0.178324,0.0,15.0,96.0,172.0,29.0,0.0
466229,1.076599,-1.251918,2.367087,0.263456,0.135099,0.14338199999999998,0.0,15.0,96.0,172.0,29.0,0.0
466230,1.054043,-1.273174,2.361232,0.128897,-0.030118,0.06514400000000001,0.0,15.0,96.0,172.0,29.0,0.0
466231,1.062806,-1.301143,2.38826,0.23934,0.28622800000000004,-0.147652,0.0,15.0,96.0,172.0,29.0,0.0
466232,1.076736,-1.322901,2.405621,-0.081401,0.058752,-0.094369,0.0,15.0,96.0,172.0,29.0,0.0
466233,1.063624,-1.336224,2.385956,-0.110478,-0.272952,-0.053901,0.0,15.0,96.0,172.0,29.0,0.0
466234,1.024481,-1.344426,2.338471,0.08082,-0.381378,0.020568,0.0,15.0,96.0,172.0,29.0,0.0
466235,0.991707,-1.345872,2.293831,0.12999000000000002,-0.37009,-0.027327,0.0,15.0,96.0,172.0,29.0,0.0
466236,0.979185,-1.337392,2.268982,0.207029,-0.189529,-0.00515,0.0,15.0,96.0,172.0,29.0,0.0
466237,0.976547,-1.316273,2.256248,0.12903199999999998,-0.10142,0.030833,0.0,15.0,96.0,172.0,29.0,0.0
466238,0.949109,-1.281822,2.221911,0.026225,-0.161814,-0.027907,0.0,15.0,96.0,172.0,29.0,0.0
466239,0.8852180000000001,-1.234202,2.156288,-0.06189500000000001,-0.217948,0.093233,0.0,15.0,96.0,172.0,29.0,0.0
466240,0.8010390000000001,-1.176758,2.07736,-0.199122,-0.532085,0.066241,0.0,15.0,96.0,172.0,29.0,0.0
466241,0.71987,-1.116217,2.005736,-0.36995,-0.6193930000000001,0.064358,0.0,15.0,96.0,172.0,29.0,0.0
466242,0.656938,-1.06115,1.951055,-0.290716,-0.501533,0.07270599999999999,0.0,15.0,96.0,172.0,29.0,0.0
466243,0.614988,-1.009215,1.916595,-0.20079,-0.16051600000000002,0.054106,0.0,15.0,96.0,172.0,29.0,0.0
466244,0.5791270000000001,-0.955909,1.885605,-0.094764,0.098017,0.08957799999999999,0.0,15.0,96.0,172.0,29.0,0.0
466245,0.5475300000000001,-0.903015,1.85555,0.198785,0.810765,0.1192,0.0,15.0,96.0,172.0,29.0,0.0
466246,0.535569,-0.875374,1.853196,0.148615,0.201303,-0.318301,0.0,15.0,96.0,172.0,29.0,0.0
466247,0.5556840000000001,-0.875733,1.882226,0.173038,0.6661600000000001,-0.5506880000000001,0.0,15.0,96.0,172.0,29.0,0.0
466248,0.591499,-0.895892,1.919783,0.100985,0.461161,-0.362638,0.0,15.0,96.0,172.0,29.0,0.0
466249,0.627428,-0.922625,1.946616,-0.0062640000000000005,0.156958,-0.357392,0.0,15.0,96.0,172.0,29.0,0.0
466250,0.6792100000000001,-0.958105,1.972862,0.011132,-0.060672,-0.3966,0.0,15.0,96.0,172.0,29.0,0.0
466251,0.732528,-1.0003959999999998,2.003244,0.176681,-0.28730300000000003,-0.073522,0.0,15.0,96.0,172.0,29.0,0.0
466252,0.763709,-1.04679,2.02602,0.268568,-0.295372,0.042753,0.0,15.0,96.0,172.0,29.0,0.0
466253,0.775633,-1.093635,2.046867,0.278622,-0.350079,0.176985,0.0,15.0,96.0,172.0,29.0,0.0
466254,0.8038029999999999,-1.145507,2.085208,0.149283,-0.197907,0.082701,0.0,15.0,96.0,172.0,29.0,0.0
466255,0.8297479999999999,-1.195472,2.120115,0.064665,-0.012496,-0.163698,0.0,15.0,96.0,172.0,29.0,0.0
466256,0.872941,-1.227649,2.172705,-0.100497,-0.134236,-0.178819,0.0,15.0,96.0,172.0,29.0,0.0
466257,0.934694,-1.247957,2.251196,-0.578009,-0.231526,0.001618,0.0,15.0,96.0,172.0,29.0,0.0
466258,0.984727,-1.26596,2.322829,-0.7223689999999999,-0.408532,0.112052,0.0,15.0,96.0,172.0,29.0,0.0
466259,1.01776,-1.286829,2.375328,-0.59692,-0.5440729999999999,0.208355,0.0,15.0,96.0,172.0,29.0,0.0
466260,1.048309,-1.306166,2.418756,-0.144925,-0.662333,0.226323,0.0,15.0,96.0,172.0,29.0,0.0
466261,1.082065,-1.32207,2.461768,0.145892,-0.229694,-0.314747,0.0,15.0,96.0,172.0,29.0,0.0
466262,1.1542629999999998,-1.337097,2.540103,0.528101,0.8052600000000001,0.180109,0.0,15.0,96.0,172.0,29.0,0.0
466263,1.222653,-1.336834,2.597602,0.196804,0.923409,0.017695,0.0,15.0,96.0,172.0,29.0,0.0
466264,1.242279,-1.324777,2.625128,0.070988,0.7117359999999999,-0.35298,0.0,15.0,96.0,172.0,29.0,0.0
466265,1.265134,-1.315985,2.673314,0.161623,1.219408,0.157082,0.0,15.0,96.0,172.0,29.0,0.0
466266,1.256668,-1.311633,2.669789,0.07244,-0.06452000000000001,0.167464,0.0,15.0,96.0,172.0,29.0,0.0
466267,1.219663,-1.306886,2.625723,0.15925599999999998,-0.549743,-0.082173,0.0,15.0,96.0,172.0,29.0,0.0
466268,1.1626610000000002,-1.301262,2.56393,0.15978599999999998,-0.548261,-0.06621200000000001,0.0,15.0,96.0,172.0,29.0,0.0
466269,1.11229,-1.300466,2.511005,0.257822,-0.246489,-0.0070560000000000015,0.0,15.0,96.0,172.0,29.0,0.0
466270,1.083628,-1.308088,2.480927,0.190535,-0.016136,0.07549299999999999,0.0,15.0,96.0,172.0,29.0,0.0
466271,1.075548,-1.324051,2.4788330000000003,0.205118,-0.020158,0.070001,0.0,15.0,96.0,172.0,29.0,0.0
466272,1.09831,-1.342299,2.509881,0.159794,0.049933,-0.007918999999999999,0.0,15.0,96.0,172.0,29.0,0.0
466273,1.116781,-1.353925,2.530093,-0.029363,-0.278532,-0.11513,0.0,15.0,96.0,172.0,29.0,0.0
466274,1.094423,-1.357903,2.501234,-0.023751,-0.27938,-0.112613,0.0,15.0,96.0,172.0,29.0,0.0
466275,1.027119,-1.354726,2.425183,-0.01811,-0.463045,-0.076277,0.0,15.0,96.0,172.0,29.0,0.0
466276,0.948962,-1.34257,2.337785,0.04615,-0.175287,-0.066706,0.0,15.0,96.0,172.0,29.0,0.0
466277,0.88682,-1.316493,2.266105,-0.002186,-0.12797999999999998,0.040753,0.0,15.0,96.0,172.0,29.0,0.0
466278,0.825426,-1.276389,2.196174,-0.02779,-0.181126,0.134553,0.0,15.0,96.0,172.0,29.0,0.0
466279,0.757116,-1.223541,2.122476,-0.178522,-0.4173,-0.054588,0.0,15.0,96.0,172.0,29.0,0.0
466280,0.70145,-1.166559,2.061739,-0.252513,-0.298217,0.043841000000000005,0.0,15.0,96.0,172.0,29.0,0.0
466281,0.667697,-1.111531,2.022792,-0.292444,-0.17999400000000002,0.130219,0.0,15.0,96.0,172.0,29.0,0.0
466282,0.638793,-1.0529620000000002,1.989297,-0.054526,0.253711,0.121706,0.0,15.0,96.0,172.0,29.0,0.0
466283,0.611711,-0.990814,1.959083,-0.0741,0.286132,0.17295,0.0,15.0,96.0,172.0,29.0,0.0
466284,0.585593,-0.940353,1.928799,0.10055,0.850284,-0.102457,0.0,15.0,96.0,172.0,29.0,0.0
466285,0.574824,-0.916167,1.913335,0.43304,0.434403,-0.417031,0.0,15.0,96.0,172.0,29.0,0.0
466286,0.589796,-0.914199,1.931832,0.221922,0.416926,-0.483828,0.0,15.0,96.0,172.0,29.0,0.0
466287,0.6225729999999999,-0.929326,1.963238,0.039412,0.32447,-0.30285300000000004,0.0,15.0,96.0,172.0,29.0,0.0
466288,0.671219,-0.956684,1.999427,-0.09553,0.061742999999999985,-0.233592,0.0,15.0,96.0,172.0,29.0,0.0
466289,0.727751,-0.992759,2.036509,-0.049508,-0.075681,-0.2469,0.0,15.0,96.0,172.0,29.0,0.0
466290,0.779922,-1.031767,2.070189,0.144319,-0.200813,-0.189599,0.0,15.0,96.0,172.0,29.0,0.0
466291,0.8073229999999999,-1.071128,2.089334,0.31243200000000004,-0.451365,0.088989,0.0,15.0,96.0,172.0,29.0,0.0
466292,0.8094720000000001,-1.111398,2.09704,0.348983,-0.590717,0.206724,0.0,15.0,96.0,172.0,29.0,0.0
466293,0.816481,-1.160348,2.118126,0.086226,-0.466106,0.083966,0.0,15.0,96.0,172.0,29.0,0.0
466294,0.824256,-1.213824,2.144938,-0.08884299999999999,-0.15812,-0.208782,0.0,15.0,96.0,172.0,29.0,0.0
466295,0.835312,-1.255444,2.1749240000000003,-0.112762,0.01788,-0.288546,0.0,15.0,96.0,172.0,29.0,0.0
466296,0.8709389999999999,-1.276065,2.2329630000000003,-0.368164,-0.077699,0.06102000000000001,0.0,15.0,96.0,172.0,29.0,0.0
466297,0.92396,-1.283953,2.310022,-0.7681140000000001,-0.246556,0.165811,0.0,15.0,96.0,172.0,29.0,0.0
466298,0.968454,-1.292115,2.374052,-0.7220479999999999,-0.404992,0.168143,0.0,15.0,96.0,172.0,29.0,0.0
466299,1.007248,-1.303546,2.42709,-0.284166,-0.667611,0.347659,0.0,15.0,96.0,172.0,29.0,0.0
466300,1.051769,-1.316794,2.476251,-0.176643,-0.575703,0.374538,0.0,15.0,96.0,172.0,29.0,0.0
466301,1.093387,-1.329381,2.513102,-0.120843,-0.39814,0.168325,0.0,15.0,96.0,172.0,29.0,0.0
466302,1.129419,-1.3435979999999998,2.546033,0.470622,1.676105,0.133487,0.0,15.0,96.0,172.0,29.0,0.0
466303,1.1662860000000002,-1.349832,2.57181,0.269861,0.953909,-0.210553,0.0,15.0,96.0,172.0,29.0,0.0
466304,1.176539,-1.343803,2.598744,0.213602,0.796298,-0.367179,0.0,15.0,96.0,172.0,29.0,0.0
466305,1.218638,-1.337392,2.666886,0.346823,0.990265,0.269403,0.0,15.0,96.0,172.0,29.0,0.0
466306,1.218076,-1.328181,2.665723,0.255809,-0.08407,0.098759,0.0,15.0,96.0,172.0,29.0,0.0
466307,1.169095,-1.313562,2.599799,0.179797,-0.20869,0.06598,0.0,15.0,96.0,172.0,29.0,0.0
