,attitude.roll,attitude.pitch,attitude.yaw,userAcceleration.x,userAcceleration.y,userAcceleration.z,act,id,weight,height,age,gender
501799,-0.539307,-1.282739,-0.8349030000000001,0.159869,-0.055615,-0.241691,0.0,16.0,76.0,180.0,26.0,1.0
501800,-0.500842,-1.272873,-0.788139,0.163787,-0.106949,-0.233698,0.0,16.0,76.0,180.0,26.0,1.0
501801,-0.469471,-1.261617,-0.746499,0.136195,-0.103493,-0.262091,0.0,16.0,76.0,180.0,26.0,1.0
501802,-0.450277,-1.2506700000000002,-0.717919,0.010018,-0.05788400000000001,-0.27091,0.0,16.0,76.0,180.0,26.0,1.0
501803,-0.441678,-1.243099,-0.698533,-0.035666,-0.058999,-0.284754,0.0,16.0,76.0,180.0,26.0,1.0
501804,-0.440723,-1.2396,-0.6825869999999999,-0.005340999999999999,-0.003576,-0.280835,0.0,16.0,76.0,180.0,26.0,1.0
501805,-0.445987,-1.234256,-0.668334,-0.241837,0.253698,-0.202079,0.0,16.0,76.0,180.0,26.0,1.0
501806,-0.452323,-1.221739,-0.655507,-0.363111,0.715746,-0.262696,0.0,16.0,76.0,180.0,26.0,1.0
501807,-0.463119,-1.209496,-0.6391439999999999,-0.188609,0.161074,0.483399,0.0,16.0,76.0,180.0,26.0,1.0
501808,-0.467761,-1.204034,-0.634829,-0.68301,-0.640311,0.6111810000000001,0.0,16.0,76.0,180.0,26.0,1.0
501809,-0.473721,-1.211781,-0.65633,-0.576499,-0.425532,0.4608680000000001,0.0,16.0,76.0,180.0,26.0,1.0
501810,-0.523018,-1.238659,-0.7263270000000001,-0.082006,0.300746,0.707964,0.0,16.0,76.0,180.0,26.0,1.0
501811,-0.597025,-1.270888,-0.8386049999999999,0.019815,0.343998,0.583298,0.0,16.0,76.0,180.0,26.0,1.0
501812,-0.685232,-1.30138,-0.970666,0.193224,0.366747,0.44635,0.0,16.0,76.0,180.0,26.0,1.0
501813,-0.7774270000000001,-1.323787,-1.100833,0.499295,0.15375,0.126914,0.0,16.0,76.0,180.0,26.0,1.0
501814,-0.851281,-1.336295,-1.2062540000000002,0.449633,0.070552,0.06692999999999999,0.0,16.0,76.0,180.0,26.0,1.0
501815,-0.910606,-1.346319,-1.286066,0.235453,-0.045086,0.098881,0.0,16.0,76.0,180.0,26.0,1.0
501816,-0.993763,-1.357085,-1.374413,0.025295,-0.00702,0.059366,0.0,16.0,76.0,180.0,26.0,1.0
501817,-1.099005,-1.363999,-1.468831,-0.061445000000000013,0.020025,0.011819,0.0,16.0,76.0,180.0,26.0,1.0
501818,-1.20449,-1.364814,-1.554435,-0.047628,0.050909,0.007566,0.0,16.0,76.0,180.0,26.0,1.0
501819,-1.287227,-1.360528,-1.616186,0.108193,-0.015054,0.063402,0.0,16.0,76.0,180.0,26.0,1.0
501820,-1.355069,-1.355983,-1.670019,0.178607,-0.008739,0.030066,0.0,16.0,76.0,180.0,26.0,1.0
501821,-1.421734,-1.353991,-1.724579,0.169511,-0.034756,0.002817,0.0,16.0,76.0,180.0,26.0,1.0
501822,-1.4965389999999998,-1.354014,-1.78401,0.159975,-0.024812,0.029995,0.0,16.0,76.0,180.0,26.0,1.0
501823,-1.575997,-1.35384,-1.846414,0.088531,-0.02479,-0.007208,0.0,16.0,76.0,180.0,26.0,1.0
501824,-1.667064,-1.3529719999999998,-1.920651,0.006807,0.0133,0.011714,0.0,16.0,76.0,180.0,26.0,1.0
501825,-1.75942,-1.351424,-2.0080560000000003,0.025082,-0.031576,-0.033481,0.0,16.0,76.0,180.0,26.0,1.0
501826,-1.831626,-1.348732,-2.090298,0.030496,-0.052517,-0.059421,0.0,16.0,76.0,180.0,26.0,1.0
501827,-1.885616,-1.346036,-2.156064,0.027088,-0.04455,-0.027141,0.0,16.0,76.0,180.0,26.0,1.0
501828,-1.930667,-1.341678,-2.218444,0.056076,-0.055196,-0.034814,0.0,16.0,76.0,180.0,26.0,1.0
501829,-1.974533,-1.335886,-2.28278,0.08106000000000001,-0.063325,-0.094644,0.0,16.0,76.0,180.0,26.0,1.0
501830,-2.024075,-1.328491,-2.347318,0.054561,-0.038872,-0.139711,0.0,16.0,76.0,180.0,26.0,1.0
501831,-2.078654,-1.319239,-2.410612,0.046778,-0.009648,-0.119276,0.0,16.0,76.0,180.0,26.0,1.0
501832,-2.119367,-1.31004,-2.459044,0.055979,0.00672,-0.077829,0.0,16.0,76.0,180.0,26.0,1.0
501833,-2.144698,-1.301184,-2.494671,0.059953999999999986,-0.012336,-0.031554,0.0,16.0,76.0,180.0,26.0,1.0
501834,-2.163869,-1.291443,-2.526183,0.073751,0.015939,-0.038523,0.0,16.0,76.0,180.0,26.0,1.0
501835,-2.186014,-1.280883,-2.559442,0.091424,0.080946,-0.025626,0.0,16.0,76.0,180.0,26.0,1.0
501836,-2.209845,-1.269409,-2.593156,0.157913,0.228027,-0.089813,0.0,16.0,76.0,180.0,26.0,1.0
501837,-2.236153,-1.257614,-2.627065,0.247025,0.287137,-0.192757,0.0,16.0,76.0,180.0,26.0,1.0
501838,-2.26596,-1.24579,-2.658299,0.348992,0.269316,-0.316631,0.0,16.0,76.0,180.0,26.0,1.0
501839,-2.2939,-1.237186,-2.684968,0.282713,0.26124899999999995,-0.527306,0.0,16.0,76.0,180.0,26.0,1.0
501840,-2.309112,-1.232177,-2.701035,0.287661,0.283699,-0.660891,0.0,16.0,76.0,180.0,26.0,1.0
501841,-2.305568,-1.234416,-2.685826,0.364445,0.461761,-0.6210359999999999,0.0,16.0,76.0,180.0,26.0,1.0
501842,-2.27524,-1.24637,-2.636842,0.368499,0.436428,-0.6843859999999999,0.0,16.0,76.0,180.0,26.0,1.0
501843,-2.2207830000000004,-1.26873,-2.562188,0.25955100000000003,0.365604,-0.706097,0.0,16.0,76.0,180.0,26.0,1.0
501844,-2.109677,-1.302041,-2.422759,0.131724,0.430246,-0.516467,0.0,16.0,76.0,180.0,26.0,1.0
501845,-1.886517,-1.338615,-2.16811,-0.149362,0.491128,0.007945,0.0,16.0,76.0,180.0,26.0,1.0
501846,-1.522052,-1.359753,-1.779204,-0.326002,0.679002,0.760054,0.0,16.0,76.0,180.0,26.0,1.0
501847,-1.148097,-1.351343,-1.404367,-0.633359,0.591488,0.92222,0.0,16.0,76.0,180.0,26.0,1.0
501848,-0.892825,-1.324801,-1.184049,-0.8116770000000001,0.538878,0.340194,0.0,16.0,76.0,180.0,26.0,1.0
501849,-0.7187319999999999,-1.301153,-1.054647,-0.440982,0.402223,0.16423900000000002,0.0,16.0,76.0,180.0,26.0,1.0
501850,-0.566576,-1.270684,-0.947198,-0.201873,0.214832,0.329069,0.0,16.0,76.0,180.0,26.0,1.0
501851,-0.427999,-1.236302,-0.8597030000000001,0.166668,0.14390899999999998,0.578555,0.0,16.0,76.0,180.0,26.0,1.0
501852,-0.32758400000000004,-1.215037,-0.794621,0.235146,0.041393,0.56623,0.0,16.0,76.0,180.0,26.0,1.0
501853,-0.231914,-1.203065,-0.714398,0.119539,-0.091913,0.394934,0.0,16.0,76.0,180.0,26.0,1.0
501854,-0.133305,-1.195232,-0.6240180000000001,0.0419,-0.220935,0.327929,0.0,16.0,76.0,180.0,26.0,1.0
501855,-0.056741,-1.182776,-0.544845,-0.138226,-0.439866,0.31485100000000005,0.0,16.0,76.0,180.0,26.0,1.0
501856,-0.010743,-1.168825,-0.486861,-0.15548,-0.434497,0.328314,0.0,16.0,76.0,180.0,26.0,1.0
501857,0.002777,-1.1531129999999998,-0.455925,-0.305448,-0.6831659999999999,0.406176,0.0,16.0,76.0,180.0,26.0,1.0
501858,-0.007240000000000002,-1.139024,-0.446897,-0.354453,-0.790519,0.5408149999999999,0.0,16.0,76.0,180.0,26.0,1.0
501859,-0.025264,-1.132223,-0.448817,-0.352081,-0.8187800000000001,0.575041,0.0,16.0,76.0,180.0,26.0,1.0
501860,-0.040997000000000006,-1.138213,-0.453454,-0.324539,-0.6653319999999999,0.478206,0.0,16.0,76.0,180.0,26.0,1.0
501861,-0.057908,-1.154467,-0.46314,-0.096636,-0.5014930000000001,0.365962,0.0,16.0,76.0,180.0,26.0,1.0
501862,-0.08341599999999999,-1.176956,-0.48407,-0.002238,-0.460567,0.321046,0.0,16.0,76.0,180.0,26.0,1.0
501863,-0.121761,-1.204988,-0.519699,0.056874,-0.348233,0.218199,0.0,16.0,76.0,180.0,26.0,1.0
501864,-0.180656,-1.234983,-0.573462,0.020894,-0.118154,0.073365,0.0,16.0,76.0,180.0,26.0,1.0
501865,-0.267542,-1.264679,-0.640353,0.041353,-0.127522,0.039828,0.0,16.0,76.0,180.0,26.0,1.0
501866,-0.394104,-1.289564,-0.721892,0.232958,0.101313,-0.017282,0.0,16.0,76.0,180.0,26.0,1.0
501867,-0.556095,-1.303895,-0.815175,0.555558,0.214393,-0.05354,0.0,16.0,76.0,180.0,26.0,1.0
501868,-0.688333,-1.311072,-0.8866649999999999,0.562264,0.205796,-0.127377,0.0,16.0,76.0,180.0,26.0,1.0
501869,-0.724929,-1.317685,-0.90078,0.243072,-0.015119999999999996,-0.348075,0.0,16.0,76.0,180.0,26.0,1.0
501870,-0.6929609999999999,-1.33201,-0.8652569999999999,-0.150953,-0.168433,-0.441687,0.0,16.0,76.0,180.0,26.0,1.0
501871,-0.6699890000000001,-1.352807,-0.8263379999999999,-0.5115029999999999,-0.123597,-0.396923,0.0,16.0,76.0,180.0,26.0,1.0
501872,-0.643291,-1.362576,-0.7772180000000001,-0.498625,0.36329,0.036538,0.0,16.0,76.0,180.0,26.0,1.0
501873,-0.5843010000000001,-1.357267,-0.715526,-0.217368,0.403433,0.692315,0.0,16.0,76.0,180.0,26.0,1.0
501874,-0.527163,-1.35249,-0.675505,-0.400461,0.424476,0.261617,0.0,16.0,76.0,180.0,26.0,1.0
501875,-0.5059819999999999,-1.353652,-0.6356189999999999,0.385284,1.51564,-1.428073,0.0,16.0,76.0,180.0,26.0,1.0
501876,-0.557546,-1.361643,-0.664323,0.351159,-0.198239,1.158758,0.0,16.0,76.0,180.0,26.0,1.0
501877,-0.347236,-1.314268,-0.536429,-0.254266,-0.324409,0.7883819999999999,0.0,16.0,76.0,180.0,26.0,1.0
501878,-0.216546,-1.280476,-0.468369,-0.305668,-0.08715,0.6104569999999999,0.0,16.0,76.0,180.0,26.0,1.0
501879,-0.168303,-1.270749,-0.458466,-0.283498,-0.127381,0.480214,0.0,16.0,76.0,180.0,26.0,1.0
501880,-0.201631,-1.2860790000000002,-0.488651,-0.141289,-0.097803,0.219925,0.0,16.0,76.0,180.0,26.0,1.0
501881,-0.315897,-1.324736,-0.56596,0.244984,0.198669,-0.5283760000000001,0.0,16.0,76.0,180.0,26.0,1.0
501882,-0.469644,-1.370061,-0.6805859999999999,0.325588,0.119765,-0.413739,0.0,16.0,76.0,180.0,26.0,1.0
501883,-0.4831180000000001,-1.38135,-0.717389,-0.055954,-0.321128,0.007901,0.0,16.0,76.0,180.0,26.0,1.0
501884,-0.4488,-1.371098,-0.7100029999999999,-0.158635,-0.45997,-0.063111,0.0,16.0,76.0,180.0,26.0,1.0
501885,-0.481204,-1.368177,-0.742149,-0.125396,-0.288106,-0.044748,0.0,16.0,76.0,180.0,26.0,1.0
501886,-0.5450729999999999,-1.369368,-0.7973210000000001,0.043275,-0.049225,-0.046927,0.0,16.0,76.0,180.0,26.0,1.0
501887,-0.581683,-1.366461,-0.8352870000000001,0.042716,-0.002222,-0.089322,0.0,16.0,76.0,180.0,26.0,1.0
501888,-0.583559,-1.3631799999999998,-0.8501989999999999,-0.053754,0.041311,-0.389572,0.0,16.0,76.0,180.0,26.0,1.0
501889,-0.549958,-1.353916,-0.836838,-0.065728,0.045475,-0.312383,0.0,16.0,76.0,180.0,26.0,1.0
501890,-0.487954,-1.328225,-0.7972640000000001,0.035476,0.179331,-0.390023,0.0,16.0,76.0,180.0,26.0,1.0
501891,-0.4259770000000001,-1.294686,-0.7549779999999999,0.167899,0.577702,-0.296975,0.0,16.0,76.0,180.0,26.0,1.0
501892,-0.341677,-1.252557,-0.694493,0.172528,0.885127,-0.14736400000000002,0.0,16.0,76.0,180.0,26.0,1.0
501893,-0.224258,-1.208773,-0.6148140000000001,0.130824,1.13394,0.089423,0.0,16.0,76.0,180.0,26.0,1.0
501894,-0.144866,-1.147563,-0.546656,0.026148,1.165352,0.433004,0.0,16.0,76.0,180.0,26.0,1.0
501895,-0.098494,-1.083862,-0.487609,-0.190239,0.402392,0.618772,0.0,16.0,76.0,180.0,26.0,1.0
501896,-0.010957,-1.068347,-0.421162,-0.186999,-0.199267,0.539375,0.0,16.0,76.0,180.0,26.0,1.0
501897,0.06421900000000001,-1.065422,-0.362451,-0.29138400000000003,-0.642175,0.420484,0.0,16.0,76.0,180.0,26.0,1.0
501898,0.094684,-1.074035,-0.330341,-0.400663,-0.730342,0.430454,0.0,16.0,76.0,180.0,26.0,1.0
501899,0.100466,-1.0931540000000002,-0.324608,-0.149758,-0.454335,0.41684,0.0,16.0,76.0,180.0,26.0,1.0
501900,0.09568,-1.118752,-0.331355,-0.217572,-0.520161,0.339837,0.0,16.0,76.0,180.0,26.0,1.0
501901,0.07822899999999999,-1.148867,-0.351534,-0.228949,-0.622033,0.345249,0.0,16.0,76.0,180.0,26.0,1.0
501902,0.045831,-1.182262,-0.386386,-0.17916,-0.711858,0.315826,0.0,16.0,76.0,180.0,26.0,1.0
501903,-0.007417,-1.21759,-0.440758,-0.011366,-0.639684,0.12643,0.0,16.0,76.0,180.0,26.0,1.0
501904,-0.098878,-1.250082,-0.5192,-0.03962,-0.6310479999999999,0.053555999999999986,0.0,16.0,76.0,180.0,26.0,1.0
501905,-0.224493,-1.28064,-0.604186,-0.081513,-0.351464,0.180487,0.0,16.0,76.0,180.0,26.0,1.0
501906,-0.380373,-1.303479,-0.705142,0.054321,0.2465,0.15984600000000002,0.0,16.0,76.0,180.0,26.0,1.0
501907,-0.5273909999999999,-1.313604,-0.80005,0.180187,0.769983,-0.27520700000000003,0.0,16.0,76.0,180.0,26.0,1.0
501908,-0.628711,-1.324785,-0.8783139999999999,0.308248,0.39162,-0.587348,0.0,16.0,76.0,180.0,26.0,1.0
501909,-0.7099340000000001,-1.341242,-0.953667,0.317406,-0.060316,-0.35945900000000003,0.0,16.0,76.0,180.0,26.0,1.0
501910,-0.785547,-1.3604,-1.023404,0.137155,-0.056623,-0.197591,0.0,16.0,76.0,180.0,26.0,1.0
501911,-0.8413149999999999,-1.381197,-1.082928,-0.244506,0.323569,-0.799303,0.0,16.0,76.0,180.0,26.0,1.0
501912,-0.768413,-1.391283,-1.030373,0.036994,0.201906,0.191185,0.0,16.0,76.0,180.0,26.0,1.0
501913,-0.595766,-1.372749,-0.8691610000000001,-0.574743,0.266938,0.908477,0.0,16.0,76.0,180.0,26.0,1.0
501914,-0.5386,-1.362203,-0.79964,-1.268002,0.401346,-0.185257,0.0,16.0,76.0,180.0,26.0,1.0
501915,-0.620609,-1.361016,-0.836828,-0.8076260000000001,1.563229,-1.644843,0.0,16.0,76.0,180.0,26.0,1.0
501916,-0.669938,-1.36025,-0.891668,1.441493,0.659458,0.490878,0.0,16.0,76.0,180.0,26.0,1.0
501917,-0.460297,-1.3138450000000002,-0.746265,-0.124049,-0.155585,0.5218729999999999,0.0,16.0,76.0,180.0,26.0,1.0
501918,-0.364263,-1.29285,-0.688199,-0.07699199999999999,-0.095761,0.6866,0.0,16.0,76.0,180.0,26.0,1.0
501919,-0.35993800000000004,-1.297619,-0.696405,0.0055780000000000005,-0.06843300000000001,0.481706,0.0,16.0,76.0,180.0,26.0,1.0
501920,-0.419216,-1.317906,-0.741632,0.14465999999999998,0.07672899999999999,-0.005761,0.0,16.0,76.0,180.0,26.0,1.0
501921,-0.524574,-1.350836,-0.832456,0.06525800000000001,0.104019,-0.359214,0.0,16.0,76.0,180.0,26.0,1.0
501922,-0.615213,-1.380394,-0.924603,-0.025953,0.002783,-0.268466,0.0,16.0,76.0,180.0,26.0,1.0
501923,-0.659116,-1.394983,-0.983204,-0.041534,-0.209301,-0.146824,0.0,16.0,76.0,180.0,26.0,1.0
501924,-0.723554,-1.398896,-1.0523360000000002,0.037701,-0.280244,-0.237219,0.0,16.0,76.0,180.0,26.0,1.0
501925,-0.790536,-1.396299,-1.116863,0.05494,-0.369656,-0.224214,0.0,16.0,76.0,180.0,26.0,1.0
501926,-0.795039,-1.386213,-1.1304809999999998,-0.128039,-0.347439,-0.135409,0.0,16.0,76.0,180.0,26.0,1.0
501927,-0.78841,-1.374795,-1.132295,0.00447,-0.191348,-0.059089,0.0,16.0,76.0,180.0,26.0,1.0
501928,-0.805685,-1.3675,-1.149083,0.09111,-0.172949,-0.177072,0.0,16.0,76.0,180.0,26.0,1.0
501929,-0.778737,-1.363951,-1.137296,0.210243,0.197433,-0.750484,0.0,16.0,76.0,180.0,26.0,1.0
501930,-0.6610159999999999,-1.349961,-1.055662,0.059355999999999985,0.079049,-0.320304,0.0,16.0,76.0,180.0,26.0,1.0
501931,-0.533866,-1.315703,-0.947381,0.022874,0.121166,-0.293079,0.0,16.0,76.0,180.0,26.0,1.0
501932,-0.439918,-1.266491,-0.8553709999999999,0.18943,0.709198,-0.29643600000000003,0.0,16.0,76.0,180.0,26.0,1.0
501933,-0.34309,-1.204084,-0.76361,0.006631999999999999,0.867591,0.101765,0.0,16.0,76.0,180.0,26.0,1.0
501934,-0.261422,-1.140698,-0.68494,-0.176171,0.721111,0.662467,0.0,16.0,76.0,180.0,26.0,1.0
501935,-0.212821,-1.070647,-0.626839,-0.252316,0.307136,0.901186,0.0,16.0,76.0,180.0,26.0,1.0
501936,-0.184763,-1.026342,-0.594612,-0.181975,-0.264681,0.6104689999999999,0.0,16.0,76.0,180.0,26.0,1.0
501937,-0.16233399999999998,-1.016931,-0.5776859999999999,-0.06966900000000001,-0.15075999999999998,0.656087,0.0,16.0,76.0,180.0,26.0,1.0
501938,-0.147068,-1.018196,-0.567656,-0.225313,0.016025,0.487451,0.0,16.0,76.0,180.0,26.0,1.0
501939,-0.111103,-1.038894,-0.545084,-0.154064,-0.17268,0.300265,0.0,16.0,76.0,180.0,26.0,1.0
501940,-0.066461,-1.07231,-0.525005,-0.172777,-0.242962,0.318639,0.0,16.0,76.0,180.0,26.0,1.0
501941,-0.037766,-1.108486,-0.5197430000000001,-0.218481,-0.30406700000000003,0.34052,0.0,16.0,76.0,180.0,26.0,1.0
501942,-0.03333,-1.145009,-0.5314909999999999,-0.26005500000000004,-0.440896,0.263974,0.0,16.0,76.0,180.0,26.0,1.0
501943,-0.054177,-1.181722,-0.555597,-0.231565,-0.483137,0.2255,0.0,16.0,76.0,180.0,26.0,1.0
501944,-0.104819,-1.222395,-0.5928899999999999,-0.161012,-0.550195,0.170561,0.0,16.0,76.0,180.0,26.0,1.0
501945,-0.206251,-1.265491,-0.659139,-0.122113,-0.664678,0.132927,0.0,16.0,76.0,180.0,26.0,1.0
501946,-0.377228,-1.293757,-0.7769560000000001,-0.112435,-0.529374,0.023152,0.0,16.0,76.0,180.0,26.0,1.0
501947,-0.54647,-1.304057,-0.888963,0.269776,0.34463,-0.303152,0.0,16.0,76.0,180.0,26.0,1.0
501948,-0.660792,-1.315779,-0.968604,0.4292220000000001,0.288689,-0.8180649999999999,0.0,16.0,76.0,180.0,26.0,1.0
501949,-0.765624,-1.316257,-1.036655,0.4264770000000001,0.086405,-0.59465,0.0,16.0,76.0,180.0,26.0,1.0
501950,-0.857489,-1.317351,-1.085514,0.289464,-0.163229,-0.252374,0.0,16.0,76.0,180.0,26.0,1.0
501951,-0.902484,-1.32342,-1.10436,-0.20334,0.276276,-0.415896,0.0,16.0,76.0,180.0,26.0,1.0
501952,-0.8633879999999999,-1.328611,-1.058496,-0.511112,0.591943,-0.621857,0.0,16.0,76.0,180.0,26.0,1.0
501953,-0.751159,-1.304712,-0.948466,-0.777629,0.680944,1.179025,0.0,16.0,76.0,180.0,26.0,1.0
501954,-0.656836,-1.2859120000000002,-0.8686389999999999,-0.8015479999999999,0.187004,-0.046611,0.0,16.0,76.0,180.0,26.0,1.0
501955,-0.7009920000000001,-1.291886,-0.884295,-0.397018,1.740213,-0.787091,0.0,16.0,76.0,180.0,26.0,1.0
501956,-0.7502979999999999,-1.291058,-0.944154,0.894868,0.17904,0.315782,0.0,16.0,76.0,180.0,26.0,1.0
501957,-0.592467,-1.252302,-0.835449,0.111092,-0.100632,0.922549,0.0,16.0,76.0,180.0,26.0,1.0
501958,-0.520486,-1.236345,-0.7851520000000001,0.16363699999999998,-0.06837,0.79699,0.0,16.0,76.0,180.0,26.0,1.0
501959,-0.512425,-1.238946,-0.795416,0.140706,0.011392,0.519925,0.0,16.0,76.0,180.0,26.0,1.0
501960,-0.563765,-1.263152,-0.844417,0.236065,0.096526,-0.104291,0.0,16.0,76.0,180.0,26.0,1.0
501961,-0.6181840000000001,-1.286768,-0.904974,0.189475,-0.023182,-0.286665,0.0,16.0,76.0,180.0,26.0,1.0
501962,-0.657115,-1.3014139999999998,-0.950474,0.08329600000000001,-0.061744000000000014,-0.322534,0.0,16.0,76.0,180.0,26.0,1.0
501963,-0.709547,-1.309952,-1.005192,0.115817,-0.175599,-0.137628,0.0,16.0,76.0,180.0,26.0,1.0
501964,-0.759944,-1.315221,-1.056499,0.155397,-0.256733,-0.166955,0.0,16.0,76.0,180.0,26.0,1.0
501965,-0.779801,-1.316472,-1.085074,0.086739,-0.338363,-0.086136,0.0,16.0,76.0,180.0,26.0,1.0
501966,-0.778404,-1.314572,-1.096166,0.021129,-0.321846,-0.117706,0.0,16.0,76.0,180.0,26.0,1.0
501967,-0.7826569999999999,-1.314377,-1.110762,0.042139,-0.27460100000000004,-0.125365,0.0,16.0,76.0,180.0,26.0,1.0
501968,-0.798327,-1.3156450000000002,-1.13397,0.125065,-0.217289,-0.04883,0.0,16.0,76.0,180.0,26.0,1.0
501969,-0.8064060000000001,-1.315596,-1.151118,0.20046,-0.125099,-0.082521,0.0,16.0,76.0,180.0,26.0,1.0
501970,-0.791092,-1.313741,-1.1476959999999998,0.136677,0.006765,-0.462141,0.0,16.0,76.0,180.0,26.0,1.0
501971,-0.7387020000000001,-1.308054,-1.117422,0.130831,0.237032,-0.44704,0.0,16.0,76.0,180.0,26.0,1.0
501972,-0.644001,-1.29676,-1.060991,0.32906,0.699042,-0.342699,0.0,16.0,76.0,180.0,26.0,1.0
501973,-0.531385,-1.275019,-0.971131,0.436582,0.809446,-0.367836,0.0,16.0,76.0,180.0,26.0,1.0
501974,-0.408573,-1.246518,-0.855081,0.308947,0.6681159999999999,0.090295,0.0,16.0,76.0,180.0,26.0,1.0
501975,-0.279092,-1.216491,-0.737516,0.102884,0.552987,0.312013,0.0,16.0,76.0,180.0,26.0,1.0
501976,-0.19824,-1.179678,-0.648475,-0.118875,0.273911,0.477362,0.0,16.0,76.0,180.0,26.0,1.0
501977,-0.14262,-1.150877,-0.5847439999999999,-0.207159,0.082514,0.752699,0.0,16.0,76.0,180.0,26.0,1.0
501978,-0.115276,-1.128853,-0.549259,-0.441391,0.055352,0.6562720000000001,0.0,16.0,76.0,180.0,26.0,1.0
501979,-0.117274,-1.122877,-0.525054,-0.215531,-0.072508,0.526062,0.0,16.0,76.0,180.0,26.0,1.0
501980,-0.086216,-1.151231,-0.487256,-0.203982,-0.240704,0.35136100000000003,0.0,16.0,76.0,180.0,26.0,1.0
501981,-0.037478,-1.187444,-0.450068,-0.453255,-0.224703,0.297153,0.0,16.0,76.0,180.0,26.0,1.0
501982,-0.013003,-1.222709,-0.433104,-0.470495,-0.351343,0.205953,0.0,16.0,76.0,180.0,26.0,1.0
501983,-0.018664,-1.257337,-0.441413,-0.398817,-0.45025,0.112098,0.0,16.0,76.0,180.0,26.0,1.0
501984,-0.055536,-1.289127,-0.476179,-0.285414,-0.391242,0.192903,0.0,16.0,76.0,180.0,26.0,1.0
501985,-0.124553,-1.316973,-0.538745,-0.220209,-0.38341,0.181273,0.0,16.0,76.0,180.0,26.0,1.0
501986,-0.230255,-1.338589,-0.633434,-0.13105899999999998,-0.403215,0.125172,0.0,16.0,76.0,180.0,26.0,1.0
501987,-0.382285,-1.349999,-0.755417,-0.049803,-0.323654,0.001443,0.0,16.0,76.0,180.0,26.0,1.0
501988,-0.5520510000000001,-1.350519,-0.8650709999999999,0.015893,-0.179984,0.055514,0.0,16.0,76.0,180.0,26.0,1.0
501989,-0.718878,-1.356932,-0.982838,0.225091,0.211854,-0.190231,0.0,16.0,76.0,180.0,26.0,1.0
501990,-0.864189,-1.363957,-1.106707,0.423785,0.098677,-0.59207,0.0,16.0,76.0,180.0,26.0,1.0
501991,-0.971971,-1.36372,-1.1899110000000002,0.486898,0.057909,-0.472567,0.0,16.0,76.0,180.0,26.0,1.0
501992,-1.053607,-1.3629129999999998,-1.232,0.435723,-0.158203,-0.17891600000000002,0.0,16.0,76.0,180.0,26.0,1.0
501993,-1.083174,-1.3674309999999998,-1.239001,0.148149,-0.118492,-0.188076,0.0,16.0,76.0,180.0,26.0,1.0
501994,-1.056618,-1.379436,-1.213591,0.008905,-0.094051,-0.352796,0.0,16.0,76.0,180.0,26.0,1.0
501995,-0.91198,-1.376997,-1.088823,-0.117221,-0.036196,0.494651,0.0,16.0,76.0,180.0,26.0,1.0
501996,-0.777211,-1.359345,-0.948766,-0.8026449999999999,0.502116,0.012453,0.0,16.0,76.0,180.0,26.0,1.0
501997,-0.8327209999999999,-1.365551,-0.933509,-0.847266,1.520684,-0.515899,0.0,16.0,76.0,180.0,26.0,1.0
501998,-0.908125,-1.378643,-1.018617,0.8507129999999999,1.135394,-2.081106,0.0,16.0,76.0,180.0,26.0,1.0
501999,-0.67656,-1.358114,-0.8532799999999999,0.07098600000000001,-0.412191,1.365954,0.0,16.0,76.0,180.0,26.0,1.0
502000,-0.400937,-1.304439,-0.660916,-0.247507,-0.467361,0.8771370000000001,0.0,16.0,76.0,180.0,26.0,1.0
502001,-0.310337,-1.288299,-0.623551,-0.14558800000000002,-0.114735,0.737879,0.0,16.0,76.0,180.0,26.0,1.0
502002,-0.293661,-1.284149,-0.619812,-0.06313400000000001,-0.177902,0.226365,0.0,16.0,76.0,180.0,26.0,1.0
502003,-0.330361,-1.2912629999999998,-0.646543,-0.040872000000000006,-0.038333,-0.318529,0.0,16.0,76.0,180.0,26.0,1.0
502004,-0.50348,-1.332058,-0.759934,-0.039777,0.091336,-0.36712,0.0,16.0,76.0,180.0,26.0,1.0
502005,-0.757209,-1.375633,-0.949128,0.30285100000000004,0.08203300000000001,-0.458309,0.0,16.0,76.0,180.0,26.0,1.0
502006,-0.764707,-1.366976,-0.982156,0.294885,-0.146049,0.116451,0.0,16.0,76.0,180.0,26.0,1.0
502007,-0.747129,-1.345512,-0.973852,0.094848,-0.16426,-0.284408,0.0,16.0,76.0,180.0,26.0,1.0
502008,-0.7820520000000001,-1.344793,-1.008735,0.031529,0.12388,-0.540623,0.0,16.0,76.0,180.0,26.0,1.0
502009,-0.760051,-1.340365,-1.007759,0.030889,0.178089,-0.466708,0.0,16.0,76.0,180.0,26.0,1.0
502010,-0.6952189999999999,-1.324959,-0.964055,-0.02473,0.156058,-0.821341,0.0,16.0,76.0,180.0,26.0,1.0
502011,-0.60775,-1.298898,-0.893056,0.0468,0.265482,-0.427374,0.0,16.0,76.0,180.0,26.0,1.0
502012,-0.488292,-1.254574,-0.7972,0.042842,0.300377,-0.236978,0.0,16.0,76.0,180.0,26.0,1.0
502013,-0.389829,-1.197433,-0.713831,-0.098369,0.270646,0.340144,0.0,16.0,76.0,180.0,26.0,1.0
502014,-0.32344,-1.133358,-0.653092,-0.16806500000000002,0.369291,0.740947,0.0,16.0,76.0,180.0,26.0,1.0
502015,-0.280221,-1.066403,-0.603684,-0.084207,0.424505,0.919656,0.0,16.0,76.0,180.0,26.0,1.0
502016,-0.276549,-1.021765,-0.5798300000000001,0.208146,-0.148105,0.694246,0.0,16.0,76.0,180.0,26.0,1.0
502017,-0.268233,-1.015339,-0.562742,0.170748,-0.115742,0.470937,0.0,16.0,76.0,180.0,26.0,1.0
502018,-0.251064,-1.018775,-0.546003,0.035677,-0.026363,0.508425,0.0,16.0,76.0,180.0,26.0,1.0
502019,-0.244727,-1.024879,-0.540424,-0.353587,-0.17749700000000002,0.352791,0.0,16.0,76.0,180.0,26.0,1.0
502020,-0.241614,-1.0415299999999998,-0.5404680000000001,-0.284314,-0.233936,0.304198,0.0,16.0,76.0,180.0,26.0,1.0
502021,-0.24242600000000006,-1.071808,-0.549059,-0.284995,-0.254639,0.300938,0.0,16.0,76.0,180.0,26.0,1.0
502022,-0.255417,-1.108916,-0.5675020000000001,-0.333152,-0.341978,0.221685,0.0,16.0,76.0,180.0,26.0,1.0
502023,-0.288402,-1.150088,-0.594644,-0.323599,-0.402592,0.161832,0.0,16.0,76.0,180.0,26.0,1.0
502024,-0.351852,-1.1941389999999998,-0.6416069999999999,-0.26693,-0.498549,0.180773,0.0,16.0,76.0,180.0,26.0,1.0
502025,-0.45712,-1.235515,-0.718308,-0.188731,-0.471173,0.14446199999999998,0.0,16.0,76.0,180.0,26.0,1.0
502026,-0.607075,-1.262569,-0.83205,0.286159,0.143242,0.029175,0.0,16.0,76.0,180.0,26.0,1.0
502027,-0.7462489999999999,-1.2881,-0.954263,0.7064600000000001,0.559682,-0.731241,0.0,16.0,76.0,180.0,26.0,1.0
502028,-0.8479709999999999,-1.312669,-1.051553,0.673504,0.365695,-1.102854,0.0,16.0,76.0,180.0,26.0,1.0
502029,-0.940693,-1.326476,-1.119571,0.8791100000000001,0.484059,-0.983402,0.0,16.0,76.0,180.0,26.0,1.0
502030,-0.926481,-1.336108,-1.1061450000000002,0.8225399999999999,0.226662,-0.162956,0.0,16.0,76.0,180.0,26.0,1.0
502031,-0.711087,-1.315911,-0.921689,-0.52113,0.008687,0.70276,0.0,16.0,76.0,180.0,26.0,1.0
502032,-0.611509,-1.311232,-0.801617,-1.482506,1.015432,-0.249237,0.0,16.0,76.0,180.0,26.0,1.0
502033,-0.752482,-1.326642,-0.8271270000000001,-0.8116869999999999,1.052348,0.596155,0.0,16.0,76.0,180.0,26.0,1.0
502034,-0.7621,-1.320242,-0.8477049999999999,0.063885,-0.041361,0.138902,0.0,16.0,76.0,180.0,26.0,1.0
502035,-0.73339,-1.3160040000000002,-0.8329780000000001,0.150371,0.077908,0.539628,0.0,16.0,76.0,180.0,26.0,1.0
502036,-0.7464069999999999,-1.326343,-0.868842,-0.018697,1.017874,-0.374175,0.0,16.0,76.0,180.0,26.0,1.0
502037,-0.878619,-1.350055,-1.000138,0.34880900000000004,0.354495,-0.05843200000000001,0.0,16.0,76.0,180.0,26.0,1.0
502038,-0.916875,-1.362431,-1.050065,0.161983,-0.213798,0.099142,0.0,16.0,76.0,180.0,26.0,1.0
502039,-0.937879,-1.364584,-1.083699,-0.035276,-0.459755,-0.10309,0.0,16.0,76.0,180.0,26.0,1.0
502040,-0.999274,-1.364561,-1.145056,0.101136,-0.373966,-0.299532,0.0,16.0,76.0,180.0,26.0,1.0
502041,-1.058638,-1.35941,-1.200225,0.201472,-0.30998600000000004,-0.359111,0.0,16.0,76.0,180.0,26.0,1.0
502042,-1.059498,-1.350982,-1.202858,-0.029618,-0.369081,-0.312439,0.0,16.0,76.0,180.0,26.0,1.0
502043,-1.054531,-1.344914,-1.197372,-0.131753,-0.393435,0.040089,0.0,16.0,76.0,180.0,26.0,1.0
502044,-1.058484,-1.337759,-1.199281,0.010925,-0.246346,-0.041755,0.0,16.0,76.0,180.0,26.0,1.0
502045,-1.076192,-1.329766,-1.20765,0.207832,-0.019692,-0.411292,0.0,16.0,76.0,180.0,26.0,1.0
502046,-1.053129,-1.3228719999999998,-1.194321,0.152701,0.08476,-0.488724,0.0,16.0,76.0,180.0,26.0,1.0
502047,-0.984266,-1.310155,-1.144283,0.009805,0.199333,-0.30895700000000004,0.0,16.0,76.0,180.0,26.0,1.0
502048,-0.914516,-1.290559,-1.086022,0.174842,0.414254,-0.352785,0.0,16.0,76.0,180.0,26.0,1.0
502049,-0.801633,-1.25958,-0.99258,0.5280560000000001,1.101139,-0.545716,0.0,16.0,76.0,180.0,26.0,1.0
502050,-0.64431,-1.213993,-0.851792,0.379027,1.228219,-0.314666,0.0,16.0,76.0,180.0,26.0,1.0
502051,-0.513988,-1.159347,-0.719675,-0.051814,0.701332,0.4112020000000001,0.0,16.0,76.0,180.0,26.0,1.0
502052,-0.41303,-1.115023,-0.624272,-0.148951,0.257124,0.8664440000000001,0.0,16.0,76.0,180.0,26.0,1.0
502053,-0.344839,-1.075502,-0.5660890000000001,-0.056708,0.041695,0.423734,0.0,16.0,76.0,180.0,26.0,1.0
502054,-0.31823,-1.0565790000000002,-0.52862,0.048104,0.14371099999999998,0.264413,0.0,16.0,76.0,180.0,26.0,1.0
502055,-0.283295,-1.071648,-0.491597,0.399013,-0.031784,0.333879,0.0,16.0,76.0,180.0,26.0,1.0
502056,-0.241492,-1.084649,-0.451063,0.03793,-0.177474,0.323949,0.0,16.0,76.0,180.0,26.0,1.0
502057,-0.212479,-1.100301,-0.420708,-0.107892,-0.231722,0.26731900000000003,0.0,16.0,76.0,180.0,26.0,1.0
502058,-0.202754,-1.123478,-0.401833,-0.14765599999999998,-0.205504,0.261226,0.0,16.0,76.0,180.0,26.0,1.0
502059,-0.216211,-1.151207,-0.393351,-0.121726,-0.256243,0.242213,0.0,16.0,76.0,180.0,26.0,1.0
502060,-0.255701,-1.177654,-0.398308,-0.116074,-0.332538,0.248152,0.0,16.0,76.0,180.0,26.0,1.0
502061,-0.310993,-1.2015870000000002,-0.420713,-0.071883,-0.400554,0.230893,0.0,16.0,76.0,180.0,26.0,1.0
502062,-0.380734,-1.227255,-0.462829,-0.004536,-0.367471,0.129428,0.0,16.0,76.0,180.0,26.0,1.0
502063,-0.478387,-1.253214,-0.523879,-0.125124,-0.374233,0.048116,0.0,16.0,76.0,180.0,26.0,1.0
502064,-0.610627,-1.266135,-0.594141,-0.222308,-0.388138,-0.022964,0.0,16.0,76.0,180.0,26.0,1.0
502065,-0.729049,-1.263576,-0.6418020000000001,-0.214168,-0.025032,-0.324008,0.0,16.0,76.0,180.0,26.0,1.0
502066,-0.8181229999999999,-1.261413,-0.678584,-0.058420000000000014,0.300683,-0.752822,0.0,16.0,76.0,180.0,26.0,1.0
502067,-0.8933760000000001,-1.248558,-0.698391,0.303935,0.169651,-0.731132,0.0,16.0,76.0,180.0,26.0,1.0
502068,-0.95487,-1.233328,-0.699253,0.4626810000000001,0.023537,-0.477606,0.0,16.0,76.0,180.0,26.0,1.0
502069,-0.998334,-1.223763,-0.694404,0.353952,-0.080294,-0.396299,0.0,16.0,76.0,180.0,26.0,1.0
502070,-1.009208,-1.221574,-0.6756810000000001,0.041594,-0.15848099999999998,-0.454079,0.0,16.0,76.0,180.0,26.0,1.0
502071,-0.992568,-1.218703,-0.639356,-0.222023,0.029685000000000007,-0.8762790000000001,0.0,16.0,76.0,180.0,26.0,1.0
502072,-0.990121,-1.212048,-0.610247,-0.123457,0.5352359999999999,-0.612949,0.0,16.0,76.0,180.0,26.0,1.0
502073,-0.952093,-1.187219,-0.5463399999999999,0.15333,0.762182,1.81556,0.0,16.0,76.0,180.0,26.0,1.0
502074,-0.830528,-1.169073,-0.463404,-0.906305,1.765097,0.745034,0.0,16.0,76.0,180.0,26.0,1.0
502075,-0.8356399999999999,-1.191103,-0.477963,-0.77215,1.08114,-1.261853,0.0,16.0,76.0,180.0,26.0,1.0
502076,-0.844564,-1.192316,-0.498174,0.138913,-0.548917,0.365048,0.0,16.0,76.0,180.0,26.0,1.0
502077,-0.735885,-1.162578,-0.416704,0.161545,0.013659,0.926636,0.0,16.0,76.0,180.0,26.0,1.0
502078,-0.7118399999999999,-1.147846,-0.397011,0.225408,0.15775899999999998,1.290787,0.0,16.0,76.0,180.0,26.0,1.0
502079,-0.733594,-1.151529,-0.41633,-0.033741,0.582264,0.712043,0.0,16.0,76.0,180.0,26.0,1.0
502080,-0.8444360000000001,-1.179905,-0.47844,-0.005884,0.472296,0.157269,0.0,16.0,76.0,180.0,26.0,1.0
502081,-1.079153,-1.224513,-0.6254770000000001,-0.198739,0.139605,-0.372416,0.0,16.0,76.0,180.0,26.0,1.0
502082,-1.355902,-1.252921,-0.793327,-0.5028560000000001,0.034046,-0.308138,0.0,16.0,76.0,180.0,26.0,1.0
502083,-1.448333,-1.250934,-0.848009,0.011691,-0.033309,-0.254299,0.0,16.0,76.0,180.0,26.0,1.0
502084,-1.4483549999999998,-1.242912,-0.867351,0.503875,-0.097361,0.043498,0.0,16.0,76.0,180.0,26.0,1.0
502085,-1.4732,-1.241193,-0.903975,0.57992,-0.190433,0.100294,0.0,16.0,76.0,180.0,26.0,1.0
502086,-1.546013,-1.244154,-0.965532,0.167059,-0.235516,0.146623,0.0,16.0,76.0,180.0,26.0,1.0
502087,-1.66117,-1.244346,-1.065504,0.079179,-0.128095,0.077916,0.0,16.0,76.0,180.0,26.0,1.0
502088,-1.789111,-1.2332299999999998,-1.180504,0.055548,-0.052969,0.011186,0.0,16.0,76.0,180.0,26.0,1.0
502089,-1.883869,-1.214185,-1.26924,0.32178,0.059527,-0.305635,0.0,16.0,76.0,180.0,26.0,1.0
502090,-1.94863,-1.1956639999999998,-1.325548,0.396378,0.205542,-0.390367,0.0,16.0,76.0,180.0,26.0,1.0
502091,-2.00141,-1.179073,-1.357628,0.406996,0.338977,-0.546281,0.0,16.0,76.0,180.0,26.0,1.0
502092,-2.055202,-1.167481,-1.377673,0.12083900000000003,0.273442,-0.932351,0.0,16.0,76.0,180.0,26.0,1.0
502093,-2.099507,-1.160776,-1.375088,0.051467999999999986,0.254289,-0.908165,0.0,16.0,76.0,180.0,26.0,1.0
502094,-2.091947,-1.157039,-1.320527,0.37008,0.372698,-0.6813239999999999,0.0,16.0,76.0,180.0,26.0,1.0
502095,-2.032885,-1.154983,-1.232521,0.46099,0.421958,-0.5459069999999999,0.0,16.0,76.0,180.0,26.0,1.0
502096,-1.956651,-1.154054,-1.119025,0.476533,0.478242,-0.6199279999999999,0.0,16.0,76.0,180.0,26.0,1.0
502097,-1.847501,-1.156658,-0.943545,0.5206930000000001,0.957568,-0.465977,0.0,16.0,76.0,180.0,26.0,1.0
502098,-1.685116,-1.15615,-0.700084,0.8309540000000001,1.323633,0.453679,0.0,16.0,76.0,180.0,26.0,1.0
502099,-1.519418,-1.146498,-0.4568680000000001,1.055037,1.022663,0.920342,0.0,16.0,76.0,180.0,26.0,1.0
502100,-1.362611,-1.129731,-0.23165,0.827881,0.239868,1.121909,0.0,16.0,76.0,180.0,26.0,1.0
502101,-1.241079,-1.112112,-0.060948,0.527968,0.385972,0.786254,0.0,16.0,76.0,180.0,26.0,1.0
502102,-1.169724,-1.106066,0.036298,0.468213,0.42872,0.651762,0.0,16.0,76.0,180.0,26.0,1.0
502103,-1.108936,-1.115432,0.102399,0.235839,0.517518,0.356451,0.0,16.0,76.0,180.0,26.0,1.0
502104,-1.031627,-1.130416,0.181974,0.149312,0.298947,0.372807,0.0,16.0,76.0,180.0,26.0,1.0
502105,-0.945672,-1.144132,0.273181,0.10228,0.078067,0.478013,0.0,16.0,76.0,180.0,26.0,1.0
502106,-0.8715950000000001,-1.156886,0.361834,0.21695,0.065249,0.633179,0.0,16.0,76.0,180.0,26.0,1.0
502107,-0.830297,-1.171005,0.441353,0.401645,0.087662,0.598299,0.0,16.0,76.0,180.0,26.0,1.0
502108,-0.817183,-1.182716,0.519116,0.33520700000000003,0.083625,0.529092,0.0,16.0,76.0,180.0,26.0,1.0
502109,-0.803349,-1.199113,0.5967100000000001,0.090277,0.08404500000000001,0.432696,0.0,16.0,76.0,180.0,26.0,1.0
502110,-0.788618,-1.216213,0.670253,-0.102585,-0.039766,0.404302,0.0,16.0,76.0,180.0,26.0,1.0
502111,-0.785151,-1.2291450000000002,0.737476,-0.077407,-0.12453,0.389309,0.0,16.0,76.0,180.0,26.0,1.0
502112,-0.7858149999999999,-1.237815,0.804185,0.018846,-0.079762,0.357077,0.0,16.0,76.0,180.0,26.0,1.0
502113,-0.7774300000000001,-1.241297,0.882971,0.039433,-0.014044999999999998,0.34061,0.0,16.0,76.0,180.0,26.0,1.0
502114,-0.754236,-1.238449,0.981502,-0.14884,-0.155744,0.307247,0.0,16.0,76.0,180.0,26.0,1.0
502115,-0.724748,-1.233686,1.086149,-0.173595,-0.187077,0.284155,0.0,16.0,76.0,180.0,26.0,1.0
502116,-0.707613,-1.232519,1.177797,-0.055893,-0.299956,0.293365,0.0,16.0,76.0,180.0,26.0,1.0
502117,-0.7032619999999999,-1.2351219999999998,1.253444,-0.033954000000000005,-0.322774,0.301949,0.0,16.0,76.0,180.0,26.0,1.0
502118,-0.7107479999999999,-1.243476,1.305764,-0.02527,-0.304283,0.183871,0.0,16.0,76.0,180.0,26.0,1.0
502119,-0.736147,-1.254999,1.330239,0.045821,-0.213733,0.034134,0.0,16.0,76.0,180.0,26.0,1.0
502120,-0.7906770000000001,-1.266568,1.323392,0.122489,-0.108375,-0.213778,0.0,16.0,76.0,180.0,26.0,1.0
502121,-0.8666889999999999,-1.274534,1.29762,0.25332,0.180239,-0.512841,0.0,16.0,76.0,180.0,26.0,1.0
502122,-0.926207,-1.275205,1.288209,0.480741,0.496678,-0.716677,0.0,16.0,76.0,180.0,26.0,1.0
502123,-0.938912,-1.272426,1.326203,0.484587,0.608667,-0.740464,0.0,16.0,76.0,180.0,26.0,1.0
502124,-0.920532,-1.272683,1.398291,0.192144,0.296442,-0.456025,0.0,16.0,76.0,180.0,26.0,1.0
502125,-0.892548,-1.274311,1.470148,-0.043672,0.477606,-0.133543,0.0,16.0,76.0,180.0,26.0,1.0
502126,-0.86677,-1.27672,1.514434,-0.05905,0.726829,0.063486,0.0,16.0,76.0,180.0,26.0,1.0
502127,-0.7900560000000001,-1.270452,1.554995,-0.407833,0.123607,0.8809290000000001,0.0,16.0,76.0,180.0,26.0,1.0
502128,-0.6329779999999999,-1.250917,1.634402,-0.576793,-0.8559959999999999,0.22893,0.0,16.0,76.0,180.0,26.0,1.0
502129,-0.583699,-1.248675,1.6590049999999998,-0.63138,-1.064426,0.487408,0.0,16.0,76.0,180.0,26.0,1.0
502130,-0.634179,-1.254232,1.613541,-0.078797,-0.231927,1.174106,0.0,16.0,76.0,180.0,26.0,1.0
502131,-0.7041649999999999,-1.260161,1.540114,-0.015422,0.355813,1.006744,0.0,16.0,76.0,180.0,26.0,1.0
502132,-0.757346,-1.257247,1.482631,0.019522,0.470462,0.748263,0.0,16.0,76.0,180.0,26.0,1.0
502133,-0.850776,-1.25727,1.406518,0.545381,0.807064,-0.23377,0.0,16.0,76.0,180.0,26.0,1.0
502134,-0.928104,-1.250567,1.377474,0.463583,0.275584,-0.003873,0.0,16.0,76.0,180.0,26.0,1.0
502135,-0.980116,-1.238738,1.3890559999999998,0.342159,0.121796,0.142821,0.0,16.0,76.0,180.0,26.0,1.0
502136,-1.047242,-1.23712,1.382216,0.181285,-0.131795,0.303682,0.0,16.0,76.0,180.0,26.0,1.0
502137,-1.111878,-1.239295,1.368864,0.167804,-0.117185,0.097356,0.0,16.0,76.0,180.0,26.0,1.0
502138,-1.181218,-1.245414,1.347697,0.16431700000000002,-0.055255999999999986,-0.062476,0.0,16.0,76.0,180.0,26.0,1.0
502139,-1.250627,-1.251768,1.325762,0.140395,-0.052095,-0.077499,0.0,16.0,76.0,180.0,26.0,1.0
502140,-1.310284,-1.261161,1.303941,-0.10433599999999997,-0.059622,-0.16027,0.0,16.0,76.0,180.0,26.0,1.0
502141,-1.362076,-1.272966,1.271847,-0.135523,-0.06683099999999999,-0.16553099999999998,0.0,16.0,76.0,180.0,26.0,1.0
502142,-1.403804,-1.282089,1.244517,-0.160693,-0.09701,-0.175104,0.0,16.0,76.0,180.0,26.0,1.0
502143,-1.445529,-1.287039,1.218608,0.12573800000000002,-0.317203,-0.127345,0.0,16.0,76.0,180.0,26.0,1.0
502144,-1.486283,-1.286716,1.189093,0.275939,-0.361806,-0.168465,0.0,16.0,76.0,180.0,26.0,1.0
502145,-1.517958,-1.285457,1.156259,0.508955,-0.274355,-0.140454,0.0,16.0,76.0,180.0,26.0,1.0
502146,-1.542531,-1.287355,1.124578,0.281554,-0.077973,-0.426255,0.0,16.0,76.0,180.0,26.0,1.0
502147,-1.562081,-1.290875,1.106057,0.046599,-0.078051,-0.451053,0.0,16.0,76.0,180.0,26.0,1.0
502148,-1.561305,-1.293949,1.115805,-0.040923,-0.39019,-0.143921,0.0,16.0,76.0,180.0,26.0,1.0
502149,-1.504438,-1.294159,1.178589,0.048955,-0.432118,0.084135,0.0,16.0,76.0,180.0,26.0,1.0
502150,-1.453331,-1.293226,1.246151,0.119671,-0.22236,0.038582,0.0,16.0,76.0,180.0,26.0,1.0
502151,-1.436785,-1.293887,1.281831,0.269732,0.08152100000000001,-0.199452,0.0,16.0,76.0,180.0,26.0,1.0
502152,-1.396342,-1.298412,1.31224,0.224499,0.114016,-0.8371719999999999,0.0,16.0,76.0,180.0,26.0,1.0
502153,-1.2669549999999998,-1.299381,1.415322,0.084632,0.253603,-0.9132,0.0,16.0,76.0,180.0,26.0,1.0
502154,-1.054835,-1.283298,1.614802,0.025167,1.366621,-0.298813,0.0,16.0,76.0,180.0,26.0,1.0
502155,-0.802623,-1.243793,1.85727,0.021024,1.600537,-0.262236,0.0,16.0,76.0,180.0,26.0,1.0
502156,-0.6043390000000001,-1.189484,2.051231,-0.177647,0.420196,0.999472,0.0,16.0,76.0,180.0,26.0,1.0
502157,-0.480484,-1.135204,2.181023,-0.19595,-0.177204,0.787802,0.0,16.0,76.0,180.0,26.0,1.0
502158,-0.385719,-1.11122,2.264339,-0.217413,0.0858,0.305582,0.0,16.0,76.0,180.0,26.0,1.0
502159,-0.30788000000000004,-1.099817,2.329534,0.001885,0.4276930000000001,0.389908,0.0,16.0,76.0,180.0,26.0,1.0
502160,-0.25638,-1.079013,2.383115,-0.123608,0.359994,0.372624,0.0,16.0,76.0,180.0,26.0,1.0
502161,-0.202898,-1.082936,2.43057,0.077761,-0.104194,0.417415,0.0,16.0,76.0,180.0,26.0,1.0
502162,-0.156382,-1.100123,2.469349,-0.010793,-0.32655100000000004,0.51672,0.0,16.0,76.0,180.0,26.0,1.0
502163,-0.132189,-1.119603,2.492291,-0.139611,-0.352854,0.486309,0.0,16.0,76.0,180.0,26.0,1.0
502164,-0.113524,-1.150617,2.508342,-0.259088,-0.366766,0.380849,0.0,16.0,76.0,180.0,26.0,1.0
502165,-0.104851,-1.193495,2.513661,-0.32419000000000003,-0.420629,0.298238,0.0,16.0,76.0,180.0,26.0,1.0
502166,-0.124474,-1.242673,2.494943,-0.23973000000000005,-0.538461,0.27431,0.0,16.0,76.0,180.0,26.0,1.0
502167,-0.17886400000000002,-1.290602,2.442834,-0.106563,-0.674609,0.236691,0.0,16.0,76.0,180.0,26.0,1.0
502168,-0.286589,-1.332103,2.342528,-0.07496699999999999,-0.665419,0.188129,0.0,16.0,76.0,180.0,26.0,1.0
502169,-0.486674,-1.359685,2.166847,-0.069972,-0.5930479999999999,0.141901,0.0,16.0,76.0,180.0,26.0,1.0
502170,-0.74942,-1.364033,1.96873,-0.059318,0.223311,-0.198366,0.0,16.0,76.0,180.0,26.0,1.0
502171,-0.980989,-1.360855,1.83374,-0.025976,0.223968,-0.232742,0.0,16.0,76.0,180.0,26.0,1.0
502172,-1.179453,-1.362093,1.69097,0.06680499999999999,0.378038,-0.904466,0.0,16.0,76.0,180.0,26.0,1.0
502173,-1.295375,-1.365196,1.582892,0.295919,0.058354,-0.6550239999999999,0.0,16.0,76.0,180.0,26.0,1.0
502174,-1.399289,-1.3672879999999998,1.492099,0.311661,-0.039315,-0.535242,0.0,16.0,76.0,180.0,26.0,1.0
502175,-1.482327,-1.371301,1.429152,0.07919,-0.114597,-0.386407,0.0,16.0,76.0,180.0,26.0,1.0
502176,-1.521811,-1.383119,1.395131,-0.27396,0.258115,-0.736333,0.0,16.0,76.0,180.0,26.0,1.0
502177,-1.466244,-1.393784,1.443343,0.205063,0.164994,0.913227,0.0,16.0,76.0,180.0,26.0,1.0
502178,-1.149744,-1.380943,1.7405259999999998,-0.375909,0.631478,0.289451,0.0,16.0,76.0,180.0,26.0,1.0
502179,-1.091449,-1.373897,1.83857,-0.333436,0.66132,-0.043343,0.0,16.0,76.0,180.0,26.0,1.0
502180,-1.196935,-1.364908,1.7902349999999998,-0.435447,0.765474,-0.29517,0.0,16.0,76.0,180.0,26.0,1.0
502181,-1.189712,-1.357259,1.80534,0.507141,0.616585,-0.77983,0.0,16.0,76.0,180.0,26.0,1.0
502182,-1.012417,-1.345443,1.942549,0.219529,-0.11103699999999997,0.496324,0.0,16.0,76.0,180.0,26.0,1.0
502183,-0.8484149999999999,-1.334603,2.076489,-0.111655,0.075173,0.656691,0.0,16.0,76.0,180.0,26.0,1.0
502184,-0.7990079999999999,-1.335161,2.09683,-0.052439,-0.036957,0.521559,0.0,16.0,76.0,180.0,26.0,1.0
502185,-0.8176800000000001,-1.345276,2.060316,-0.020938,-0.194344,0.318267,0.0,16.0,76.0,180.0,26.0,1.0
502186,-0.922024,-1.36291,1.9627330000000005,0.033189,-0.171722,0.01007,0.0,16.0,76.0,180.0,26.0,1.0
502187,-1.140588,-1.385402,1.768684,0.216531,0.015168,-0.579029,0.0,16.0,76.0,180.0,26.0,1.0
502188,-1.361887,-1.401707,1.544161,0.11637,0.013438,-0.636918,0.0,16.0,76.0,180.0,26.0,1.0
502189,-1.318983,-1.404406,1.550659,0.08316799999999999,-0.178343,-0.34638800000000003,0.0,16.0,76.0,180.0,26.0,1.0
502190,-1.211818,-1.398933,1.633889,-0.103667,-0.155693,-0.667511,0.0,16.0,76.0,180.0,26.0,1.0
502191,-1.14039,-1.392747,1.6920380000000002,-0.123608,-0.17459000000000002,-0.533442,0.0,16.0,76.0,180.0,26.0,1.0
502192,-1.015557,-1.37792,1.8003,-0.096574,-0.203549,-0.303552,0.0,16.0,76.0,180.0,26.0,1.0
502193,-0.9005989999999999,-1.35617,1.90612,0.011673,-0.094762,-0.471936,0.0,16.0,76.0,180.0,26.0,1.0
502194,-0.767918,-1.33011,2.01893,0.151456,0.020601,-0.231141,0.0,16.0,76.0,180.0,26.0,1.0
502195,-0.6125520000000001,-1.291844,2.150649,-0.009387,0.342977,-0.140569,0.0,16.0,76.0,180.0,26.0,1.0
502196,-0.474179,-1.23915,2.26707,-0.0016170000000000002,0.366428,0.276988,0.0,16.0,76.0,180.0,26.0,1.0
502197,-0.387954,-1.17804,2.348747,-0.086386,0.412782,0.7230310000000001,0.0,16.0,76.0,180.0,26.0,1.0
502198,-0.339904,-1.125564,2.40084,-0.090336,0.452806,0.770738,0.0,16.0,76.0,180.0,26.0,1.0
502199,-0.314469,-1.091488,2.430902,0.033557,0.183578,0.567421,0.0,16.0,76.0,180.0,26.0,1.0
502200,-0.280824,-1.088911,2.451121,0.045511,0.176759,0.457514,0.0,16.0,76.0,180.0,26.0,1.0
502201,-0.247024,-1.102533,2.467734,-0.193199,0.118023,0.493724,0.0,16.0,76.0,180.0,26.0,1.0
502202,-0.211893,-1.12649,2.483426,-0.341167,-0.07335,0.233751,0.0,16.0,76.0,180.0,26.0,1.0
502203,-0.173061,-1.163319,2.494896,-0.17716700000000002,-0.404299,0.233219,0.0,16.0,76.0,180.0,26.0,1.0
502204,-0.15315299999999998,-1.202468,2.489163,-0.21397800000000006,-0.6446310000000001,0.245347,0.0,16.0,76.0,180.0,26.0,1.0
502205,-0.172105,-1.240818,2.45515,-0.202491,-0.645146,0.23033,0.0,16.0,76.0,180.0,26.0,1.0
502206,-0.238322,-1.280518,2.3841,-0.151108,-0.558338,0.147703,0.0,16.0,76.0,180.0,26.0,1.0
502207,-0.368669,-1.321182,2.267114,-0.076035,-0.324751,-0.059069,0.0,16.0,76.0,180.0,26.0,1.0
502208,-0.59817,-1.352861,2.092818,0.191161,0.072848,-0.210042,0.0,16.0,76.0,180.0,26.0,1.0
502209,-0.8618290000000001,-1.36227,1.909183,0.545778,0.224788,-0.315015,0.0,16.0,76.0,180.0,26.0,1.0
502210,-1.031342,-1.36479,1.782639,0.555783,0.234706,-0.590723,0.0,16.0,76.0,180.0,26.0,1.0
502211,-1.136542,-1.369504,1.6994669999999998,0.4154,0.024692,-0.440028,0.0,16.0,76.0,180.0,26.0,1.0
502212,-1.223239,-1.377856,1.631262,0.219189,-0.022353,-0.558339,0.0,16.0,76.0,180.0,26.0,1.0
502213,-1.287768,-1.389325,1.586573,0.032256,0.188555,-0.689244,0.0,16.0,76.0,180.0,26.0,1.0
502214,-1.189433,-1.402067,1.678657,-0.078787,-0.012913999999999998,0.6030979999999999,0.0,16.0,76.0,180.0,26.0,1.0
502215,-0.8758670000000001,-1.383844,1.977794,-0.993389,0.693313,0.513658,0.0,16.0,76.0,180.0,26.0,1.0
502216,-0.792579,-1.368548,2.100936,-1.379814,1.198544,0.067884,0.0,16.0,76.0,180.0,26.0,1.0
502217,-0.906639,-1.369656,2.046916,-0.808895,0.967548,-0.8166359999999999,0.0,16.0,76.0,180.0,26.0,1.0
502218,-1.09784,-1.379341,1.889527,1.00378,0.443305,-0.396376,0.0,16.0,76.0,180.0,26.0,1.0
502219,-0.944844,-1.364013,1.994449,0.15073399999999998,-0.173994,0.32820900000000003,0.0,16.0,76.0,180.0,26.0,1.0
502220,-0.775943,-1.345798,2.145601,-0.068359,-0.090426,0.632378,0.0,16.0,76.0,180.0,26.0,1.0
502221,-0.722942,-1.336769,2.172242,-0.009276,0.038353,0.541663,0.0,16.0,76.0,180.0,26.0,1.0
502222,-0.754038,-1.341878,2.126319,0.032797,0.020183,0.123868,0.0,16.0,76.0,180.0,26.0,1.0
502223,-0.89581,-1.361451,2.0048790000000003,0.114964,0.0016,-0.065825,0.0,16.0,76.0,180.0,26.0,1.0
502224,-1.147832,-1.385609,1.789086,0.210598,-0.023505,-0.562459,0.0,16.0,76.0,180.0,26.0,1.0
502225,-1.378922,-1.398748,1.565774,0.005932,-0.177466,-0.735727,0.0,16.0,76.0,180.0,26.0,1.0
502226,-1.352154,-1.393907,1.574139,0.014383000000000003,-0.303671,-0.327894,0.0,16.0,76.0,180.0,26.0,1.0
502227,-1.2580559999999998,-1.382104,1.661352,0.083429,-0.4109,0.093152,0.0,16.0,76.0,180.0,26.0,1.0
502228,-1.230126,-1.374571,1.685936,0.062455,-0.36292,-0.057177,0.0,16.0,76.0,180.0,26.0,1.0
502229,-1.235337,-1.3711870000000002,1.6694830000000005,0.030158,-0.174846,-0.505927,0.0,16.0,76.0,180.0,26.0,1.0
502230,-1.197887,-1.367394,1.689771,0.109169,0.061615,-0.265797,0.0,16.0,76.0,180.0,26.0,1.0
502231,-1.093776,-1.359227,1.77742,0.070892,-0.027049,-0.19035,0.0,16.0,76.0,180.0,26.0,1.0
502232,-0.983861,-1.346191,1.873433,-0.005681,-0.16139,-0.470366,0.0,16.0,76.0,180.0,26.0,1.0
502233,-0.84229,-1.325182,1.985004,0.168148,0.521147,-0.501504,0.0,16.0,76.0,180.0,26.0,1.0
502234,-0.65971,-1.293643,2.129985,0.072186,0.8954770000000001,-0.235478,0.0,16.0,76.0,180.0,26.0,1.0
502235,-0.498014,-1.248772,2.268403,0.015022,0.780895,0.054374,0.0,16.0,76.0,180.0,26.0,1.0
502236,-0.408159,-1.187662,2.370272,-0.156554,0.412438,0.5847680000000001,0.0,16.0,76.0,180.0,26.0,1.0
502237,-0.362144,-1.12134,2.436048,-0.34178800000000004,-0.018832,1.043971,0.0,16.0,76.0,180.0,26.0,1.0
502238,-0.316467,-1.083172,2.476396,-0.115207,-0.071467,0.7455350000000001,0.0,16.0,76.0,180.0,26.0,1.0
502239,-0.304824,-1.0781969999999998,2.492315,-0.202504,0.144299,0.468431,0.0,16.0,76.0,180.0,26.0,1.0
502240,-0.290723,-1.099523,2.50383,-0.220521,0.089768,0.122953,0.0,16.0,76.0,180.0,26.0,1.0
502241,-0.24700500000000006,-1.136292,2.5190200000000003,-0.17391600000000002,-0.158635,0.23435100000000006,0.0,16.0,76.0,180.0,26.0,1.0
502242,-0.207998,-1.177538,2.521067,-0.221178,-0.314077,0.326625,0.0,16.0,76.0,180.0,26.0,1.0
502243,-0.196259,-1.216449,2.502269,-0.272123,-0.406623,0.31112,0.0,16.0,76.0,180.0,26.0,1.0
502244,-0.213496,-1.255997,2.461317,-0.242688,-0.529197,0.321738,0.0,16.0,76.0,180.0,26.0,1.0
502245,-0.265327,-1.297505,2.390814,-0.113554,-0.501462,0.250103,0.0,16.0,76.0,180.0,26.0,1.0
502246,-0.380536,-1.333224,2.274828,0.009388,-0.521076,0.18885,0.0,16.0,76.0,180.0,26.0,1.0
502247,-0.565866,-1.353423,2.119161,0.057470000000000014,-0.6031,0.017669,0.0,16.0,76.0,180.0,26.0,1.0
502248,-0.7874909999999999,-1.359947,1.968388,-0.026042000000000003,-0.203073,0.089198,0.0,16.0,76.0,180.0,26.0,1.0
502249,-1.079476,-1.37709,1.751741,0.198459,0.307872,-0.788478,0.0,16.0,76.0,180.0,26.0,1.0
502250,-1.335531,-1.382411,1.550903,0.64172,0.450096,-1.272483,0.0,16.0,76.0,180.0,26.0,1.0
502251,-1.366774,-1.379976,1.529127,0.663387,0.018441,-0.705869,0.0,16.0,76.0,180.0,26.0,1.0
502252,-1.363704,-1.38196,1.532577,0.215119,-0.054214,-0.614788,0.0,16.0,76.0,180.0,26.0,1.0
502253,-1.375957,-1.394616,1.517822,-0.536181,0.338264,-0.426992,0.0,16.0,76.0,180.0,26.0,1.0
502254,-1.269341,-1.411135,1.616498,-0.122438,-0.007286,0.991213,0.0,16.0,76.0,180.0,26.0,1.0
502255,-0.954826,-1.391352,1.914101,-0.5329999999999999,0.605962,0.778706,0.0,16.0,76.0,180.0,26.0,1.0
502256,-0.934703,-1.3834959999999998,1.962384,-0.26087,0.726672,0.769405,0.0,16.0,76.0,180.0,26.0,1.0
502257,-1.017231,-1.373729,1.917391,-0.205578,0.812797,-0.76022,0.0,16.0,76.0,180.0,26.0,1.0
502258,-1.18254,-1.372827,1.7898349999999998,-0.028351,1.535935,-2.007688,0.0,16.0,76.0,180.0,26.0,1.0
502259,-1.070257,-1.363443,1.85047,0.169628,-0.178652,0.383945,0.0,16.0,76.0,180.0,26.0,1.0
502260,-0.8625229999999999,-1.34633,2.039955,-0.026884,-0.030806,0.635083,0.0,16.0,76.0,180.0,26.0,1.0
502261,-0.809408,-1.340462,2.068335,-0.052139,0.055524,0.507706,0.0,16.0,76.0,180.0,26.0,1.0
502262,-0.843807,-1.350054,2.01125,-0.049045,-0.022656,0.208409,0.0,16.0,76.0,180.0,26.0,1.0
502263,-0.950232,-1.364571,1.90707,0.052041,-0.199102,-0.045078,0.0,16.0,76.0,180.0,26.0,1.0
502264,-1.144484,-1.379517,1.740062,0.16597,-0.263683,-0.476218,0.0,16.0,76.0,180.0,26.0,1.0
502265,-1.359127,-1.388652,1.55355,0.008586,-0.195021,-0.6398050000000001,0.0,16.0,76.0,180.0,26.0,1.0
502266,-1.388937,-1.382626,1.519082,0.281673,-0.235598,-0.216142,0.0,16.0,76.0,180.0,26.0,1.0
502267,-1.328832,-1.372118,1.56752,0.314178,-0.284604,-0.014113,0.0,16.0,76.0,180.0,26.0,1.0
502268,-1.29051,-1.36913,1.58943,0.272925,-0.25710900000000003,-0.125565,0.0,16.0,76.0,180.0,26.0,1.0
502269,-1.278665,-1.370247,1.587431,0.052702,-0.09214,-0.400002,0.0,16.0,76.0,180.0,26.0,1.0
502270,-1.210749,-1.369891,1.6342,0.013875,-0.10983,-0.254743,0.0,16.0,76.0,180.0,26.0,1.0
502271,-1.117382,-1.364004,1.718495,-0.006514,-0.14968499999999998,-0.13146,0.0,16.0,76.0,180.0,26.0,1.0
502272,-1.03403,-1.352526,1.806785,0.116416,-0.052552,-0.4668390000000001,0.0,16.0,76.0,180.0,26.0,1.0
502273,-0.899752,-1.331988,1.92695,0.15650999999999998,0.112165,-0.397604,0.0,16.0,76.0,180.0,26.0,1.0
502274,-0.728808,-1.300948,2.076245,0.127345,0.455042,-0.47499,0.0,16.0,76.0,180.0,26.0,1.0
502275,-0.5567880000000001,-1.25124,2.229601,-0.229591,0.6672170000000001,0.13306500000000002,0.0,16.0,76.0,180.0,26.0,1.0
502276,-0.44592,-1.194858,2.338349,-0.188368,0.396161,0.638655,0.0,16.0,76.0,180.0,26.0,1.0
502277,-0.391433,-1.13266,2.40793,-0.369654,0.040882,1.035011,0.0,16.0,76.0,180.0,26.0,1.0
502278,-0.355897,-1.078718,2.448777,-0.055261000000000005,-0.055578,0.836966,0.0,16.0,76.0,180.0,26.0,1.0
502279,-0.334859,-1.059399,2.465892,-0.091137,0.17966600000000002,0.6615489999999999,0.0,16.0,76.0,180.0,26.0,1.0
502280,-0.338997,-1.067897,2.468694,-0.1005,0.172151,0.161916,0.0,16.0,76.0,180.0,26.0,1.0
502281,-0.310526,-1.101927,2.476012,0.034955,-0.191457,0.267724,0.0,16.0,76.0,180.0,26.0,1.0
502282,-0.282543,-1.140411,2.470205,0.025514,-0.290076,0.317908,0.0,16.0,76.0,180.0,26.0,1.0
502283,-0.283603,-1.177276,2.441534,-0.16661900000000002,-0.508282,0.31958000000000003,0.0,16.0,76.0,180.0,26.0,1.0
502284,-0.315418,-1.216298,2.393894,-0.200289,-0.52063,0.31247,0.0,16.0,76.0,180.0,26.0,1.0
502285,-0.375818,-1.259691,2.32583,-0.138124,-0.530472,0.250406,0.0,16.0,76.0,180.0,26.0,1.0
502286,-0.481809,-1.303343,2.2270060000000003,0.106556,-0.543549,0.13939200000000002,0.0,16.0,76.0,180.0,26.0,1.0
502287,-0.6699689999999999,-1.336745,2.075887,0.110664,-0.387881,-0.039719,0.0,16.0,76.0,180.0,26.0,1.0
502288,-0.8933840000000001,-1.356891,1.929728,0.06978200000000001,-0.079184,-0.179337,0.0,16.0,76.0,180.0,26.0,1.0
502289,-1.124097,-1.370922,1.757512,0.371995,0.477672,-1.164116,0.0,16.0,76.0,180.0,26.0,1.0
502290,-1.215026,-1.375061,1.688532,0.544121,0.172278,-0.904158,0.0,16.0,76.0,180.0,26.0,1.0
502291,-1.253059,-1.376216,1.671312,0.326158,-0.112568,-0.60618,0.0,16.0,76.0,180.0,26.0,1.0
502292,-1.278729,-1.381571,1.665138,-0.12415,0.080777,-0.356522,0.0,16.0,76.0,180.0,26.0,1.0
502293,-1.210761,-1.39016,1.7427979999999998,-0.048393,-0.053157,0.8023600000000001,0.0,16.0,76.0,180.0,26.0,1.0
502294,-0.948114,-1.375526,1.991467,-0.671381,0.595589,0.389059,0.0,16.0,76.0,180.0,26.0,1.0
502295,-0.859741,-1.361675,2.1,-0.633828,0.8359040000000001,0.06851900000000001,0.0,16.0,76.0,180.0,26.0,1.0
502296,-0.975987,-1.3654959999999998,2.0462580000000004,-0.182378,0.240422,0.247768,0.0,16.0,76.0,180.0,26.0,1.0
502297,-1.058256,-1.369542,1.974133,0.009688,1.595394,-1.993184,0.0,16.0,76.0,180.0,26.0,1.0
502298,-1.0513860000000002,-1.367466,1.948653,0.888905,0.559923,-0.212644,0.0,16.0,76.0,180.0,26.0,1.0
502299,-0.824415,-1.347995,2.136705,-0.139246,-0.10524100000000003,0.4986060000000001,0.0,16.0,76.0,180.0,26.0,1.0
502300,-0.742537,-1.338597,2.1937330000000004,-0.158166,-0.115451,0.582431,0.0,16.0,76.0,180.0,26.0,1.0
502301,-0.743727,-1.335439,2.176016,0.023925,-0.154926,0.348591,0.0,16.0,76.0,180.0,26.0,1.0
502302,-0.81877,-1.339665,2.11607,0.096988,-0.100376,0.101637,0.0,16.0,76.0,180.0,26.0,1.0
502303,-0.987504,-1.353613,1.990326,0.152064,-0.022132,-0.182233,0.0,16.0,76.0,180.0,26.0,1.0
502304,-1.217853,-1.371827,1.793822,-0.163743,-0.079819,-0.523359,0.0,16.0,76.0,180.0,26.0,1.0
502305,-1.251333,-1.372083,1.747869,-0.080317,-0.25319400000000003,-0.207892,0.0,16.0,76.0,180.0,26.0,1.0
502306,-1.186543,-1.358847,1.803945,0.114074,-0.28318000000000004,0.051920000000000015,0.0,16.0,76.0,180.0,26.0,1.0
502307,-1.197044,-1.354954,1.7817169999999998,0.170267,-0.104604,-0.292081,0.0,16.0,76.0,180.0,26.0,1.0
502308,-1.1994200000000002,-1.357182,1.748773,0.134,0.064202,-0.4466350000000001,0.0,16.0,76.0,180.0,26.0,1.0
502309,-1.131833,-1.356565,1.779921,0.08884500000000001,0.134463,-0.326037,0.0,16.0,76.0,180.0,26.0,1.0
502310,-1.046724,-1.349742,1.844158,0.15253699999999998,0.054225,-0.524309,0.0,16.0,76.0,180.0,26.0,1.0
502311,-0.936111,-1.333781,1.936233,0.213096,-0.028333,-0.375682,0.0,16.0,76.0,180.0,26.0,1.0
502312,-0.798259,-1.30581,2.051846,0.257689,0.225517,-0.332737,0.0,16.0,76.0,180.0,26.0,1.0
502313,-0.65066,-1.263969,2.184179,0.03679,0.6175649999999999,-0.211132,0.0,16.0,76.0,180.0,26.0,1.0
502314,-0.53364,-1.209788,2.298351,-0.221991,0.621939,0.144156,0.0,16.0,76.0,180.0,26.0,1.0
502315,-0.460988,-1.152395,2.381304,-0.206688,0.35625,0.703099,0.0,16.0,76.0,180.0,26.0,1.0
502316,-0.410868,-1.094556,2.440286,-0.290898,0.130883,1.174004,0.0,16.0,76.0,180.0,26.0,1.0
502317,-0.364803,-1.070318,2.471597,-0.212385,-0.227237,0.683813,0.0,16.0,76.0,180.0,26.0,1.0
502318,-0.361339,-1.082056,2.471091,-0.111268,-0.068731,0.5833229999999999,0.0,16.0,76.0,180.0,26.0,1.0
502319,-0.375623,-1.10772,2.461196,-0.187707,0.202943,0.238168,0.0,16.0,76.0,180.0,26.0,1.0
502320,-0.365884,-1.147686,2.452794,-0.137021,-0.28732,0.131338,0.0,16.0,76.0,180.0,26.0,1.0
502321,-0.359706,-1.193816,2.423788,0.003199,-0.4800430000000001,0.116518,0.0,16.0,76.0,180.0,26.0,1.0
502322,-0.390523,-1.236988,2.364141,-0.07474299999999999,-0.587288,0.074998,0.0,16.0,76.0,180.0,26.0,1.0
502323,-0.468213,-1.277372,2.277572,-0.094744,-0.570647,0.134434,0.0,16.0,76.0,180.0,26.0,1.0
502324,-0.599901,-1.3191469999999998,2.1533830000000003,-0.060604999999999985,-0.492826,-0.12582000000000002,0.0,16.0,76.0,180.0,26.0,1.0
502325,-0.816368,-1.347229,1.974162,-0.115654,-0.076919,-0.643734,0.0,16.0,76.0,180.0,26.0,1.0
502326,-1.021278,-1.347949,1.841055,0.106878,0.188867,-0.8849809999999999,0.0,16.0,76.0,180.0,26.0,1.0
502327,-1.164764,-1.346414,1.7465240000000002,0.493791,0.469603,-0.795169,0.0,16.0,76.0,180.0,26.0,1.0
502328,-1.276937,-1.347311,1.671242,0.624063,0.031278,-0.510794,0.0,16.0,76.0,180.0,26.0,1.0
502329,-1.338797,-1.347371,1.633054,0.589971,-0.338624,-0.180689,0.0,16.0,76.0,180.0,26.0,1.0
502330,-1.326846,-1.354143,1.649261,0.521898,-0.386382,-0.173075,0.0,16.0,76.0,180.0,26.0,1.0
502331,-1.305826,-1.368051,1.6723830000000002,-0.131011,-0.14065,0.088171,0.0,16.0,76.0,180.0,26.0,1.0
502332,-1.237059,-1.3854229999999998,1.734462,-0.306444,0.049039,0.583164,0.0,16.0,76.0,180.0,26.0,1.0
502333,-1.030169,-1.390559,1.921566,-0.724563,0.462763,-0.572182,0.0,16.0,76.0,180.0,26.0,1.0
502334,-1.13957,-1.387935,1.903969,-0.526252,1.068003,0.214805,0.0,16.0,76.0,180.0,26.0,1.0
502335,-1.117416,-1.366249,1.960537,0.178321,-0.007916,0.539977,0.0,16.0,76.0,180.0,26.0,1.0
502336,-0.964237,-1.347382,2.076489,0.291469,-0.247425,0.316608,0.0,16.0,76.0,180.0,26.0,1.0
502337,-0.8979659999999999,-1.350504,2.109823,-0.121424,1.020382,-0.217764,0.0,16.0,76.0,180.0,26.0,1.0
502338,-0.988986,-1.371868,1.997165,0.298398,0.39524,-0.056074,0.0,16.0,76.0,180.0,26.0,1.0
502339,-1.000528,-1.380295,1.962444,0.048158,-0.040183,-0.086284,0.0,16.0,76.0,180.0,26.0,1.0
502340,-0.981898,-1.377786,1.96732,-0.109837,-0.091233,0.156026,0.0,16.0,76.0,180.0,26.0,1.0
502341,-0.988367,-1.372317,1.949648,0.0667,-0.073584,-0.202897,0.0,16.0,76.0,180.0,26.0,1.0
502342,-1.053787,-1.368267,1.891487,0.076887,-0.072777,-0.211931,0.0,16.0,76.0,180.0,26.0,1.0
502343,-1.136892,-1.3676700000000002,1.816828,-0.014162,-0.016901,-0.471322,0.0,16.0,76.0,180.0,26.0,1.0
502344,-1.113083,-1.366623,1.813541,0.048195,-0.068508,-0.274886,0.0,16.0,76.0,180.0,26.0,1.0
502345,-1.067244,-1.366201,1.823114,0.04426,-0.068422,-0.266447,0.0,16.0,76.0,180.0,26.0,1.0
502346,-1.014316,-1.361921,1.84859,0.152475,-0.037072,-0.561721,0.0,16.0,76.0,180.0,26.0,1.0
502347,-0.8996940000000001,-1.34535,1.939157,0.045573,-0.050622,-0.254363,0.0,16.0,76.0,180.0,26.0,1.0
502348,-0.762706,-1.317383,2.056429,-0.046074,-0.031478,-0.190541,0.0,16.0,76.0,180.0,26.0,1.0
502349,-0.621156,-1.279059,2.18013,-0.206862,-0.043683,-0.045818,0.0,16.0,76.0,180.0,26.0,1.0
502350,-0.507861,-1.228174,2.277388,0.040707,-0.043973000000000005,0.5973310000000001,0.0,16.0,76.0,180.0,26.0,1.0
502351,-0.447133,-1.185076,2.323404,-0.031912,-0.012221,0.669079,0.0,16.0,76.0,180.0,26.0,1.0
502352,-0.401581,-1.1560290000000002,2.354136,-0.087181,0.146558,0.8657809999999999,0.0,16.0,76.0,180.0,26.0,1.0
502353,-0.381057,-1.152726,2.363391,0.051393,0.135213,0.656209,0.0,16.0,76.0,180.0,26.0,1.0
502354,-0.358145,-1.184987,2.368656,0.13381400000000002,0.146412,0.218129,0.0,16.0,76.0,180.0,26.0,1.0
502355,-0.31497,-1.221884,2.375714,-0.108954,0.039579,0.211765,0.0,16.0,76.0,180.0,26.0,1.0
502356,-0.28063,-1.24991,2.374148,-0.465948,-0.096372,0.170822,0.0,16.0,76.0,180.0,26.0,1.0
502357,-0.303811,-1.27396,2.340792,-0.455913,-0.091933,0.12636,0.0,16.0,76.0,180.0,26.0,1.0
502358,-0.395906,-1.298836,2.261802,-0.343482,-0.168401,0.086677,0.0,16.0,76.0,180.0,26.0,1.0
502359,-0.542027,-1.321717,2.139619,0.239616,0.067008,-0.120244,0.0,16.0,76.0,180.0,26.0,1.0
502360,-0.736374,-1.337928,1.995958,0.391467,0.02722,-0.174267,0.0,16.0,76.0,180.0,26.0,1.0
502361,-0.941624,-1.347361,1.852869,0.417719,-0.13276500000000002,-0.207265,0.0,16.0,76.0,180.0,26.0,1.0
502362,-1.130687,-1.352808,1.695573,0.238893,0.172576,-0.561346,0.0,16.0,76.0,180.0,26.0,1.0
502363,-1.275915,-1.35215,1.579749,0.208177,0.154774,-0.5714899999999999,0.0,16.0,76.0,180.0,26.0,1.0
502364,-1.365206,-1.347615,1.535351,0.182725,0.06951,-0.5185420000000001,0.0,16.0,76.0,180.0,26.0,1.0
502365,-1.423078,-1.344059,1.5253219999999998,0.106663,-0.241235,-0.20323,0.0,16.0,76.0,180.0,26.0,1.0
502366,-1.480842,-1.345586,1.499191,0.108123,-0.365952,-0.219993,0.0,16.0,76.0,180.0,26.0,1.0
502367,-1.538611,-1.35018,1.45548,0.081238,-0.516763,-0.278497,0.0,16.0,76.0,180.0,26.0,1.0
502368,-1.571808,-1.351414,1.425972,0.034157,-0.383671,0.229852,0.0,16.0,76.0,180.0,26.0,1.0
502369,-1.49364,-1.348532,1.498981,0.097365,-0.107252,0.139502,0.0,16.0,76.0,180.0,26.0,1.0
502370,-1.469399,-1.3427790000000002,1.566964,0.007178,0.16986500000000002,-0.137217,0.0,16.0,76.0,180.0,26.0,1.0
502371,-1.505663,-1.339344,1.576222,-0.159732,0.666772,-0.099924,0.0,16.0,76.0,180.0,26.0,1.0
502372,-1.516966,-1.339186,1.556452,0.07110599999999999,0.054366,-0.08759600000000001,0.0,16.0,76.0,180.0,26.0,1.0
502373,-1.46212,-1.340144,1.594449,0.12142,-0.084327,0.00543,0.0,16.0,76.0,180.0,26.0,1.0
502374,-1.433318,-1.342708,1.619248,0.09174,0.104696,0.425348,0.0,16.0,76.0,180.0,26.0,1.0
502375,-1.428613,-1.34554,1.614531,-0.154487,0.451075,0.247223,0.0,16.0,76.0,180.0,26.0,1.0
502376,-1.549737,-1.344519,1.496579,0.329637,0.263086,-0.348166,0.0,16.0,76.0,180.0,26.0,1.0
502377,-1.66901,-1.335625,1.3853,0.372072,-0.230363,-0.205737,0.0,16.0,76.0,180.0,26.0,1.0
502378,-1.6585279999999998,-1.329832,1.397702,0.289956,-0.228555,-0.016878999999999998,0.0,16.0,76.0,180.0,26.0,1.0
502379,-1.637653,-1.321944,1.424418,0.204915,-0.277423,0.182736,0.0,16.0,76.0,180.0,26.0,1.0
502380,-1.6870900000000002,-1.310826,1.39904,0.206829,0.026187,-0.34317800000000004,0.0,16.0,76.0,180.0,26.0,1.0
502381,-1.805464,-1.295943,1.306958,0.25868,0.206175,-0.693,0.0,16.0,76.0,180.0,26.0,1.0
502382,-1.888863,-1.278314,1.219317,0.210798,0.138294,-0.676619,0.0,16.0,76.0,180.0,26.0,1.0
502383,-1.875217,-1.267309,1.233782,0.172448,0.133118,-0.766878,0.0,16.0,76.0,180.0,26.0,1.0
502384,-1.842022,-1.257885,1.297373,0.16054000000000002,0.113454,-0.926933,0.0,16.0,76.0,180.0,26.0,1.0
502385,-1.788962,-1.246199,1.389336,0.020653,0.062551,-0.61625,0.0,16.0,76.0,180.0,26.0,1.0
502386,-1.688625,-1.231326,1.527382,0.053943,0.5038,-0.360325,0.0,16.0,76.0,180.0,26.0,1.0
502387,-1.549427,-1.218229,1.697082,0.246915,0.74631,-0.321815,0.0,16.0,76.0,180.0,26.0,1.0
502388,-1.391231,-1.201377,1.882461,0.442855,0.689106,0.227541,0.0,16.0,76.0,180.0,26.0,1.0
502389,-1.231569,-1.181269,2.067243,0.4777270000000001,0.607351,0.754062,0.0,16.0,76.0,180.0,26.0,1.0
502390,-1.072498,-1.160174,2.238457,0.160412,0.685651,1.019175,0.0,16.0,76.0,180.0,26.0,1.0
502391,-0.927533,-1.147584,2.366556,-0.113627,0.7596430000000001,0.990318,0.0,16.0,76.0,180.0,26.0,1.0
502392,-0.8606719999999999,-1.154497,2.39476,-0.057618,0.5949760000000001,0.103021,0.0,16.0,76.0,180.0,26.0,1.0
502393,-0.8511479999999999,-1.174787,2.391865,0.058012,0.5387109999999999,0.092712,0.0,16.0,76.0,180.0,26.0,1.0
502394,-0.815415,-1.195981,2.409765,-0.171426,0.29525500000000005,0.29233000000000003,0.0,16.0,76.0,180.0,26.0,1.0
502395,-0.75552,-1.223433,2.434833,-0.182441,0.183124,0.345383,0.0,16.0,76.0,180.0,26.0,1.0
502396,-0.6928810000000001,-1.261792,2.459261,-0.053848,0.151672,0.346555,0.0,16.0,76.0,180.0,26.0,1.0
502397,-0.698692,-1.305884,2.454016,0.146869,-0.102139,0.373192,0.0,16.0,76.0,180.0,26.0,1.0
502398,-0.7762819999999999,-1.351135,2.412848,0.405659,-0.02248,0.196233,0.0,16.0,76.0,180.0,26.0,1.0
502399,-0.8420110000000001,-1.382622,2.372538,0.308719,-0.042315,0.020543,0.0,16.0,76.0,180.0,26.0,1.0
502400,-0.904868,-1.392632,2.358206,-0.188008,-0.309076,0.047062,0.0,16.0,76.0,180.0,26.0,1.0
502401,-0.965508,-1.386335,2.3763400000000003,-0.192619,-0.443973,0.115245,0.0,16.0,76.0,180.0,26.0,1.0
502402,-1.03614,-1.373713,2.3885110000000003,-0.141793,-0.446035,0.02356,0.0,16.0,76.0,180.0,26.0,1.0
502403,-1.106943,-1.358401,2.396011,-0.076886,-0.30695100000000003,-0.276958,0.0,16.0,76.0,180.0,26.0,1.0
502404,-1.167079,-1.341906,2.42383,0.247884,-0.029934,-0.447907,0.0,16.0,76.0,180.0,26.0,1.0
502405,-1.227943,-1.330684,2.458762,0.337937,0.048174,-0.564866,0.0,16.0,76.0,180.0,26.0,1.0
502406,-1.23715,-1.331442,2.503278,0.393296,0.104787,-0.654147,0.0,16.0,76.0,180.0,26.0,1.0
502407,-1.192656,-1.33782,2.571266,0.208367,-0.403327,0.11439,0.0,16.0,76.0,180.0,26.0,1.0
502408,-1.111966,-1.339963,2.679825,0.268922,-0.519573,0.321202,0.0,16.0,76.0,180.0,26.0,1.0
502409,-1.046839,-1.341123,2.747113,0.385565,-0.606553,0.390488,0.0,16.0,76.0,180.0,26.0,1.0
502410,-1.023872,-1.341268,2.747432,-0.8013979999999999,3.01701,-0.693331,0.0,16.0,76.0,180.0,26.0,1.0
502411,-1.007743,-1.342761,2.708365,-0.376064,3.179666,-2.315775,0.0,16.0,76.0,180.0,26.0,1.0
502412,-0.818009,-1.325248,2.913663,0.15728,-0.38428,1.443114,0.0,16.0,76.0,180.0,26.0,1.0
502413,-0.6387,-1.278938,3.088545,0.140672,-1.019158,1.005156,0.0,16.0,76.0,180.0,26.0,1.0
502414,-0.6295390000000001,-1.259897,3.128328,-0.135323,-0.718538,1.130135,0.0,16.0,76.0,180.0,26.0,1.0
502415,-0.689587,-1.247332,3.116395,-0.079735,0.473628,1.165704,0.0,16.0,76.0,180.0,26.0,1.0
502416,-0.744921,-1.223131,3.137753,0.13625,0.748016,0.961197,0.0,16.0,76.0,180.0,26.0,1.0
502417,-0.8014359999999999,-1.207775,-3.104229,0.244278,0.731065,0.170749,0.0,16.0,76.0,180.0,26.0,1.0
502418,-1.032538,-1.243052,3.0939520000000003,-0.067583,0.249915,0.386422,0.0,16.0,76.0,180.0,26.0,1.0
502419,-1.2800200000000002,-1.280356,2.970095,-0.356064,0.286419,-0.365351,0.0,16.0,76.0,180.0,26.0,1.0
502420,-1.367037,-1.29555,2.918203,-0.209319,0.067076,-0.279007,0.0,16.0,76.0,180.0,26.0,1.0
502421,-1.389194,-1.30189,2.931707,0.092286,-0.053082,0.273733,0.0,16.0,76.0,180.0,26.0,1.0
502422,-1.417334,-1.305242,2.947405,0.137243,-0.248486,0.373535,0.0,16.0,76.0,180.0,26.0,1.0
502423,-1.483992,-1.312337,2.915639,0.068944,-0.29845,0.340486,0.0,16.0,76.0,180.0,26.0,1.0
502424,-1.603083,-1.318763,2.8230060000000003,-0.048321,-0.234475,0.206367,0.0,16.0,76.0,180.0,26.0,1.0
502425,-1.737997,-1.317662,2.716895,-0.06783099999999999,-0.24775,0.128826,0.0,16.0,76.0,180.0,26.0,1.0
502426,-1.882679,-1.30798,2.601631,0.007411,-0.229029,-0.031938999999999995,0.0,16.0,76.0,180.0,26.0,1.0
502427,-2.028428,-1.287252,2.484113,0.124232,-0.148546,-0.124573,0.0,16.0,76.0,180.0,26.0,1.0
502428,-2.144711,-1.260377,2.389875,0.221422,0.022251,-0.096738,0.0,16.0,76.0,180.0,26.0,1.0
502429,-2.209262,-1.234776,2.335972,0.322809,0.136767,-0.138758,0.0,16.0,76.0,180.0,26.0,1.0
502430,-2.245841,-1.2149,2.307373,0.374797,0.170515,-0.268287,0.0,16.0,76.0,180.0,26.0,1.0
502431,-2.28605,-1.201185,2.285039,0.271119,0.071927,-0.731317,0.0,16.0,76.0,180.0,26.0,1.0
502432,-2.342056,-1.192708,2.27007,-0.117022,0.080195,-1.058246,0.0,16.0,76.0,180.0,26.0,1.0
502433,-2.365768,-1.194322,2.299876,-0.337443,0.134029,-0.752922,0.0,16.0,76.0,180.0,26.0,1.0
502434,-2.306044,-1.202278,2.380137,0.12124,0.468413,-0.5681149999999999,0.0,16.0,76.0,180.0,26.0,1.0
502435,-2.203654,-1.216007,2.484967,0.409085,0.561883,-0.631832,0.0,16.0,76.0,180.0,26.0,1.0
502436,-2.078724,-1.23916,2.633944,0.564071,0.729019,-0.438331,0.0,16.0,76.0,180.0,26.0,1.0
502437,-1.895976,-1.267051,2.847013,0.584717,0.8687290000000001,0.110598,0.0,16.0,76.0,180.0,26.0,1.0
502438,-1.661741,-1.286106,3.128629,0.5567489999999999,0.759627,0.343574,0.0,16.0,76.0,180.0,26.0,1.0
502439,-1.413631,-1.288779,-2.857272,0.481173,0.492095,0.888709,0.0,16.0,76.0,180.0,26.0,1.0
502440,-1.164965,-1.279191,-2.587876,0.090507,0.433558,0.647714,0.0,16.0,76.0,180.0,26.0,1.0
502441,-0.985179,-1.267205,-2.417007,0.012687,0.449738,0.6096060000000001,0.0,16.0,76.0,180.0,26.0,1.0
502442,-0.8717030000000001,-1.265273,-2.318977,-0.027041000000000003,0.185867,0.425994,0.0,16.0,76.0,180.0,26.0,1.0
502443,-0.772933,-1.270647,-2.2219290000000003,0.062999,0.29333400000000004,0.266697,0.0,16.0,76.0,180.0,26.0,1.0
502444,-0.672932,-1.274986,-2.120115,0.190551,0.133644,0.397492,0.0,16.0,76.0,180.0,26.0,1.0
502445,-0.565703,-1.280135,-2.016105,0.162271,0.041869,0.517744,0.0,16.0,76.0,180.0,26.0,1.0
502446,-0.473981,-1.282417,-1.916949,0.14918,-0.136425,0.544246,0.0,16.0,76.0,180.0,26.0,1.0
502447,-0.412579,-1.283442,-1.820136,0.171497,-0.147092,0.5125649999999999,0.0,16.0,76.0,180.0,26.0,1.0
502448,-0.369821,-1.285144,-1.724118,0.122001,-0.161962,0.4614180000000001,0.0,16.0,76.0,180.0,26.0,1.0
502449,-0.336492,-1.286744,-1.637014,-0.192904,-0.15775799999999998,0.320959,0.0,16.0,76.0,180.0,26.0,1.0
502450,-0.317389,-1.288822,-1.564281,-0.240864,-0.187757,0.35333000000000003,0.0,16.0,76.0,180.0,26.0,1.0
502451,-0.311798,-1.292934,-1.508465,-0.25062,-0.200352,0.335889,0.0,16.0,76.0,180.0,26.0,1.0
502452,-0.313312,-1.297089,-1.461484,-0.240532,-0.162498,0.148226,0.0,16.0,76.0,180.0,26.0,1.0
502453,-0.304896,-1.300852,-1.415137,-0.264203,-0.165415,0.110717,0.0,16.0,76.0,180.0,26.0,1.0
502454,-0.289458,-1.302589,-1.3735540000000002,-0.283815,-0.202254,-0.01244,0.0,16.0,76.0,180.0,26.0,1.0
502455,-0.287953,-1.299748,-1.3456,-0.222141,-0.173726,-0.162959,0.0,16.0,76.0,180.0,26.0,1.0
502456,-0.305458,-1.290426,-1.335481,-0.105174,-0.090805,-0.237333,0.0,16.0,76.0,180.0,26.0,1.0
502457,-0.34539200000000003,-1.2751940000000002,-1.334797,0.114387,-0.136375,-0.08726,0.0,16.0,76.0,180.0,26.0,1.0
502458,-0.390123,-1.25976,-1.333182,0.23168,-0.151816,-0.020781,0.0,16.0,76.0,180.0,26.0,1.0
502459,-0.433513,-1.242977,-1.326385,0.334938,-0.148849,-0.034233,0.0,16.0,76.0,180.0,26.0,1.0
502460,-0.476837,-1.229235,-1.317319,0.345168,-0.04378,-0.121697,0.0,16.0,76.0,180.0,26.0,1.0
502461,-0.5128510000000001,-1.222259,-1.305405,0.163508,0.093635,-0.217073,0.0,16.0,76.0,180.0,26.0,1.0
502462,-0.5303140000000001,-1.217183,-1.285344,-0.062537,0.09123,-0.246023,0.0,16.0,76.0,180.0,26.0,1.0
502463,-0.536651,-1.211589,-1.259792,-0.152328,0.077237,-0.255649,0.0,16.0,76.0,180.0,26.0,1.0
502464,-0.5432819999999999,-1.208064,-1.233757,-0.096576,-0.037165,-0.14795999999999998,0.0,16.0,76.0,180.0,26.0,1.0
502465,-0.543955,-1.206547,-1.206285,-0.205745,-0.16692,-0.085713,0.0,16.0,76.0,180.0,26.0,1.0
502466,-0.541136,-1.205072,-1.180145,-0.279748,0.02634,-0.178023,0.0,16.0,76.0,180.0,26.0,1.0
502467,-0.556449,-1.206238,-1.171918,-0.253877,0.5912310000000001,-0.147304,0.0,16.0,76.0,180.0,26.0,1.0
502468,-0.57153,-1.208986,-1.171511,-0.205739,1.70433,-0.384242,0.0,16.0,76.0,180.0,26.0,1.0
502469,-0.586028,-1.209224,-1.179685,-0.226515,0.305366,1.0954780000000002,0.0,16.0,76.0,180.0,26.0,1.0
502470,-0.507326,-1.175852,-1.149643,-0.150705,-0.76039,1.327956,0.0,16.0,76.0,180.0,26.0,1.0
502471,-0.432296,-1.155183,-1.140734,-0.305093,-0.505689,0.8729030000000001,0.0,16.0,76.0,180.0,26.0,1.0
502472,-0.437739,-1.166627,-1.179829,-0.184456,-0.130581,1.004819,0.0,16.0,76.0,180.0,26.0,1.0
502473,-0.496357,-1.176709,-1.2472299999999998,-0.14201,0.248131,0.7771359999999999,0.0,16.0,76.0,180.0,26.0,1.0
502474,-0.569278,-1.177463,-1.299198,0.148359,0.432748,0.379091,0.0,16.0,76.0,180.0,26.0,1.0
502475,-0.680616,-1.184788,-1.355446,0.42995,0.391803,-0.043706,0.0,16.0,76.0,180.0,26.0,1.0
502476,-0.849909,-1.215907,-1.457268,0.327665,0.183637,0.024227,0.0,16.0,76.0,180.0,26.0,1.0
502477,-0.927092,-1.240789,-1.529854,0.092654,-0.006099,-0.393234,0.0,16.0,76.0,180.0,26.0,1.0
502478,-0.937756,-1.254105,-1.5443,-0.14372200000000002,-0.05725,-0.046514,0.0,16.0,76.0,180.0,26.0,1.0
502479,-0.96643,-1.266727,-1.563409,-0.047879000000000005,-0.097284,0.035284,0.0,16.0,76.0,180.0,26.0,1.0
502480,-1.027842,-1.278493,-1.605967,-0.027543,-0.07814199999999999,-0.155448,0.0,16.0,76.0,180.0,26.0,1.0
502481,-1.116296,-1.286373,-1.663,-0.043553,-0.14616400000000002,-0.201236,0.0,16.0,76.0,180.0,26.0,1.0
502482,-1.177286,-1.28918,-1.708655,0.113508,-0.10668,-0.16256700000000002,0.0,16.0,76.0,180.0,26.0,1.0
502483,-1.193437,-1.288551,-1.730152,0.163684,-0.062987,-0.230011,0.0,16.0,76.0,180.0,26.0,1.0
502484,-1.196944,-1.286694,-1.738647,0.028572000000000007,-0.10826,-0.2395,0.0,16.0,76.0,180.0,26.0,1.0
502485,-1.206919,-1.283691,-1.752547,0.079421,-0.199485,-0.123422,0.0,16.0,76.0,180.0,26.0,1.0
502486,-1.201616,-1.279424,-1.758549,0.124415,-0.195338,-0.064529,0.0,16.0,76.0,180.0,26.0,1.0
502487,-1.186877,-1.277428,-1.764695,0.124966,-0.102386,-0.414551,0.0,16.0,76.0,180.0,26.0,1.0
502488,-1.162083,-1.277394,-1.766252,0.359365,-0.484213,-0.17690699999999998,0.0,16.0,76.0,180.0,26.0,1.0
502489,-1.102842,-1.272245,-1.7351,0.383133,-0.484572,-0.006297,0.0,16.0,76.0,180.0,26.0,1.0
502490,-1.055498,-1.2694,-1.7052330000000002,0.309361,-0.372968,0.037713,0.0,16.0,76.0,180.0,26.0,1.0
502491,-1.01704,-1.272255,-1.675042,0.480472,0.35990700000000003,-0.239711,0.0,16.0,76.0,180.0,26.0,1.0
502492,-0.935817,-1.273132,-1.610345,0.440331,0.452301,-0.335901,0.0,16.0,76.0,180.0,26.0,1.0
502493,-0.820951,-1.269506,-1.50879,0.376619,0.463259,-0.34084200000000003,0.0,16.0,76.0,180.0,26.0,1.0
502494,-0.661796,-1.248414,-1.362228,0.084096,0.39281,-0.179788,0.0,16.0,76.0,180.0,26.0,1.0
502495,-0.4884350000000001,-1.203178,-1.207553,0.058042,0.408107,-0.112359,0.0,16.0,76.0,180.0,26.0,1.0
502496,-0.35875,-1.137281,-1.096036,-0.023049,-0.144738,0.727892,0.0,16.0,76.0,180.0,26.0,1.0
502497,-0.287085,-1.070836,-1.023405,-0.094849,-0.450523,0.782854,0.0,16.0,76.0,180.0,26.0,1.0
502498,-0.241974,-1.020225,-0.961751,0.026347,-0.29647,0.864891,0.0,16.0,76.0,180.0,26.0,1.0
502499,-0.17921800000000002,-1.008547,-0.8903979999999999,0.301418,0.214199,1.199626,0.0,16.0,76.0,180.0,26.0,1.0
502500,-0.096667,-1.034375,-0.813304,-0.30477,0.372985,0.412449,0.0,16.0,76.0,180.0,26.0,1.0
502501,-0.018054,-1.06501,-0.75378,-0.316967,0.177605,0.28542,0.0,16.0,76.0,180.0,26.0,1.0
502502,0.02236,-1.093192,-0.728895,-0.287102,0.036264,0.269391,0.0,16.0,76.0,180.0,26.0,1.0
502503,0.020965,-1.126449,-0.733275,-0.5135890000000001,-0.148619,0.27557600000000004,0.0,16.0,76.0,180.0,26.0,1.0
502504,-0.008221,-1.168354,-0.755253,-0.508728,-0.182574,0.24802800000000005,0.0,16.0,76.0,180.0,26.0,1.0
502505,-0.06861,-1.218549,-0.802139,-0.453307,-0.210999,0.16983800000000002,0.0,16.0,76.0,180.0,26.0,1.0
502506,-0.17845999999999998,-1.277607,-0.8846959999999999,-0.246216,-0.200598,-0.255195,0.0,16.0,76.0,180.0,26.0,1.0
502507,-0.360501,-1.327622,-1.009958,-0.114276,-0.161436,-0.359048,0.0,16.0,76.0,180.0,26.0,1.0
502508,-0.541121,-1.334041,-1.12963,-0.15524300000000002,0.032519,-0.5320729999999999,0.0,16.0,76.0,180.0,26.0,1.0
502509,-0.667952,-1.328582,-1.205445,-0.012007,0.368378,-0.6018720000000001,0.0,16.0,76.0,180.0,26.0,1.0
502510,-0.77995,-1.33323,-1.295617,0.17563,0.482661,-0.373842,0.0,16.0,76.0,180.0,26.0,1.0
502511,-0.8829950000000001,-1.335383,-1.375928,0.5057119999999999,0.059992,-0.189925,0.0,16.0,76.0,180.0,26.0,1.0
502512,-0.943364,-1.329165,-1.3978,0.384365,-0.25274800000000003,-0.310281,0.0,16.0,76.0,180.0,26.0,1.0
502513,-0.981426,-1.328737,-1.400433,0.308769,-0.403509,-0.185931,0.0,16.0,76.0,180.0,26.0,1.0
502514,-0.961898,-1.329291,-1.372081,0.18165,-0.273927,0.826369,0.0,16.0,76.0,180.0,26.0,1.0
502515,-0.8568889999999999,-1.319827,-1.273408,0.14276,-0.089049,0.797439,0.0,16.0,76.0,180.0,26.0,1.0
502516,-0.845276,-1.3219610000000002,-1.233235,-0.104721,0.366387,0.133701,0.0,16.0,76.0,180.0,26.0,1.0
502517,-0.973959,-1.339485,-1.298696,-0.604607,1.0513370000000002,-0.262998,0.0,16.0,76.0,180.0,26.0,1.0
502518,-1.018227,-1.345314,-1.329995,-0.333753,0.077896,-0.32404,0.0,16.0,76.0,180.0,26.0,1.0
502519,-0.895608,-1.337695,-1.226069,-0.39649,0.58718,-0.158979,0.0,16.0,76.0,180.0,26.0,1.0
502520,-0.825176,-1.330024,-1.173216,0.085016,0.20629,0.643613,0.0,16.0,76.0,180.0,26.0,1.0
502521,-0.7413810000000001,-1.316325,-1.11956,0.157226,-0.103935,0.504448,0.0,16.0,76.0,180.0,26.0,1.0
502522,-0.721748,-1.3123049999999998,-1.112695,0.177633,-0.230311,0.498736,0.0,16.0,76.0,180.0,26.0,1.0
502523,-0.7581859999999999,-1.319061,-1.148918,0.290565,-0.375983,0.366525,0.0,16.0,76.0,180.0,26.0,1.0
502524,-0.828818,-1.331835,-1.211024,0.474123,0.041294,-0.281173,0.0,16.0,76.0,180.0,26.0,1.0
502525,-0.89585,-1.35332,-1.299024,0.277611,0.469249,-0.877662,0.0,16.0,76.0,180.0,26.0,1.0
502526,-0.8477129999999999,-1.360928,-1.288068,-0.025172,-0.014893,-0.122955,0.0,16.0,76.0,180.0,26.0,1.0
502527,-0.804956,-1.356967,-1.252557,0.034025,-0.127494,-0.25494,0.0,16.0,76.0,180.0,26.0,1.0
502528,-0.790211,-1.352241,-1.234121,0.120782,-0.11142,-0.442232,0.0,16.0,76.0,180.0,26.0,1.0
502529,-0.711603,-1.336784,-1.165347,0.133958,0.043385,-0.391657,0.0,16.0,76.0,180.0,26.0,1.0
502530,-0.6106689999999999,-1.314156,-1.073074,0.132493,0.094092,-0.354562,0.0,16.0,76.0,180.0,26.0,1.0
502531,-0.511328,-1.283534,-0.97544,-0.086175,0.106239,-0.202253,0.0,16.0,76.0,180.0,26.0,1.0
502532,-0.4180430000000001,-1.246744,-0.8935549999999999,-0.096616,0.07530099999999999,0.127768,0.0,16.0,76.0,180.0,26.0,1.0
502533,-0.345829,-1.202152,-0.8274540000000001,-0.058945,0.126128,0.400756,0.0,16.0,76.0,180.0,26.0,1.0
502534,-0.29890700000000003,-1.154529,-0.775704,-0.056896,0.226127,0.560589,0.0,16.0,76.0,180.0,26.0,1.0
502535,-0.232484,-1.138482,-0.725846,0.190537,0.455023,0.7536229999999999,0.0,16.0,76.0,180.0,26.0,1.0
502536,-0.212533,-1.125215,-0.683079,-0.226109,0.068496,0.398617,0.0,16.0,76.0,180.0,26.0,1.0
502537,-0.195678,-1.113365,-0.660091,0.050589,0.307278,0.668956,0.0,16.0,76.0,180.0,26.0,1.0
502538,-0.178874,-1.125529,-0.641439,-0.186265,0.5294810000000001,0.39713,0.0,16.0,76.0,180.0,26.0,1.0
502539,-0.133941,-1.161436,-0.61446,-0.184413,-0.07635700000000001,0.147452,0.0,16.0,76.0,180.0,26.0,1.0
502540,-0.086013,-1.20018,-0.590275,-0.294951,-0.251379,0.144575,0.0,16.0,76.0,180.0,26.0,1.0
502541,-0.068843,-1.233189,-0.585264,-0.406202,-0.384163,0.137819,0.0,16.0,76.0,180.0,26.0,1.0
502542,-0.098368,-1.265464,-0.6148239999999999,-0.371129,-0.582791,0.206991,0.0,16.0,76.0,180.0,26.0,1.0
502543,-0.185581,-1.2987879999999998,-0.69497,-0.332754,-0.5938329999999999,0.154841,0.0,16.0,76.0,180.0,26.0,1.0
502544,-0.324413,-1.327767,-0.816297,-0.303948,-0.6087060000000001,0.132838,0.0,16.0,76.0,180.0,26.0,1.0
502545,-0.5058189999999999,-1.341234,-0.954043,-0.147999,-0.14236,-0.344042,0.0,16.0,76.0,180.0,26.0,1.0
502546,-0.713545,-1.343245,-1.086185,0.003929,-0.011453,-0.399028,0.0,16.0,76.0,180.0,26.0,1.0
502547,-0.891051,-1.350065,-1.222683,0.272307,0.107469,-0.361919,0.0,16.0,76.0,180.0,26.0,1.0
502548,-1.02247,-1.351241,-1.324455,0.579684,-0.012143,-0.57086,0.0,16.0,76.0,180.0,26.0,1.0
502549,-1.097363,-1.345643,-1.34582,0.503406,-0.10539,-0.453306,0.0,16.0,76.0,180.0,26.0,1.0
502550,-1.131222,-1.339633,-1.326478,0.486173,-0.199444,-0.381365,0.0,16.0,76.0,180.0,26.0,1.0
502551,-1.137095,-1.340519,-1.3047540000000002,-0.13464600000000002,0.045852,-0.6861689999999999,0.0,16.0,76.0,180.0,26.0,1.0
502552,-1.031286,-1.342622,-1.214808,-0.18022,0.230662,-9.9e-05,0.0,16.0,76.0,180.0,26.0,1.0
502553,-0.809739,-1.313005,-1.002419,-0.61915,0.987894,-0.074641,0.0,16.0,76.0,180.0,26.0,1.0
502554,-0.796018,-1.30525,-0.913127,-0.703752,1.121507,0.050715,0.0,16.0,76.0,180.0,26.0,1.0
502555,-0.8176829999999999,-1.304466,-0.916818,-0.049228,0.454736,0.806663,0.0,16.0,76.0,180.0,26.0,1.0
502556,-0.741638,-1.29404,-0.8640469999999999,0.08963099999999999,0.345258,0.017681,0.0,16.0,76.0,180.0,26.0,1.0
502557,-0.727366,-1.2973370000000002,-0.854982,0.13536199999999998,0.407107,0.28580700000000003,0.0,16.0,76.0,180.0,26.0,1.0
502558,-0.723517,-1.305354,-0.8599370000000001,0.098905,0.329747,0.322377,0.0,16.0,76.0,180.0,26.0,1.0
502559,-0.706666,-1.31299,-0.855771,-0.058469000000000014,0.025907,0.3583,0.0,16.0,76.0,180.0,26.0,1.0
502560,-0.72004,-1.325101,-0.8778219999999999,-0.04324,-0.10333,0.12851600000000002,0.0,16.0,76.0,180.0,26.0,1.0
502561,-0.7733270000000001,-1.340894,-0.929525,-0.017903,-0.158747,0.009882,0.0,16.0,76.0,180.0,26.0,1.0
502562,-0.8526239999999999,-1.356111,-0.999357,0.099775,0.015846000000000002,-0.299825,0.0,16.0,76.0,180.0,26.0,1.0
502563,-0.936579,-1.368719,-1.0786639999999998,0.126324,-0.016822,-0.367039,0.0,16.0,76.0,180.0,26.0,1.0
502564,-0.961167,-1.376193,-1.114005,0.114797,-0.031936,-0.464419,0.0,16.0,76.0,180.0,26.0,1.0
502565,-0.950969,-1.378759,-1.11809,-0.031091000000000008,-0.170552,-0.419838,0.0,16.0,76.0,180.0,26.0,1.0
502566,-0.915571,-1.374777,-1.097124,-0.053375,-0.207931,-0.388255,0.0,16.0,76.0,180.0,26.0,1.0
502567,-0.862092,-1.364918,-1.058416,-0.062474,-0.237076,-0.27428800000000003,0.0,16.0,76.0,180.0,26.0,1.0
502568,-0.802967,-1.348996,-1.013153,-0.061653,-0.214852,-0.347193,0.0,16.0,76.0,180.0,26.0,1.0
502569,-0.734097,-1.3254780000000002,-0.955605,0.030678,-0.085096,-0.44013,0.0,16.0,76.0,180.0,26.0,1.0
502570,-0.6299899999999999,-1.293434,-0.870447,0.127582,-0.007741,-0.33682199999999995,0.0,16.0,76.0,180.0,26.0,1.0
502571,-0.491072,-1.248823,-0.7571439999999999,0.088882,0.390407,0.054938,0.0,16.0,76.0,180.0,26.0,1.0
502572,-0.387167,-1.1876209999999998,-0.665054,-0.034230000000000003,0.373909,0.486472,0.0,16.0,76.0,180.0,26.0,1.0
502573,-0.33699,-1.129948,-0.607969,-0.044308,0.334837,0.832536,0.0,16.0,76.0,180.0,26.0,1.0
502574,-0.311177,-1.086294,-0.572952,-0.133441,0.308391,0.92009,0.0,16.0,76.0,180.0,26.0,1.0
502575,-0.27941900000000003,-1.072545,-0.552172,0.140816,0.266722,0.716443,0.0,16.0,76.0,180.0,26.0,1.0
502576,-0.261855,-1.082139,-0.536607,-0.07658200000000001,0.411882,0.472198,0.0,16.0,76.0,180.0,26.0,1.0
502577,-0.226236,-1.107674,-0.5117550000000001,-0.445157,0.434378,0.15709,0.0,16.0,76.0,180.0,26.0,1.0
502578,-0.209223,-1.140405,-0.498409,-0.233397,-0.100316,0.161047,0.0,16.0,76.0,180.0,26.0,1.0
502579,-0.216655,-1.177976,-0.506422,-0.201239,-0.351659,0.140528,0.0,16.0,76.0,180.0,26.0,1.0
502580,-0.250791,-1.21832,-0.541221,-0.319481,-0.5213760000000001,0.257794,0.0,16.0,76.0,180.0,26.0,1.0
502581,-0.32675,-1.260664,-0.616534,-0.316511,-0.5648270000000001,0.301014,0.0,16.0,76.0,180.0,26.0,1.0
502582,-0.454375,-1.300063,-0.734531,-0.268144,-0.596815,0.231433,0.0,16.0,76.0,180.0,26.0,1.0
502583,-0.649619,-1.318255,-0.876967,-0.225797,-0.3745,-0.349173,0.0,16.0,76.0,180.0,26.0,1.0
502584,-0.836678,-1.319077,-0.982073,-0.0319,-0.223979,-0.110454,0.0,16.0,76.0,180.0,26.0,1.0
502585,-1.005858,-1.331752,-1.105802,0.232738,0.341729,-0.703607,0.0,16.0,76.0,180.0,26.0,1.0
502586,-1.114831,-1.338924,-1.19458,0.495955,0.229506,-0.8524379999999999,0.0,16.0,76.0,180.0,26.0,1.0
502587,-1.165656,-1.339634,-1.236869,0.5020859999999999,-0.204159,-0.480494,0.0,16.0,76.0,180.0,26.0,1.0
502588,-1.168913,-1.340378,-1.241314,0.39522,-0.419509,-0.224094,0.0,16.0,76.0,180.0,26.0,1.0
502589,-1.124107,-1.344867,-1.202287,-0.123998,-0.34473400000000004,-0.079086,0.0,16.0,76.0,180.0,26.0,1.0
502590,-0.997998,-1.344683,-1.087739,-0.11371,0.300266,0.691531,0.0,16.0,76.0,180.0,26.0,1.0
502591,-0.84759,-1.328069,-0.946992,-0.553245,0.769121,0.166217,0.0,16.0,76.0,180.0,26.0,1.0
502592,-0.911654,-1.329148,-0.960065,-0.657328,1.060946,0.032545,0.0,16.0,76.0,180.0,26.0,1.0
502593,-0.963031,-1.328987,-1.001439,-0.347983,1.204753,-1.693643,0.0,16.0,76.0,180.0,26.0,1.0
502594,-0.951303,-1.33841,-1.013128,0.15643,1.109369,-1.8187830000000005,0.0,16.0,76.0,180.0,26.0,1.0
502595,-0.781053,-1.322742,-0.897065,0.504484,0.275588,0.118389,0.0,16.0,76.0,180.0,26.0,1.0
502596,-0.633137,-1.299777,-0.784586,-0.177001,0.156344,0.849657,0.0,16.0,76.0,180.0,26.0,1.0
502597,-0.582025,-1.285735,-0.766555,-0.105935,0.087994,0.7360270000000001,0.0,16.0,76.0,180.0,26.0,1.0
502598,-0.6001479999999999,-1.287353,-0.796277,0.064397,-0.043167,0.264483,0.0,16.0,76.0,180.0,26.0,1.0
502599,-0.681503,-1.302715,-0.8591540000000001,0.088376,-0.051393,0.04571,0.0,16.0,76.0,180.0,26.0,1.0
502600,-0.841993,-1.328937,-0.978321,0.104277,0.01081,-0.237177,0.0,16.0,76.0,180.0,26.0,1.0
502601,-1.080572,-1.358323,-1.180701,0.108457,0.044338,-0.483078,0.0,16.0,76.0,180.0,26.0,1.0
502602,-1.206139,-1.370441,-1.321831,0.224768,-0.070984,-0.7142069999999999,0.0,16.0,76.0,180.0,26.0,1.0
502603,-1.136715,-1.363522,-1.277807,0.176183,-0.100116,-0.208321,0.0,16.0,76.0,180.0,26.0,1.0
502604,-1.054548,-1.352663,-1.21286,0.037425,-0.166245,-0.268525,0.0,16.0,76.0,180.0,26.0,1.0
502605,-1.039307,-1.347307,-1.202831,-0.062334,-0.280535,-0.269017,0.0,16.0,76.0,180.0,26.0,1.0
502606,-1.017685,-1.337756,-1.182058,-0.057179,-0.346672,-0.194077,0.0,16.0,76.0,180.0,26.0,1.0
502607,-0.97597,-1.320932,-1.139954,0.040264,-0.07992300000000001,-0.289642,0.0,16.0,76.0,180.0,26.0,1.0
502608,-0.902069,-1.302095,-1.078278,0.115403,0.012126,-0.419769,0.0,16.0,76.0,180.0,26.0,1.0
502609,-0.780271,-1.280504,-0.990598,0.076298,0.061829,-0.447612,0.0,16.0,76.0,180.0,26.0,1.0
502610,-0.64935,-1.249444,-0.897134,-0.004779,0.289121,-0.16716099999999998,0.0,16.0,76.0,180.0,26.0,1.0
502611,-0.544706,-1.20386,-0.808342,0.10482,0.35822600000000004,0.162938,0.0,16.0,76.0,180.0,26.0,1.0
502612,-0.464668,-1.149092,-0.7339319999999999,0.078547,0.346061,0.5235920000000001,0.0,16.0,76.0,180.0,26.0,1.0
502613,-0.415808,-1.087779,-0.676106,-0.157718,0.240654,1.034352,0.0,16.0,76.0,180.0,26.0,1.0
502614,-0.371988,-1.046875,-0.6327470000000001,-0.150259,0.23890300000000006,0.8774649999999999,0.0,16.0,76.0,180.0,26.0,1.0
502615,-0.347229,-1.049309,-0.610029,0.039074,0.180742,0.275927,0.0,16.0,76.0,180.0,26.0,1.0
502616,-0.325301,-1.064816,-0.588832,0.23195,0.144236,0.28078800000000004,0.0,16.0,76.0,180.0,26.0,1.0
502617,-0.301811,-1.073576,-0.570279,-0.184802,0.024912,0.332004,0.0,16.0,76.0,180.0,26.0,1.0
502618,-0.28977,-1.094727,-0.560132,-0.338415,-0.016413,0.181271,0.0,16.0,76.0,180.0,26.0,1.0
502619,-0.286656,-1.131532,-0.5636260000000001,-0.266858,-0.129445,0.195784,0.0,16.0,76.0,180.0,26.0,1.0
502620,-0.299583,-1.173622,-0.582615,-0.24850100000000006,-0.202736,0.257241,0.0,16.0,76.0,180.0,26.0,1.0
502621,-0.331944,-1.21865,-0.621366,-0.200683,-0.215002,0.16913699999999998,0.0,16.0,76.0,180.0,26.0,1.0
502622,-0.395169,-1.264781,-0.6865060000000001,-0.155088,-0.257695,0.078811,0.0,16.0,76.0,180.0,26.0,1.0
502623,-0.4972720000000001,-1.302016,-0.774353,-0.150949,-0.343612,0.015178,0.0,16.0,76.0,180.0,26.0,1.0
502624,-0.6193930000000001,-1.31949,-0.867707,-0.103299,-0.205756,0.020742,0.0,16.0,76.0,180.0,26.0,1.0
502625,-0.7546970000000001,-1.32154,-0.963906,0.075765,-0.030177,-0.163801,0.0,16.0,76.0,180.0,26.0,1.0
502626,-0.8914200000000001,-1.321835,-1.056542,0.262046,0.07903400000000001,-0.264191,0.0,16.0,76.0,180.0,26.0,1.0
502627,-1.008525,-1.330118,-1.146065,0.335055,0.138809,-0.36299,0.0,16.0,76.0,180.0,26.0,1.0
502628,-1.114398,-1.342322,-1.235945,0.27163200000000004,0.102922,-0.413741,0.0,16.0,76.0,180.0,26.0,1.0
502629,-1.208658,-1.353986,-1.312292,0.218824,-0.126583,-0.29764,0.0,16.0,76.0,180.0,26.0,1.0
502630,-1.257977,-1.3632879999999998,-1.347675,0.254256,-0.511491,-0.33422,0.0,16.0,76.0,180.0,26.0,1.0
502631,-1.22509,-1.369442,-1.304283,-0.045094,-0.5935050000000001,-0.37247,0.0,16.0,76.0,180.0,26.0,1.0
502632,-1.032016,-1.366452,-1.142861,0.072775,-0.198844,0.299219,0.0,16.0,76.0,180.0,26.0,1.0
502633,-0.838053,-1.347759,-0.961253,-0.163293,0.477575,-0.441886,0.0,16.0,76.0,180.0,26.0,1.0
502634,-0.8774959999999999,-1.340149,-0.922277,-0.533292,1.173836,0.6293300000000001,0.0,16.0,76.0,180.0,26.0,1.0
502635,-0.8831690000000001,-1.337195,-0.907296,-0.164721,0.29718,0.640286,0.0,16.0,76.0,180.0,26.0,1.0
502636,-0.89123,-1.355457,-0.941544,-0.233987,1.218561,-1.520116,0.0,16.0,76.0,180.0,26.0,1.0
502637,-0.830501,-1.367794,-0.93143,0.464116,0.196727,0.19673,0.0,16.0,76.0,180.0,26.0,1.0
502638,-0.647432,-1.3536979999999998,-0.79803,-0.288588,-0.003443,0.543585,0.0,16.0,76.0,180.0,26.0,1.0
502639,-0.5826399999999999,-1.334848,-0.756962,-0.162373,-0.259052,0.502536,0.0,16.0,76.0,180.0,26.0,1.0
502640,-0.598942,-1.32249,-0.7727390000000001,-0.029977,-0.237961,0.542611,0.0,16.0,76.0,180.0,26.0,1.0
502641,-0.6779569999999999,-1.325958,-0.8298260000000001,0.018536,-0.064674,0.125605,0.0,16.0,76.0,180.0,26.0,1.0
502642,-0.872599,-1.356042,-0.988139,0.14823599999999998,0.14015899999999998,-0.484361,0.0,16.0,76.0,180.0,26.0,1.0
502643,-0.895359,-1.375474,-1.053432,-0.149153,-0.042081,-0.329919,0.0,16.0,76.0,180.0,26.0,1.0
502644,-0.753637,-1.362126,-0.964157,-0.25656,-0.180028,-0.385304,0.0,16.0,76.0,180.0,26.0,1.0
502645,-0.701101,-1.349383,-0.934856,-0.07538099999999999,0.05908,-0.892511,0.0,16.0,76.0,180.0,26.0,1.0
502646,-0.5814590000000001,-1.325585,-0.86192,0.047508,0.120536,-0.174151,0.0,16.0,76.0,180.0,26.0,1.0
502647,-0.453452,-1.280276,-0.7746430000000001,-0.013178,-0.0209,-0.118123,0.0,16.0,76.0,180.0,26.0,1.0
502648,-0.369941,-1.217848,-0.705343,-0.040721,-0.043842,0.020619,0.0,16.0,76.0,180.0,26.0,1.0
502649,-0.319117,-1.139722,-0.661419,0.03897,0.02178,0.6371899999999999,0.0,16.0,76.0,180.0,26.0,1.0
502650,-0.314058,-1.062907,-0.6350640000000001,0.088713,0.204642,0.969314,0.0,16.0,76.0,180.0,26.0,1.0
502651,-0.308894,-1.012653,-0.613055,0.153282,0.360516,1.058114,0.0,16.0,76.0,180.0,26.0,1.0
502652,-0.28422,-0.999458,-0.591878,0.131063,0.232537,0.511627,0.0,16.0,76.0,180.0,26.0,1.0
502653,-0.245401,-1.005623,-0.5714819999999999,-0.43129,0.246645,0.284114,0.0,16.0,76.0,180.0,26.0,1.0
502654,-0.196721,-1.027531,-0.554168,-0.478859,0.124077,0.118988,0.0,16.0,76.0,180.0,26.0,1.0
502655,-0.147572,-1.067844,-0.5446,-0.181279,-0.08780299999999999,0.060051,0.0,16.0,76.0,180.0,26.0,1.0
502656,-0.113502,-1.11467,-0.5431520000000001,-0.181879,-0.29161,0.126978,0.0,16.0,76.0,180.0,26.0,1.0
502657,-0.111171,-1.158079,-0.551963,-0.33273,-0.45145,0.189111,0.0,16.0,76.0,180.0,26.0,1.0
502658,-0.14297200000000002,-1.203102,-0.580231,-0.237571,-0.520332,0.161328,0.0,16.0,76.0,180.0,26.0,1.0
502659,-0.21719,-1.251577,-0.6435029999999999,-0.13081800000000002,-0.41968,0.018903,0.0,16.0,76.0,180.0,26.0,1.0
502660,-0.372157,-1.289878,-0.767789,-0.058238,-0.157121,-0.074901,0.0,16.0,76.0,180.0,26.0,1.0
502661,-0.5565640000000001,-1.303699,-0.910727,0.33367800000000003,0.393354,-0.462883,0.0,16.0,76.0,180.0,26.0,1.0
502662,-0.68624,-1.310995,-1.015763,0.383693,0.351018,-0.577416,0.0,16.0,76.0,180.0,26.0,1.0
502663,-0.8264670000000001,-1.318458,-1.118972,0.341219,0.10898499999999997,-0.4350560000000001,0.0,16.0,76.0,180.0,26.0,1.0
502664,-0.942337,-1.3189030000000002,-1.179235,0.494416,-0.317243,-0.238602,0.0,16.0,76.0,180.0,26.0,1.0
502665,-0.997713,-1.313784,-1.1826290000000002,0.396348,-0.421942,-0.416793,0.0,16.0,76.0,180.0,26.0,1.0
502666,-1.01908,-1.316406,-1.1774790000000002,0.16626300000000002,-0.25053200000000003,-0.254184,0.0,16.0,76.0,180.0,26.0,1.0
502667,-0.925928,-1.327453,-1.124847,-0.129571,-0.13399,0.21951,0.0,16.0,76.0,180.0,26.0,1.0
502668,-0.732993,-1.316528,-0.978689,-0.897859,0.52875,0.29747,0.0,16.0,76.0,180.0,26.0,1.0
502669,-0.7031810000000001,-1.310554,-0.906413,-0.914646,0.8556020000000001,0.74898,0.0,16.0,76.0,180.0,26.0,1.0
502670,-0.742629,-1.315825,-0.919701,-0.088613,0.383144,-0.028824,0.0,16.0,76.0,180.0,26.0,1.0
502671,-0.751959,-1.316812,-0.950806,0.604629,1.390235,-1.116631,0.0,16.0,76.0,180.0,26.0,1.0
502672,-0.8196319999999999,-1.327636,-1.024684,0.30840700000000004,0.040816000000000005,0.491929,0.0,16.0,76.0,180.0,26.0,1.0
502673,-0.6864180000000001,-1.310831,-0.934225,-0.069588,0.027528,0.604653,0.0,16.0,76.0,180.0,26.0,1.0
502674,-0.6090399999999999,-1.2939889999999998,-0.8809,-0.06214500000000001,-0.128361,0.567196,0.0,16.0,76.0,180.0,26.0,1.0
502675,-0.613766,-1.286608,-0.891238,-0.004603,-0.063863,0.361713,0.0,16.0,76.0,180.0,26.0,1.0
502676,-0.684321,-1.296134,-0.947971,0.15776800000000002,0.06954199999999999,-0.247988,0.0,16.0,76.0,180.0,26.0,1.0
502677,-0.832119,-1.322901,-1.074011,0.17486500000000002,0.11553,-0.738083,0.0,16.0,76.0,180.0,26.0,1.0
502678,-0.936213,-1.345243,-1.191252,0.104692,-0.034882,-0.549451,0.0,16.0,76.0,180.0,26.0,1.0
502679,-0.904045,-1.341295,-1.183558,0.14422100000000002,-0.014063,-0.290692,0.0,16.0,76.0,180.0,26.0,1.0
502680,-0.903918,-1.331974,-1.187309,0.331749,0.048311,-0.76237,0.0,16.0,76.0,180.0,26.0,1.0
502681,-0.8890889999999999,-1.322457,-1.178748,0.14294600000000002,0.097573,-0.818109,0.0,16.0,76.0,180.0,26.0,1.0
502682,-0.806315,-1.296234,-1.103725,-0.020136,0.061916,-0.513994,0.0,16.0,76.0,180.0,26.0,1.0
502683,-0.7452479999999999,-1.257003,-1.031015,0.03863,-0.030195,-0.360689,0.0,16.0,76.0,180.0,26.0,1.0
502684,-0.685819,-1.205047,-0.95391,0.126503,-0.032947000000000004,-0.206685,0.0,16.0,76.0,180.0,26.0,1.0
502685,-0.600961,-1.140835,-0.861333,0.231598,0.090789,0.288161,0.0,16.0,76.0,180.0,26.0,1.0
502686,-0.536622,-1.071444,-0.775519,0.210595,-0.095132,1.054334,0.0,16.0,76.0,180.0,26.0,1.0
502687,-0.501901,-1.006153,-0.712381,0.135076,-0.093727,1.211377,0.0,16.0,76.0,180.0,26.0,1.0
502688,-0.462561,-0.964752,-0.6608930000000001,0.002554,-0.091622,1.152212,0.0,16.0,76.0,180.0,26.0,1.0
502689,-0.433217,-0.96442,-0.630342,0.004417,0.317381,0.440399,0.0,16.0,76.0,180.0,26.0,1.0
502690,-0.421517,-0.974215,-0.625993,0.170811,0.35132800000000003,0.625536,0.0,16.0,76.0,180.0,26.0,1.0
502691,-0.3960280000000001,-0.993712,-0.6190060000000001,0.07473300000000001,0.37459,0.648781,0.0,16.0,76.0,180.0,26.0,1.0
502692,-0.356079,-1.030837,-0.61232,-0.130432,-0.022281,0.187672,0.0,16.0,76.0,180.0,26.0,1.0
502693,-0.342382,-1.076353,-0.626004,-0.123994,-0.192809,0.221543,0.0,16.0,76.0,180.0,26.0,1.0
502694,-0.371186,-1.124107,-0.664307,-0.193885,-0.248287,0.256116,0.0,16.0,76.0,180.0,26.0,1.0
502695,-0.4325520000000001,-1.173408,-0.715134,-0.355565,-0.06666699999999999,0.141,0.0,16.0,76.0,180.0,26.0,1.0
502696,-0.5354939999999999,-1.2240540000000002,-0.777375,-0.474137,-0.180078,-0.049879,0.0,16.0,76.0,180.0,26.0,1.0
502697,-0.7001149999999999,-1.257982,-0.8657600000000001,-0.497534,-0.169291,-0.347016,0.0,16.0,76.0,180.0,26.0,1.0
502698,-0.834938,-1.27188,-0.959043,0.596403,0.175005,-1.055017,0.0,16.0,76.0,180.0,26.0,1.0
502699,-0.8997040000000001,-1.293831,-1.032391,0.8039850000000001,-0.043417,-1.240103,0.0,16.0,76.0,180.0,26.0,1.0
502700,-0.980168,-1.297064,-1.069728,0.815289,-0.276779,-1.00389,0.0,16.0,76.0,180.0,26.0,1.0
502701,-1.019295,-1.291876,-1.0672700000000002,0.611421,-0.8526799999999999,0.06725199999999999,0.0,16.0,76.0,180.0,26.0,1.0
502702,-1.009437,-1.283765,-1.044709,0.374424,-0.786573,-0.163679,0.0,16.0,76.0,180.0,26.0,1.0
502703,-0.983693,-1.269387,-0.984915,-0.328511,0.527732,0.662014,0.0,16.0,76.0,180.0,26.0,1.0
502704,-0.941253,-1.254556,-0.898508,-1.414576,2.195981,-0.972314,0.0,16.0,76.0,180.0,26.0,1.0
502705,-1.043757,-1.266127,-0.927418,-0.729101,1.062701,0.212138,0.0,16.0,76.0,180.0,26.0,1.0
502706,-1.0328190000000002,-1.258094,-0.926218,0.009815,-0.18701,0.325469,0.0,16.0,76.0,180.0,26.0,1.0
502707,-0.94387,-1.230633,-0.8686459999999999,0.29092,-0.194272,0.595963,0.0,16.0,76.0,180.0,26.0,1.0
502708,-0.917736,-1.210515,-0.867719,0.25158800000000003,0.169396,0.211027,0.0,16.0,76.0,180.0,26.0,1.0
502709,-0.963407,-1.210377,-0.925796,0.34180900000000003,1.072002,-0.320384,0.0,16.0,76.0,180.0,26.0,1.0
502710,-1.133875,-1.226006,-1.068095,1.084752,0.462448,-0.659609,0.0,16.0,76.0,180.0,26.0,1.0
502711,-1.247456,-1.233704,-1.184972,0.56925,-0.243464,0.004605,0.0,16.0,76.0,180.0,26.0,1.0
502712,-1.2123540000000002,-1.223191,-1.144957,0.376097,-0.227804,0.208198,0.0,16.0,76.0,180.0,26.0,1.0
502713,-1.2146709999999998,-1.210702,-1.114211,0.14763800000000002,0.055119000000000015,-0.277943,0.0,16.0,76.0,180.0,26.0,1.0
502714,-1.308843,-1.203244,-1.160814,0.006316,0.222445,-0.7409479999999999,0.0,16.0,76.0,180.0,26.0,1.0
502715,-1.382594,-1.192305,-1.202506,0.008395999999999999,0.116706,-0.726141,0.0,16.0,76.0,180.0,26.0,1.0
502716,-1.35886,-1.170826,-1.163623,0.27510500000000004,0.312311,-0.358752,0.0,16.0,76.0,180.0,26.0,1.0
502717,-1.3238370000000002,-1.145002,-1.09751,0.557636,0.54893,-0.318297,0.0,16.0,76.0,180.0,26.0,1.0
502718,-1.263898,-1.117639,-1.001701,0.63821,0.736688,-0.346623,0.0,16.0,76.0,180.0,26.0,1.0
502719,-1.184157,-1.095789,-0.8709629999999999,0.790655,1.483971,0.327556,0.0,16.0,76.0,180.0,26.0,1.0
502720,-1.07821,-1.094078,-0.711371,0.306571,0.960158,1.0654,0.0,16.0,76.0,180.0,26.0,1.0
502721,-0.942426,-1.100701,-0.572059,-0.473008,0.287735,0.742765,0.0,16.0,76.0,180.0,26.0,1.0
502722,-0.837101,-1.111502,-0.502317,-0.752297,0.296674,0.329012,0.0,16.0,76.0,180.0,26.0,1.0
502723,-0.834189,-1.126729,-0.494568,-0.157996,0.450076,0.103693,0.0,16.0,76.0,180.0,26.0,1.0
502724,-0.908079,-1.133058,-0.502649,0.174213,0.391345,0.159906,0.0,16.0,76.0,180.0,26.0,1.0
502725,-0.989801,-1.138966,-0.5121979999999999,-0.0499,0.123156,0.304324,0.0,16.0,76.0,180.0,26.0,1.0
502726,-0.989927,-1.152624,-0.5048229999999999,-0.126101,-0.013076,0.210751,0.0,16.0,76.0,180.0,26.0,1.0
502727,-0.912455,-1.176744,-0.470144,-0.159023,-0.098837,0.099051,0.0,16.0,76.0,180.0,26.0,1.0
502728,-0.8382280000000001,-1.202903,-0.434305,-0.095998,-0.208112,0.122598,0.0,16.0,76.0,180.0,26.0,1.0
502729,-0.8285040000000001,-1.216657,-0.402665,-0.01254,-0.257693,0.273379,0.0,16.0,76.0,180.0,26.0,1.0
502730,-0.858068,-1.21548,-0.368798,0.232904,-0.136771,0.15359,0.0,16.0,76.0,180.0,26.0,1.0
502731,-0.8669399999999999,-1.208077,-0.31579,0.16996,-0.15591300000000002,0.199449,0.0,16.0,76.0,180.0,26.0,1.0
502732,-0.8571620000000001,-1.192145,-0.239216,0.13586900000000002,-0.179011,0.266308,0.0,16.0,76.0,180.0,26.0,1.0
502733,-0.845093,-1.176843,-0.163002,0.076774,-0.331694,0.386202,0.0,16.0,76.0,180.0,26.0,1.0
502734,-0.83801,-1.167239,-0.095459,0.127394,-0.384148,0.314408,0.0,16.0,76.0,180.0,26.0,1.0
502735,-0.840983,-1.1629969999999998,-0.038605,0.16448,-0.401257,0.223654,0.0,16.0,76.0,180.0,26.0,1.0
502736,-0.853208,-1.1637540000000002,0.006520000000000001,0.034263,-0.269584,-0.10673,0.0,16.0,76.0,180.0,26.0,1.0
502737,-0.8773989999999999,-1.170269,0.036988,0.073264,0.29057,-0.819525,0.0,16.0,76.0,180.0,26.0,1.0
502738,-0.888707,-1.175362,0.072287,0.192825,0.402503,-0.7631319999999999,0.0,16.0,76.0,180.0,26.0,1.0
502739,-0.8899379999999999,-1.17523,0.120166,0.254758,0.217923,-0.338695,0.0,16.0,76.0,180.0,26.0,1.0
502740,-0.878339,-1.176273,0.167202,0.168099,0.008781,-0.126182,0.0,16.0,76.0,180.0,26.0,1.0
502741,-0.844208,-1.180434,0.220037,0.137179,-0.129651,-0.25503000000000003,0.0,16.0,76.0,180.0,26.0,1.0
502742,-0.8085859999999999,-1.184131,0.268887,-0.088377,0.045264,-0.406543,0.0,16.0,76.0,180.0,26.0,1.0
502743,-0.799025,-1.188027,0.298314,-0.28057,0.909051,-0.344958,0.0,16.0,76.0,180.0,26.0,1.0
502744,-0.798216,-1.189143,0.312962,-0.27815100000000004,1.587392,-0.405919,0.0,16.0,76.0,180.0,26.0,1.0
502745,-0.753626,-1.166021,0.351463,-0.737058,0.386229,0.5825130000000001,0.0,16.0,76.0,180.0,26.0,1.0
502746,-0.6821010000000001,-1.119347,0.408079,-0.236171,-1.116277,1.6552669999999998,0.0,16.0,76.0,180.0,26.0,1.0
502747,-0.632484,-1.095477,0.41945,0.120738,-0.921175,1.522764,0.0,16.0,76.0,180.0,26.0,1.0
502748,-0.6530819999999999,-1.104347,0.35138800000000003,-0.19073,0.484042,1.065203,0.0,16.0,76.0,180.0,26.0,1.0
502749,-0.7242569999999999,-1.100683,0.240292,-0.17749700000000002,0.832101,0.910139,0.0,16.0,76.0,180.0,26.0,1.0
502750,-0.798551,-1.087653,0.194389,0.369709,0.942403,0.068221,0.0,16.0,76.0,180.0,26.0,1.0
502751,-0.96545,-1.101239,0.130955,0.591773,0.41449,0.228476,0.0,16.0,76.0,180.0,26.0,1.0
502752,-1.167249,-1.127698,0.030782,0.286792,0.088149,-0.135616,0.0,16.0,76.0,180.0,26.0,1.0
502753,-1.258199,-1.152193,-0.037529,0.15049,0.106194,-0.308576,0.0,16.0,76.0,180.0,26.0,1.0
502754,-1.304677,-1.177029,-0.074898,-0.107145,0.047431,0.078391,0.0,16.0,76.0,180.0,26.0,1.0
502755,-1.361601,-1.200156,-0.118211,-0.069757,-0.108335,-0.04232,0.0,16.0,76.0,180.0,26.0,1.0
502756,-1.43948,-1.217978,-0.187946,0.017021,-0.174761,-0.14288299999999998,0.0,16.0,76.0,180.0,26.0,1.0
502757,-1.532211,-1.228916,-0.265333,-0.001206,-0.219729,-0.077888,0.0,16.0,76.0,180.0,26.0,1.0
502758,-1.625165,-1.231371,-0.336986,-0.044001,-0.370238,0.055624,0.0,16.0,76.0,180.0,26.0,1.0
502759,-1.701556,-1.229716,-0.406742,0.126414,-0.243129,-0.020038,0.0,16.0,76.0,180.0,26.0,1.0
502760,-1.7590849999999998,-1.222997,-0.468349,0.208077,-0.186356,0.14005,0.0,16.0,76.0,180.0,26.0,1.0
502761,-1.801956,-1.214035,-0.525291,0.248441,-0.180578,0.013207,0.0,16.0,76.0,180.0,26.0,1.0
502762,-1.854544,-1.203326,-0.59358,0.22718,-0.029003,-0.076736,0.0,16.0,76.0,180.0,26.0,1.0
502763,-1.923248,-1.189082,-0.6672640000000001,0.190186,0.11102,-0.042662,0.0,16.0,76.0,180.0,26.0,1.0
502764,-1.985592,-1.17279,-0.728499,0.240972,0.099115,-0.139602,0.0,16.0,76.0,180.0,26.0,1.0
502765,-2.031228,-1.156621,-0.769266,0.293187,0.24100000000000002,-0.388021,0.0,16.0,76.0,180.0,26.0,1.0
502766,-2.086832,-1.13959,-0.8018569999999999,0.235518,0.30195700000000003,-0.46737,0.0,16.0,76.0,180.0,26.0,1.0
502767,-2.1642360000000003,-1.124628,-0.834873,0.13149,0.246697,-0.417812,0.0,16.0,76.0,180.0,26.0,1.0
502768,-2.218057,-1.115344,-0.854001,0.022196,0.299585,-0.5642729999999999,0.0,16.0,76.0,180.0,26.0,1.0
502769,-2.225246,-1.1138,-0.8510270000000001,0.07065,0.368823,-0.788122,0.0,16.0,76.0,180.0,26.0,1.0
502770,-2.205686,-1.118778,-0.8136399999999999,0.120804,0.335144,-0.826255,0.0,16.0,76.0,180.0,26.0,1.0
502771,-2.166004,-1.128427,-0.7361439999999999,0.206439,0.366005,-0.8070229999999999,0.0,16.0,76.0,180.0,26.0,1.0
502772,-2.060407,-1.145936,-0.603533,0.23138000000000006,0.440955,-1.08045,0.0,16.0,76.0,180.0,26.0,1.0
502773,-1.895526,-1.1647299999999998,-0.41475,0.219994,0.8409620000000001,-0.189664,0.0,16.0,76.0,180.0,26.0,1.0
502774,-1.7039959999999998,-1.171977,-0.205769,0.701278,1.175739,0.66692,0.0,16.0,76.0,180.0,26.0,1.0
502775,-1.515195,-1.17471,0.02331,1.050496,0.845519,0.810823,0.0,16.0,76.0,180.0,26.0,1.0
502776,-1.355091,-1.167706,0.25316500000000003,0.963356,0.604698,0.895066,0.0,16.0,76.0,180.0,26.0,1.0
502777,-1.240125,-1.1537309999999998,0.418631,0.787614,0.532175,0.7568050000000001,0.0,16.0,76.0,180.0,26.0,1.0
502778,-1.135405,-1.154584,0.516338,0.603291,0.441025,0.684978,0.0,16.0,76.0,180.0,26.0,1.0
502779,-1.005782,-1.169314,0.604271,0.071902,0.189716,0.121689,0.0,16.0,76.0,180.0,26.0,1.0
502780,-0.924527,-1.188674,0.6815319999999999,-0.0257,0.176602,0.199022,0.0,16.0,76.0,180.0,26.0,1.0
502781,-0.856665,-1.204237,0.76917,0.181115,-0.031115,0.468328,0.0,16.0,76.0,180.0,26.0,1.0
502782,-0.778022,-1.214413,0.866926,0.338124,-0.15467899999999998,0.6606569999999999,0.0,16.0,76.0,180.0,26.0,1.0
502783,-0.717198,-1.224477,0.962495,0.375178,-0.124665,0.670265,0.0,16.0,76.0,180.0,26.0,1.0
502784,-0.6732600000000001,-1.235064,1.060434,0.361838,0.063536,0.622883,0.0,16.0,76.0,180.0,26.0,1.0
502785,-0.6441640000000001,-1.246158,1.156952,0.197336,0.040164,0.522762,0.0,16.0,76.0,180.0,26.0,1.0
502786,-0.6232770000000001,-1.254718,1.25674,0.139267,0.048745,0.532409,0.0,16.0,76.0,180.0,26.0,1.0
502787,-0.60852,-1.253277,1.36209,-0.016617,-0.013627,0.51894,0.0,16.0,76.0,180.0,26.0,1.0
502788,-0.597448,-1.24376,1.466,-0.273877,-0.120995,0.460782,0.0,16.0,76.0,180.0,26.0,1.0
502789,-0.584799,-1.237955,1.559579,-0.326984,-0.153751,0.406469,0.0,16.0,76.0,180.0,26.0,1.0
502790,-0.572172,-1.242269,1.636794,-0.32402600000000004,-0.245377,0.275152,0.0,16.0,76.0,180.0,26.0,1.0
502791,-0.566647,-1.251878,1.6979419999999998,-0.238667,-0.262594,0.163141,0.0,16.0,76.0,180.0,26.0,1.0
502792,-0.579557,-1.262785,1.739636,-0.18678,-0.248623,0.176022,0.0,16.0,76.0,180.0,26.0,1.0
502793,-0.6184850000000001,-1.2748959999999998,1.759273,-0.111382,-0.214215,0.184513,0.0,16.0,76.0,180.0,26.0,1.0
502794,-0.6709649999999999,-1.289223,1.763309,0.212101,-0.110903,-0.077841,0.0,16.0,76.0,180.0,26.0,1.0
502795,-0.722272,-1.302989,1.7597650000000002,0.226587,-0.049757,-0.202886,0.0,16.0,76.0,180.0,26.0,1.0
502796,-0.765641,-1.315937,1.7494880000000002,0.298474,0.154829,-0.388453,0.0,16.0,76.0,180.0,26.0,1.0
502797,-0.797467,-1.3295,1.7412580000000002,0.401845,0.244089,-0.566237,0.0,16.0,76.0,180.0,26.0,1.0
502798,-0.81124,-1.3386280000000002,1.7471330000000005,0.434969,0.100713,-0.49519,0.0,16.0,76.0,180.0,26.0,1.0
502799,-0.8274379999999999,-1.348595,1.753443,0.146885,0.517917,0.511383,0.0,16.0,76.0,180.0,26.0,1.0
502800,-0.817098,-1.355209,1.7628130000000002,-0.382827,1.407655,-0.474369,0.0,16.0,76.0,180.0,26.0,1.0
502801,-0.762921,-1.345344,1.7933150000000002,-0.654608,1.092354,-0.5716829999999999,0.0,16.0,76.0,180.0,26.0,1.0
502802,-0.651791,-1.3159379999999998,1.930944,-0.333701,-0.638231,0.8946959999999999,0.0,16.0,76.0,180.0,26.0,1.0
502803,-0.601953,-1.27545,2.017491,-0.052843,-0.670141,1.083643,0.0,16.0,76.0,180.0,26.0,1.0
502804,-0.647129,-1.251877,2.003039,-0.156895,-0.036428,1.06158,0.0,16.0,76.0,180.0,26.0,1.0
502805,-0.71928,-1.243173,1.96395,-0.077247,0.333097,0.727432,0.0,16.0,76.0,180.0,26.0,1.0
502806,-0.789207,-1.236214,1.936322,0.224383,0.577547,0.060643,0.0,16.0,76.0,180.0,26.0,1.0
502807,-0.939667,-1.250128,1.860541,0.429727,0.282024,0.237519,0.0,16.0,76.0,180.0,26.0,1.0
502808,-1.089984,-1.276125,1.7584669999999998,0.167267,-0.013477,-0.094205,0.0,16.0,76.0,180.0,26.0,1.0
502809,-1.150043,-1.301381,1.694565,-0.163748,-0.082182,-0.248869,0.0,16.0,76.0,180.0,26.0,1.0
502810,-1.188498,-1.322519,1.649227,-0.218993,-0.078682,-0.159895,0.0,16.0,76.0,180.0,26.0,1.0
502811,-1.258158,-1.333979,1.595666,0.00287,-0.108656,0.024618,0.0,16.0,76.0,180.0,26.0,1.0
502812,-1.337816,-1.33723,1.547249,0.047658,-0.078835,-0.069069,0.0,16.0,76.0,180.0,26.0,1.0
502813,-1.4211790000000002,-1.337353,1.493411,0.08145,-0.126547,-0.106255,0.0,16.0,76.0,180.0,26.0,1.0
502814,-1.488661,-1.336698,1.44442,0.248333,-0.102393,-0.231444,0.0,16.0,76.0,180.0,26.0,1.0
502815,-1.544361,-1.3372389999999998,1.400796,0.201206,-0.100153,-0.160067,0.0,16.0,76.0,180.0,26.0,1.0
502816,-1.570486,-1.339436,1.379514,0.18891,-0.112622,-0.187887,0.0,16.0,76.0,180.0,26.0,1.0
502817,-1.57913,-1.342716,1.367902,0.177453,-0.165554,-0.110405,0.0,16.0,76.0,180.0,26.0,1.0
502818,-1.556934,-1.346697,1.386439,0.016073,-0.162968,-0.096835,0.0,16.0,76.0,180.0,26.0,1.0
502819,-1.537755,-1.347799,1.414067,-0.144021,-0.181919,-0.161824,0.0,16.0,76.0,180.0,26.0,1.0
502820,-1.532384,-1.344841,1.432768,-0.184396,-0.31946,-0.094761,0.0,16.0,76.0,180.0,26.0,1.0
502821,-1.502262,-1.339232,1.467563,0.034882,-0.361279,-0.024905,0.0,16.0,76.0,180.0,26.0,1.0
502822,-1.464694,-1.331527,1.501948,0.09218,-0.281646,-0.154882,0.0,16.0,76.0,180.0,26.0,1.0
502823,-1.446592,-1.328758,1.5044030000000002,0.183743,-0.153087,-0.25449,0.0,16.0,76.0,180.0,26.0,1.0
502824,-1.408002,-1.331751,1.503789,0.277544,0.241372,-0.535543,0.0,16.0,76.0,180.0,26.0,1.0
502825,-1.332027,-1.336028,1.542569,0.269918,0.240368,-0.5189050000000001,0.0,16.0,76.0,180.0,26.0,1.0
502826,-1.228368,-1.338271,1.616872,0.428516,0.297985,-0.911954,0.0,16.0,76.0,180.0,26.0,1.0
502827,-1.042141,-1.330231,1.771237,0.290024,0.370227,-0.432626,0.0,16.0,76.0,180.0,26.0,1.0
502828,-0.793462,-1.302592,1.995108,0.086411,0.35696500000000003,-0.280625,0.0,16.0,76.0,180.0,26.0,1.0
502829,-0.57722,-1.252936,2.1958,-0.061455,0.453902,-0.447222,0.0,16.0,76.0,180.0,26.0,1.0
502830,-0.4419300000000001,-1.1681549999999998,2.338417,-0.059941,0.181564,0.757559,0.0,16.0,76.0,180.0,26.0,1.0
502831,-0.370761,-1.0800299999999998,2.4317290000000003,-0.033066000000000005,0.114503,1.05101,0.0,16.0,76.0,180.0,26.0,1.0
502832,-0.32144,-1.019195,2.4931810000000003,0.06528300000000001,0.041456,1.162976,0.0,16.0,76.0,180.0,26.0,1.0
502833,-0.28073200000000004,-1.003503,2.539634,0.143353,0.478495,0.99658,0.0,16.0,76.0,180.0,26.0,1.0
502834,-0.222248,-1.021752,2.58912,-0.375325,0.306232,0.173764,0.0,16.0,76.0,180.0,26.0,1.0
502835,-0.147838,-1.052938,2.638329,-0.468008,0.039657,0.018422,0.0,16.0,76.0,180.0,26.0,1.0
502836,-0.098753,-1.090416,2.6639060000000003,-0.136477,-0.256006,0.295977,0.0,16.0,76.0,180.0,26.0,1.0
502837,-0.090002,-1.128933,2.6575830000000003,-0.220584,-0.4602770000000001,0.473735,0.0,16.0,76.0,180.0,26.0,1.0
502838,-0.113453,-1.172304,2.630767,-0.433368,-0.486085,0.379587,0.0,16.0,76.0,180.0,26.0,1.0
502839,-0.158217,-1.221871,2.589941,-0.468215,-0.404432,0.25542,0.0,16.0,76.0,180.0,26.0,1.0
502840,-0.229193,-1.277057,2.52288,-0.416616,-0.138,0.043176,0.0,16.0,76.0,180.0,26.0,1.0
502841,-0.392316,-1.330265,2.387761,-0.261836,0.202922,-0.17035799999999998,0.0,16.0,76.0,180.0,26.0,1.0
502842,-0.687705,-1.354917,2.172459,-0.182758,0.271762,-0.386796,0.0,16.0,76.0,180.0,26.0,1.0
502843,-0.94982,-1.349968,2.019025,0.212637,0.10868,-0.48343,0.0,16.0,76.0,180.0,26.0,1.0
502844,-1.070275,-1.362402,1.933356,0.660409,0.204451,-0.734687,0.0,16.0,76.0,180.0,26.0,1.0
502845,-1.131029,-1.37061,1.86399,0.6971729999999999,-0.140842,-0.61154,0.0,16.0,76.0,180.0,26.0,1.0
502846,-1.169904,-1.371344,1.840186,0.610857,-0.952679,-0.392132,0.0,16.0,76.0,180.0,26.0,1.0
502847,-1.182249,-1.375851,1.839982,0.256783,-1.156885,-0.063957,0.0,16.0,76.0,180.0,26.0,1.0
502848,-1.090341,-1.382899,1.912928,-0.316078,-0.094536,-0.370808,0.0,16.0,76.0,180.0,26.0,1.0
502849,-0.957918,-1.382002,2.063993,-0.6278699999999999,0.398247,-0.29552399999999995,0.0,16.0,76.0,180.0,26.0,1.0
502850,-0.947698,-1.383551,2.130586,-0.8476549999999999,1.7703939999999998,-0.209217,0.0,16.0,76.0,180.0,26.0,1.0
502851,-0.98219,-1.384142,2.122198,-0.100203,-0.13479100000000002,0.369246,0.0,16.0,76.0,180.0,26.0,1.0
502852,-0.906474,-1.381093,2.172514,0.003219,-0.29717,0.5380020000000001,0.0,16.0,76.0,180.0,26.0,1.0
502853,-0.8517969999999999,-1.37747,2.191326,-0.061911,0.6919850000000001,-0.5267430000000001,0.0,16.0,76.0,180.0,26.0,1.0
502854,-0.952766,-1.387353,2.069321,0.81086,0.681146,-0.393164,0.0,16.0,76.0,180.0,26.0,1.0
502855,-0.902864,-1.385271,2.085859,0.289234,-0.067648,0.17413299999999998,0.0,16.0,76.0,180.0,26.0,1.0
502856,-0.840419,-1.380518,2.129002,0.07992,-0.235293,-0.018588,0.0,16.0,76.0,180.0,26.0,1.0
502857,-0.86787,-1.384239,2.107068,0.091694,0.253268,-0.783181,0.0,16.0,76.0,180.0,26.0,1.0
502858,-0.888948,-1.38635,2.088594,0.176074,0.434671,-0.939979,0.0,16.0,76.0,180.0,26.0,1.0
502859,-0.7337239999999999,-1.370766,2.207122,-0.330389,0.276073,-0.823247,0.0,16.0,76.0,180.0,26.0,1.0
502860,-0.591033,-1.343445,2.329341,-0.209715,0.090781,-0.438348,0.0,16.0,76.0,180.0,26.0,1.0
502861,-0.472079,-1.295935,2.433302,-0.020935,-0.165725,0.043879,0.0,16.0,76.0,180.0,26.0,1.0
502862,-0.389368,-1.23296,2.507689,-0.114071,-0.3639,0.420484,0.0,16.0,76.0,180.0,26.0,1.0
502863,-0.334861,-1.162427,2.552177,-0.182715,-0.559967,0.8013600000000001,0.0,16.0,76.0,180.0,26.0,1.0
502864,-0.305213,-1.0962459999999998,2.578137,-0.144646,-0.4527310000000001,0.914358,0.0,16.0,76.0,180.0,26.0,1.0
502865,-0.28665,-1.058075,2.596842,-0.06830399999999999,0.304246,0.914832,0.0,16.0,76.0,180.0,26.0,1.0
502866,-0.270976,-1.052386,2.61256,0.268997,0.8714430000000001,0.5313359999999999,0.0,16.0,76.0,180.0,26.0,1.0
502867,-0.230233,-1.071944,2.632004,0.213469,0.643871,0.346188,0.0,16.0,76.0,180.0,26.0,1.0
502868,-0.173274,-1.096853,2.657233,-0.289845,0.083491,0.086487,0.0,16.0,76.0,180.0,26.0,1.0
502869,-0.112649,-1.135602,2.675768,-0.246296,-0.229923,0.074117,0.0,16.0,76.0,180.0,26.0,1.0
502870,-0.095508,-1.176597,2.673289,-0.285824,-0.375544,0.094251,0.0,16.0,76.0,180.0,26.0,1.0
502871,-0.124534,-1.2190530000000002,2.647392,-0.328971,-0.450767,0.185923,0.0,16.0,76.0,180.0,26.0,1.0
502872,-0.206275,-1.269861,2.574568,-0.29612,-0.548077,-0.008654,0.0,16.0,76.0,180.0,26.0,1.0
502873,-0.380604,-1.321494,2.428794,-0.119505,-0.221419,-0.211775,0.0,16.0,76.0,180.0,26.0,1.0
502874,-0.636045,-1.350347,2.229515,0.377557,-0.154358,-0.044634,0.0,16.0,76.0,180.0,26.0,1.0
502875,-0.760299,-1.369153,2.118787,0.557249,0.037794,-0.655233,0.0,16.0,76.0,180.0,26.0,1.0
502876,-0.8668879999999999,-1.385743,2.010266,0.6017859999999999,0.06733600000000001,-0.500354,0.0,16.0,76.0,180.0,26.0,1.0
502877,-0.992832,-1.395874,1.909414,0.424999,0.069871,-0.197318,0.0,16.0,76.0,180.0,26.0,1.0
502878,-1.097724,-1.40159,1.845783,0.26150100000000004,0.017713999999999997,-0.147245,0.0,16.0,76.0,180.0,26.0,1.0
502879,-1.1375620000000002,-1.409663,1.842418,-0.311028,0.128936,-0.542971,0.0,16.0,76.0,180.0,26.0,1.0
502880,-1.060195,-1.415418,1.94091,-0.485218,0.219933,0.418105,0.0,16.0,76.0,180.0,26.0,1.0
502881,-0.913721,-1.399196,2.0929,-0.601857,0.550271,0.689253,0.0,16.0,76.0,180.0,26.0,1.0
502882,-0.929461,-1.386462,2.100829,-0.636651,0.713002,0.019044,0.0,16.0,76.0,180.0,26.0,1.0
502883,-1.15667,-1.392825,1.92385,-0.8504799999999999,2.610552,-2.974403,0.0,16.0,76.0,180.0,26.0,1.0
502884,-1.134198,-1.390048,1.903685,0.701565,-0.47109,0.558666,0.0,16.0,76.0,180.0,26.0,1.0
502885,-0.795523,-1.364595,2.169694,0.058503,-0.476161,0.517898,0.0,16.0,76.0,180.0,26.0,1.0
502886,-0.6874239999999999,-1.348155,2.252339,-0.127698,0.116662,0.8695950000000001,0.0,16.0,76.0,180.0,26.0,1.0
502887,-0.703002,-1.341725,2.220386,-0.02405,-0.043321,0.407177,0.0,16.0,76.0,180.0,26.0,1.0
502888,-0.791429,-1.34457,2.15164,0.040307,0.061171,0.057468,0.0,16.0,76.0,180.0,26.0,1.0
502889,-0.976635,-1.357747,2.017175,0.177482,0.099956,-0.437024,0.0,16.0,76.0,180.0,26.0,1.0
502890,-1.282905,-1.375395,1.760504,0.096657,-0.195081,-0.542859,0.0,16.0,76.0,180.0,26.0,1.0
502891,-1.4460110000000002,-1.377092,1.589689,0.177044,-0.357397,-0.34672800000000004,0.0,16.0,76.0,180.0,26.0,1.0
502892,-1.397946,-1.370841,1.608296,0.380093,-0.314945,-0.068384,0.0,16.0,76.0,180.0,26.0,1.0
502893,-1.38247,-1.368439,1.60133,0.367114,-0.248944,-0.295587,0.0,16.0,76.0,180.0,26.0,1.0
502894,-1.407473,-1.372232,1.553742,0.260884,-0.204274,-0.491873,0.0,16.0,76.0,180.0,26.0,1.0
502895,-1.405227,-1.376366,1.533125,0.044012,0.018354,-0.438698,0.0,16.0,76.0,180.0,26.0,1.0
502896,-1.332072,-1.378614,1.587946,-0.028075,-0.055503,-0.433604,0.0,16.0,76.0,180.0,26.0,1.0
502897,-1.213454,-1.374933,1.704161,-0.096736,-0.085861,-0.577585,0.0,16.0,76.0,180.0,26.0,1.0
502898,-1.041928,-1.358472,1.87516,-0.128831,-0.026097,-0.38783,0.0,16.0,76.0,180.0,26.0,1.0
502899,-0.848042,-1.329548,2.048528,-0.038045,0.155867,-0.395148,0.0,16.0,76.0,180.0,26.0,1.0
502900,-0.668118,-1.29312,2.192078,0.08674,0.454244,-0.369702,0.0,16.0,76.0,180.0,26.0,1.0
502901,-0.520373,-1.230599,2.325234,0.002856,0.54692,0.286595,0.0,16.0,76.0,180.0,26.0,1.0
502902,-0.432363,-1.163835,2.419362,-0.162991,0.4179,0.6194569999999999,0.0,16.0,76.0,180.0,26.0,1.0
502903,-0.378603,-1.107917,2.483412,-0.329326,0.086751,0.84025,0.0,16.0,76.0,180.0,26.0,1.0
502904,-0.330449,-1.071049,2.529076,-0.020313,-0.225467,0.545967,0.0,16.0,76.0,180.0,26.0,1.0
502905,-0.310054,-1.065684,2.548452,0.136366,-0.104246,0.572504,0.0,16.0,76.0,180.0,26.0,1.0
502906,-0.296428,-1.072435,2.553401,-0.125058,0.259618,0.363138,0.0,16.0,76.0,180.0,26.0,1.0
502907,-0.269436,-1.095458,2.559144,-0.241038,0.037528,0.069493,0.0,16.0,76.0,180.0,26.0,1.0
502908,-0.25690100000000005,-1.126402,2.550606,-0.151587,-0.198877,0.194632,0.0,16.0,76.0,180.0,26.0,1.0
502909,-0.275879,-1.1584020000000002,2.519548,-0.196765,-0.37086,0.252444,0.0,16.0,76.0,180.0,26.0,1.0
502910,-0.332111,-1.192319,2.465366,-0.22241100000000005,-0.36389,0.243499,0.0,16.0,76.0,180.0,26.0,1.0
502911,-0.4177270000000001,-1.234413,2.38671,-0.088603,-0.428238,0.31658800000000004,0.0,16.0,76.0,180.0,26.0,1.0
502912,-0.535856,-1.281686,2.28021,-0.076948,-0.442781,0.260029,0.0,16.0,76.0,180.0,26.0,1.0
502913,-0.7104,-1.31948,2.127834,0.008166,-0.17493,0.036147000000000006,0.0,16.0,76.0,180.0,26.0,1.0
502914,-0.916367,-1.340027,1.968184,0.239158,0.473195,-0.50326,0.0,16.0,76.0,180.0,26.0,1.0
502915,-1.109933,-1.351438,1.807395,0.25258200000000003,0.470648,-0.545712,0.0,16.0,76.0,180.0,26.0,1.0
502916,-1.258917,-1.359587,1.682557,0.416325,0.098638,-0.785596,0.0,16.0,76.0,180.0,26.0,1.0
502917,-1.383518,-1.366123,1.600054,0.457303,-0.4854600000000001,-0.484549,0.0,16.0,76.0,180.0,26.0,1.0
502918,-1.447711,-1.370496,1.574253,0.27689,-0.494609,-0.445486,0.0,16.0,76.0,180.0,26.0,1.0
502919,-1.384986,-1.378523,1.628952,0.205419,-0.4695180000000001,-0.547193,0.0,16.0,76.0,180.0,26.0,1.0
502920,-1.1795639999999998,-1.37796,1.805791,-0.611735,0.279384,0.393363,0.0,16.0,76.0,180.0,26.0,1.0
502921,-1.03576,-1.373506,1.95999,-0.935154,0.997655,0.285639,0.0,16.0,76.0,180.0,26.0,1.0
502922,-1.096159,-1.380943,1.952302,-0.251307,0.930947,0.397081,0.0,16.0,76.0,180.0,26.0,1.0
502923,-1.221955,-1.380867,1.857853,0.094589,0.331261,-1.269147,0.0,16.0,76.0,180.0,26.0,1.0
502924,-1.3137219999999998,-1.389205,1.787011,0.43637,1.004205,-0.648323,0.0,16.0,76.0,180.0,26.0,1.0
502925,-1.089588,-1.384681,1.949988,0.008278,0.037426,0.76907,0.0,16.0,76.0,180.0,26.0,1.0
502926,-0.8654629999999999,-1.366055,2.13345,-0.121789,-0.212344,0.517664,0.0,16.0,76.0,180.0,26.0,1.0
502927,-0.812036,-1.35071,2.17685,-0.051265,-0.292559,0.363822,0.0,16.0,76.0,180.0,26.0,1.0
502928,-0.851893,-1.348398,2.150743,-0.110115,-0.068618,0.371373,0.0,16.0,76.0,180.0,26.0,1.0
502929,-0.961179,-1.3572620000000002,2.067316,-0.05705900000000001,0.268424,-0.480569,0.0,16.0,76.0,180.0,26.0,1.0
502930,-1.275059,-1.377171,1.808405,-0.196283,0.551982,-1.883019,0.0,16.0,76.0,180.0,26.0,1.0
502931,-1.100467,-1.3732879999999998,1.915763,0.0020050000000000003,0.100984,-0.400303,0.0,16.0,76.0,180.0,26.0,1.0
502932,-0.8906040000000001,-1.3561040000000002,2.073803,-0.065669,0.02366,-0.7174050000000001,0.0,16.0,76.0,180.0,26.0,1.0
502933,-0.7263069999999999,-1.331065,2.217542,-0.028105,0.184055,-0.6921609999999999,0.0,16.0,76.0,180.0,26.0,1.0
502934,-0.52768,-1.2761360000000002,2.383699,-0.22243,-0.129279,0.309336,0.0,16.0,76.0,180.0,26.0,1.0
502935,-0.408126,-1.210619,2.48217,-0.189655,-0.322202,0.5951310000000001,0.0,16.0,76.0,180.0,26.0,1.0
502936,-0.334983,-1.140489,2.544859,0.038564,-0.4721,0.916917,0.0,16.0,76.0,180.0,26.0,1.0
502937,-0.30353600000000003,-1.084606,2.581244,-0.050342000000000005,0.088522,1.031417,0.0,16.0,76.0,180.0,26.0,1.0
502938,-0.294579,-1.05988,2.604459,0.111555,0.525088,0.512705,0.0,16.0,76.0,180.0,26.0,1.0
502939,-0.301516,-1.056947,2.624117,0.052599,0.289831,0.32607,0.0,16.0,76.0,180.0,26.0,1.0
502940,-0.272911,-1.064879,2.641172,-0.143904,-0.046559,0.574531,0.0,16.0,76.0,180.0,26.0,1.0
502941,-0.280008,-1.06523,2.63261,-0.454797,-0.154395,0.373361,0.0,16.0,76.0,180.0,26.0,1.0
502942,-0.29685500000000004,-1.086152,2.614418,-0.268416,-0.187911,0.14764000000000002,0.0,16.0,76.0,180.0,26.0,1.0
502943,-0.31769400000000003,-1.130367,2.583203,-0.152778,-0.327344,0.182602,0.0,16.0,76.0,180.0,26.0,1.0
502944,-0.366474,-1.182542,2.530261,-0.14616700000000002,-0.238087,0.17344500000000002,0.0,16.0,76.0,180.0,26.0,1.0
502945,-0.472048,-1.243362,2.430186,-0.247,0.153609,0.083623,0.0,16.0,76.0,180.0,26.0,1.0
502946,-0.6645270000000001,-1.305381,2.263464,-0.117487,0.285581,-0.021598,0.0,16.0,76.0,180.0,26.0,1.0
502947,-0.879192,-1.347681,2.06945,0.317285,0.505622,-0.6759930000000001,0.0,16.0,76.0,180.0,26.0,1.0
502948,-1.029862,-1.370545,1.895181,0.588378,0.159052,-0.8385530000000001,0.0,16.0,76.0,180.0,26.0,1.0
502949,-1.111744,-1.373542,1.811537,0.549176,-0.34875700000000004,-0.503312,0.0,16.0,76.0,180.0,26.0,1.0
502950,-1.144253,-1.367459,1.818973,0.370016,-0.8357979999999999,0.077109,0.0,16.0,76.0,180.0,26.0,1.0
502951,-1.088032,-1.358552,1.893455,0.138026,-0.796775,-0.246432,0.0,16.0,76.0,180.0,26.0,1.0
502952,-1.047642,-1.350471,1.952687,-0.011793,-0.280285,-0.41312,0.0,16.0,76.0,180.0,26.0,1.0
502953,-1.11936,-1.351155,1.945602,-0.126289,0.53878,0.7436729999999999,0.0,16.0,76.0,180.0,26.0,1.0
502954,-1.131824,-1.354812,1.960808,-0.27415,1.054026,0.663411,0.0,16.0,76.0,180.0,26.0,1.0
502955,-1.128926,-1.362877,1.956906,-0.838931,1.10749,-0.718306,0.0,16.0,76.0,180.0,26.0,1.0
502956,-1.253807,-1.379022,1.831177,0.783378,-0.06676599999999999,0.949872,0.0,16.0,76.0,180.0,26.0,1.0
502957,-1.0942379999999998,-1.374134,1.935923,0.161371,-0.217495,0.8507100000000001,0.0,16.0,76.0,180.0,26.0,1.0
502958,-0.839873,-1.348753,2.1454310000000003,-0.098581,-0.28422600000000003,0.675312,0.0,16.0,76.0,180.0,26.0,1.0
502959,-0.760691,-1.326949,2.208159,-0.07885,-0.11156,0.545948,0.0,16.0,76.0,180.0,26.0,1.0
502960,-0.796273,-1.320784,2.185995,-0.07317699999999999,-0.060294000000000014,0.501983,0.0,16.0,76.0,180.0,26.0,1.0
502961,-0.8804790000000001,-1.325082,2.124852,-0.039897,-0.017556,0.399661,0.0,16.0,76.0,180.0,26.0,1.0
502962,-1.060163,-1.338934,1.977621,-0.095142,0.215404,-0.6234569999999999,0.0,16.0,76.0,180.0,26.0,1.0
502963,-1.244881,-1.354647,1.79663,0.092171,0.010605,-0.256859,0.0,16.0,76.0,180.0,26.0,1.0
502964,-1.150795,-1.347105,1.838792,0.14161,-0.001117,-0.248716,0.0,16.0,76.0,180.0,26.0,1.0
502965,-1.104068,-1.338504,1.865851,0.28007,0.234073,-0.8709290000000001,0.0,16.0,76.0,180.0,26.0,1.0
502966,-1.008571,-1.327321,1.939201,0.139965,0.18521,-0.8435799999999999,0.0,16.0,76.0,180.0,26.0,1.0
502967,-0.858621,-1.30171,2.071886,-0.022234,0.111257,-0.5963970000000001,0.0,16.0,76.0,180.0,26.0,1.0
502968,-0.727709,-1.264245,2.190419,-0.080413,-0.077571,0.199227,0.0,16.0,76.0,180.0,26.0,1.0
502969,-0.595879,-1.210975,2.296706,-0.095225,-0.106034,0.387191,0.0,16.0,76.0,180.0,26.0,1.0
502970,-0.501913,-1.14545,2.374577,-0.078981,-0.232154,0.586114,0.0,16.0,76.0,180.0,26.0,1.0
502971,-0.466394,-1.081752,2.423367,0.099075,-0.337845,0.971006,0.0,16.0,76.0,180.0,26.0,1.0
502972,-0.458189,-1.043012,2.455233,0.221326,-0.198886,0.800163,0.0,16.0,76.0,180.0,26.0,1.0
502973,-0.439227,-1.043572,2.476502,0.386894,0.092718,0.549702,0.0,16.0,76.0,180.0,26.0,1.0
502974,-0.397856,-1.063964,2.496939,0.25605900000000004,0.131939,0.408884,0.0,16.0,76.0,180.0,26.0,1.0
502975,-0.362639,-1.083075,2.508406,-0.332743,0.231389,0.477542,0.0,16.0,76.0,180.0,26.0,1.0
502976,-0.331932,-1.11964,2.510468,-0.437207,0.32404,-0.119342,0.0,16.0,76.0,180.0,26.0,1.0
502977,-0.33405,-1.174895,2.485564,-0.15341,0.039677,-0.222908,0.0,16.0,76.0,180.0,26.0,1.0
502978,-0.379071,-1.234067,2.43748,-0.12252,-0.024102,-0.246612,0.0,16.0,76.0,180.0,26.0,1.0
502979,-0.465344,-1.288371,2.361368,-0.157654,-0.338984,-0.028203,0.0,16.0,76.0,180.0,26.0,1.0
502980,-0.580655,-1.326069,2.2562580000000003,-0.207737,-0.4948770000000001,0.087463,0.0,16.0,76.0,180.0,26.0,1.0
502981,-0.709198,-1.339929,2.14022,-0.41155,-0.077976,0.243865,0.0,16.0,76.0,180.0,26.0,1.0
502982,-0.8480110000000001,-1.3484120000000002,2.0043580000000003,0.10864,0.163572,-0.395814,0.0,16.0,76.0,180.0,26.0,1.0
502983,-1.007595,-1.363156,1.842288,0.445646,0.177715,-0.736939,0.0,16.0,76.0,180.0,26.0,1.0
502984,-1.153496,-1.365274,1.728724,0.5244880000000001,0.187626,-0.6675300000000001,0.0,16.0,76.0,180.0,26.0,1.0
502985,-1.247152,-1.361915,1.6861419999999998,0.609273,-0.203346,-0.277081,0.0,16.0,76.0,180.0,26.0,1.0
502986,-1.293677,-1.36222,1.673693,0.599787,-0.539347,-0.061461,0.0,16.0,76.0,180.0,26.0,1.0
502987,-1.321246,-1.367523,1.664118,0.196674,-0.794276,0.223936,0.0,16.0,76.0,180.0,26.0,1.0
502988,-1.25274,-1.374866,1.713426,-0.07199900000000001,-0.423311,0.242556,0.0,16.0,76.0,180.0,26.0,1.0
502989,-1.168568,-1.373975,1.7986490000000002,-0.26426700000000003,0.34036700000000003,-0.044813,0.0,16.0,76.0,180.0,26.0,1.0
502990,-1.224854,-1.36915,1.819721,-0.4810930000000001,0.8210430000000001,0.157318,0.0,16.0,76.0,180.0,26.0,1.0
502991,-1.385336,-1.37091,1.731941,-0.191112,0.5973189999999999,-0.128432,0.0,16.0,76.0,180.0,26.0,1.0
502992,-1.399471,-1.369336,1.690298,-0.085594,0.595435,-1.345087,0.0,16.0,76.0,180.0,26.0,1.0
502993,-1.308433,-1.377335,1.748252,0.293935,0.552499,0.029271,0.0,16.0,76.0,180.0,26.0,1.0
