,attitude.roll,attitude.pitch,attitude.yaw,userAcceleration.x,userAcceleration.y,userAcceleration.z,act,id,weight,height,age,gender
638623,0.982661,-1.150822,0.26518400000000003,0.43112,0.943972,-0.586639,0.0,20.0,52.0,165.0,24.0,1.0
638624,0.934287,-1.150751,0.26563200000000003,-0.145823,-0.5929260000000001,0.207782,0.0,20.0,52.0,165.0,24.0,1.0
638625,0.940545,-1.146991,0.25506,0.022304,-0.29886,-0.215258,0.0,20.0,52.0,165.0,24.0,1.0
638626,0.990762,-1.140608,0.271267,0.361076,0.328936,0.25597600000000004,0.0,20.0,52.0,165.0,24.0,1.0
638627,1.043046,-1.135756,0.303028,0.003655,0.099082,0.323621,0.0,20.0,52.0,165.0,24.0,1.0
638628,1.096806,-1.134401,0.363173,0.036163,-0.167191,0.019597,0.0,20.0,52.0,165.0,24.0,1.0
638629,1.132876,-1.131874,0.424622,-0.063579,-0.136304,-0.242891,0.0,20.0,52.0,165.0,24.0,1.0
638630,1.163652,-1.131266,0.473181,-0.295979,0.02205,-0.158028,0.0,20.0,52.0,165.0,24.0,1.0
638631,1.193078,-1.13422,0.497602,0.042708,-0.035965,0.019892,0.0,20.0,52.0,165.0,24.0,1.0
638632,1.214358,-1.138299,0.513551,0.092049,-0.075112,0.012629,0.0,20.0,52.0,165.0,24.0,1.0
638633,1.233033,-1.140464,0.541329,0.076623,-0.089903,-0.150855,0.0,20.0,52.0,165.0,24.0,1.0
638634,1.248005,-1.140565,0.575723,-0.056953,-0.052667999999999986,-0.325295,0.0,20.0,52.0,165.0,24.0,1.0
638635,1.249613,-1.140506,0.599587,-0.081202,-0.07512,-0.258425,0.0,20.0,52.0,165.0,24.0,1.0
638636,1.236402,-1.141981,0.6051850000000001,-0.115942,-0.124196,-0.064484,0.0,20.0,52.0,165.0,24.0,1.0
638637,1.213934,-1.14479,0.5966020000000001,-0.180923,-0.112848,0.068457,0.0,20.0,52.0,165.0,24.0,1.0
638638,1.185597,-1.148552,0.582653,-0.184791,-0.111818,0.07560900000000001,0.0,20.0,52.0,165.0,24.0,1.0
638639,1.163726,-1.153258,0.574254,-0.11681,-0.171964,0.031975,0.0,20.0,52.0,165.0,24.0,1.0
638640,1.1397469999999998,-1.157215,0.562523,-0.194953,-0.277199,0.112419,0.0,20.0,52.0,165.0,24.0,1.0
638641,1.104078,-1.161464,0.5402279999999999,-0.271116,-0.256529,0.055511000000000005,0.0,20.0,52.0,165.0,24.0,1.0
638642,1.053264,-1.1684290000000002,0.509796,-0.223545,-0.209214,-0.08745700000000001,0.0,20.0,52.0,165.0,24.0,1.0
638643,0.994639,-1.175845,0.475679,0.159189,-0.177395,-0.066966,0.0,20.0,52.0,165.0,24.0,1.0
638644,0.962284,-1.180564,0.451926,0.079582,-0.176926,-0.03609,0.0,20.0,52.0,165.0,24.0,1.0
638645,0.94714,-1.184345,0.4421020000000001,0.074612,-0.23744,-0.008834999999999999,0.0,20.0,52.0,165.0,24.0,1.0
638646,0.937358,-1.186763,0.442072,-0.095166,-0.002646,-0.126106,0.0,20.0,52.0,165.0,24.0,1.0
638647,0.915826,-1.189515,0.4331060000000001,-0.112894,0.125568,-0.251857,0.0,20.0,52.0,165.0,24.0,1.0
638648,0.879308,-1.192859,0.415393,0.087302,0.046555,-0.127385,0.0,20.0,52.0,165.0,24.0,1.0
638649,0.841949,-1.196418,0.391717,0.040531,0.14641300000000002,-0.005902,0.0,20.0,52.0,165.0,24.0,1.0
638650,0.7921590000000001,-1.198565,0.344644,-0.049621,0.278168,0.033387,0.0,20.0,52.0,165.0,24.0,1.0
638651,0.708052,-1.200983,0.264563,0.030217,0.492242,0.009523,0.0,20.0,52.0,165.0,24.0,1.0
638652,0.609817,-1.199078,0.184438,0.378152,0.7055939999999999,0.125421,0.0,20.0,52.0,165.0,24.0,1.0
638653,0.511897,-1.194202,0.103857,0.450055,0.8029569999999999,0.131794,0.0,20.0,52.0,165.0,24.0,1.0
638654,0.414974,-1.1844059999999998,0.023835,0.322284,0.612696,0.067221,0.0,20.0,52.0,165.0,24.0,1.0
638655,0.327698,-1.172657,-0.039719,0.185319,0.512283,0.040693,0.0,20.0,52.0,165.0,24.0,1.0
638656,0.268793,-1.160051,-0.07623300000000001,0.155209,0.406312,0.073988,0.0,20.0,52.0,165.0,24.0,1.0
638657,0.228736,-1.14793,-0.092361,0.08082400000000001,0.28736300000000004,0.111379,0.0,20.0,52.0,165.0,24.0,1.0
638658,0.191928,-1.135559,-0.101949,0.094243,0.221938,0.242657,0.0,20.0,52.0,165.0,24.0,1.0
638659,0.153818,-1.125862,-0.109883,0.108452,0.08579500000000001,0.29788400000000004,0.0,20.0,52.0,165.0,24.0,1.0
638660,0.122009,-1.11916,-0.106131,0.103881,-0.347671,0.341634,0.0,20.0,52.0,165.0,24.0,1.0
638661,0.100538,-1.115808,-0.093933,0.053611,-0.329785,0.367463,0.0,20.0,52.0,165.0,24.0,1.0
638662,0.086876,-1.117623,-0.083751,0.007316,-0.276595,0.387015,0.0,20.0,52.0,165.0,24.0,1.0
638663,0.072646,-1.123168,-0.079714,-0.163465,-0.238756,0.429331,0.0,20.0,52.0,165.0,24.0,1.0
638664,0.06336,-1.129931,-0.076576,-0.166987,-0.239283,0.317415,0.0,20.0,52.0,165.0,24.0,1.0
638665,0.06965,-1.140503,-0.064429,-0.07094600000000001,-0.233642,0.218396,0.0,20.0,52.0,165.0,24.0,1.0
638666,0.08762,-1.157161,-0.0472,0.076888,-0.15426700000000002,0.095781,0.0,20.0,52.0,165.0,24.0,1.0
638667,0.117733,-1.1756950000000002,-0.027508,-0.018462,-0.116134,0.042448,0.0,20.0,52.0,165.0,24.0,1.0
638668,0.160511,-1.191699,-0.007347,-0.158038,-0.165266,-0.014031,0.0,20.0,52.0,165.0,24.0,1.0
638669,0.211659,-1.204218,0.011713,-0.280711,-0.300167,0.015243,0.0,20.0,52.0,165.0,24.0,1.0
638670,0.274177,-1.218556,0.037937,-0.181482,-0.369922,0.070755,0.0,20.0,52.0,165.0,24.0,1.0
638671,0.375154,-1.2398,0.095953,0.035938,-0.219691,0.06877799999999999,0.0,20.0,52.0,165.0,24.0,1.0
638672,0.530895,-1.265632,0.198745,0.186387,0.041793,-0.08967,0.0,20.0,52.0,165.0,24.0,1.0
638673,0.708905,-1.283149,0.329064,0.005415,0.040811,-0.150919,0.0,20.0,52.0,165.0,24.0,1.0
638674,0.8367549999999999,-1.286253,0.431086,-0.159268,-0.102948,-0.1562,0.0,20.0,52.0,165.0,24.0,1.0
638675,0.8946299999999999,-1.282099,0.487108,-0.211126,-0.116636,-0.196412,0.0,20.0,52.0,165.0,24.0,1.0
638676,0.924239,-1.277412,0.525598,-0.149224,0.09261,-0.172557,0.0,20.0,52.0,165.0,24.0,1.0
638677,0.946351,-1.271938,0.551599,-0.116283,0.041901,-0.100758,0.0,20.0,52.0,165.0,24.0,1.0
638678,0.963709,-1.264749,0.567547,-0.057793,-0.07226,0.01959,0.0,20.0,52.0,165.0,24.0,1.0
638679,0.973514,-1.257707,0.581175,-0.042018,0.235198,-0.067527,0.0,20.0,52.0,165.0,24.0,1.0
638680,0.966896,-1.2531219999999998,0.594202,0.018107,0.318743,-0.100449,0.0,20.0,52.0,165.0,24.0,1.0
638681,0.949183,-1.249305,0.603504,0.126711,0.563671,0.018584,0.0,20.0,52.0,165.0,24.0,1.0
638682,0.936186,-1.242126,0.594969,0.378436,0.232284,0.119233,0.0,20.0,52.0,165.0,24.0,1.0
638683,0.933467,-1.236959,0.581622,0.39006,-0.085921,0.043607,0.0,20.0,52.0,165.0,24.0,1.0
638684,0.919157,-1.229762,0.592101,0.428966,-0.213146,0.398871,0.0,20.0,52.0,165.0,24.0,1.0
638685,0.957642,-1.220244,0.635582,0.053974,0.30085300000000004,0.341778,0.0,20.0,52.0,165.0,24.0,1.0
638686,1.074668,-1.219911,0.728903,-0.058975,0.034244,0.286528,0.0,20.0,52.0,165.0,24.0,1.0
638687,1.206072,-1.214985,0.855173,0.157607,0.094618,0.057218,0.0,20.0,52.0,165.0,24.0,1.0
638688,1.283004,-1.204931,0.948602,0.470247,0.775536,-0.473181,0.0,20.0,52.0,165.0,24.0,1.0
638689,1.319022,-1.199319,1.025215,0.037547,-0.217299,-0.25924400000000003,0.0,20.0,52.0,165.0,24.0,1.0
638690,1.342262,-1.194881,1.075816,-0.263298,-0.144176,-0.100394,0.0,20.0,52.0,165.0,24.0,1.0
638691,1.358786,-1.1917870000000002,1.083676,0.004904,0.06564299999999999,-0.047893,0.0,20.0,52.0,165.0,24.0,1.0
638692,1.377217,-1.191149,1.079721,0.16000699999999998,0.120139,0.105896,0.0,20.0,52.0,165.0,24.0,1.0
638693,1.402386,-1.186823,1.100275,0.035169,-0.139601,0.046949,0.0,20.0,52.0,165.0,24.0,1.0
638694,1.438959,-1.180696,1.153131,0.01895,-0.154805,-0.24208,0.0,20.0,52.0,165.0,24.0,1.0
638695,1.448534,-1.177955,1.185472,-0.19124,-0.045148,-0.5018520000000001,0.0,20.0,52.0,165.0,24.0,1.0
638696,1.4192,-1.183095,1.168407,-0.35985900000000004,-0.083114,-0.014564,0.0,20.0,52.0,165.0,24.0,1.0
638697,1.36016,-1.19108,1.110817,-0.303829,-0.144361,0.049037,0.0,20.0,52.0,165.0,24.0,1.0
638698,1.29559,-1.198839,1.043897,-0.32926,-0.341072,0.133001,0.0,20.0,52.0,165.0,24.0,1.0
638699,1.238197,-1.207188,0.977618,-0.207424,-0.4145390000000001,-0.080601,0.0,20.0,52.0,165.0,24.0,1.0
638700,1.186231,-1.215411,0.914108,-0.029024,-0.393842,-0.023887,0.0,20.0,52.0,165.0,24.0,1.0
638701,1.1367459999999998,-1.222681,0.843159,0.030788,-0.282486,0.128929,0.0,20.0,52.0,165.0,24.0,1.0
638702,1.08399,-1.229403,0.765387,-0.059111,-0.206617,-0.07299800000000001,0.0,20.0,52.0,165.0,24.0,1.0
638703,1.025941,-1.236702,0.689624,0.171085,-0.152303,-0.125552,0.0,20.0,52.0,165.0,24.0,1.0
638704,0.98964,-1.244091,0.640752,0.354315,0.070656,0.003891,0.0,20.0,52.0,165.0,24.0,1.0
638705,0.952009,-1.249341,0.599346,0.196379,0.15805,-0.164383,0.0,20.0,52.0,165.0,24.0,1.0
638706,0.83424,-1.242884,0.5010859999999999,0.094097,0.235214,0.073272,0.0,20.0,52.0,165.0,24.0,1.0
638707,0.663484,-1.225735,0.35225500000000004,0.048446,0.816087,-0.111519,0.0,20.0,52.0,165.0,24.0,1.0
638708,0.492524,-1.202928,0.198939,0.33415,0.966898,-0.323735,0.0,20.0,52.0,165.0,24.0,1.0
638709,0.337739,-1.17331,0.067534,0.4739680000000001,0.8449620000000001,-0.101418,0.0,20.0,52.0,165.0,24.0,1.0
638710,0.23636,-1.1478780000000002,-0.013092,0.31664499999999995,0.8931129999999999,0.316884,0.0,20.0,52.0,165.0,24.0,1.0
638711,0.139824,-1.141102,-0.049249,0.312348,0.824916,0.380844,0.0,20.0,52.0,165.0,24.0,1.0
638712,0.06779099999999999,-1.1310790000000002,-0.058737,-0.037197,0.34084000000000003,0.119174,0.0,20.0,52.0,165.0,24.0,1.0
638713,0.046192,-1.105764,-0.060229,-0.254197,0.196967,0.072403,0.0,20.0,52.0,165.0,24.0,1.0
638714,0.038377,-1.083564,-0.06117300000000001,-0.059482000000000014,-0.02766,0.235213,0.0,20.0,52.0,165.0,24.0,1.0
638715,0.034145,-1.063561,-0.056531,0.113147,-0.282508,0.308656,0.0,20.0,52.0,165.0,24.0,1.0
638716,0.030538,-1.054405,-0.042135,0.008026,-0.398552,0.46925,0.0,20.0,52.0,165.0,24.0,1.0
638717,0.02755,-1.060995,-0.021824,-0.12098699999999997,-0.415185,0.545736,0.0,20.0,52.0,165.0,24.0,1.0
638718,0.032609,-1.077492,0.001405,-0.20448,-0.372167,0.558732,0.0,20.0,52.0,165.0,24.0,1.0
638719,0.053589,-1.093708,0.024737,-0.18254,-0.330627,0.358708,0.0,20.0,52.0,165.0,24.0,1.0
638720,0.097561,-1.112292,0.048498,-0.167075,-0.220782,0.097266,0.0,20.0,52.0,165.0,24.0,1.0
638721,0.164151,-1.133775,0.071251,-0.225871,-0.199717,-0.098931,0.0,20.0,52.0,165.0,24.0,1.0
638722,0.238674,-1.150432,0.088966,-0.292767,-0.229072,-0.068234,0.0,20.0,52.0,165.0,24.0,1.0
638723,0.30635300000000004,-1.158801,0.09525,-0.273275,-0.334018,0.110273,0.0,20.0,52.0,165.0,24.0,1.0
638724,0.37226,-1.167916,0.095931,-0.081338,-0.383787,0.290045,0.0,20.0,52.0,165.0,24.0,1.0
638725,0.460123,-1.186015,0.120517,-0.015081,-0.33476300000000003,0.25505900000000004,0.0,20.0,52.0,165.0,24.0,1.0
638726,0.584669,-1.207554,0.188221,0.175149,-0.150158,-0.05929400000000001,0.0,20.0,52.0,165.0,24.0,1.0
638727,0.716681,-1.219558,0.27681100000000003,0.148922,0.111208,-0.424198,0.0,20.0,52.0,165.0,24.0,1.0
638728,0.811458,-1.217742,0.341568,-0.072017,0.090213,-0.436971,0.0,20.0,52.0,165.0,24.0,1.0
638729,0.8596450000000001,-1.205219,0.362424,-0.293687,0.036831,-0.431909,0.0,20.0,52.0,165.0,24.0,1.0
638730,0.8637610000000001,-1.191283,0.346386,-0.286112,-0.213376,-0.116672,0.0,20.0,52.0,165.0,24.0,1.0
638731,0.837209,-1.179244,0.30592600000000003,-0.205864,-0.078325,0.0016600000000000002,0.0,20.0,52.0,165.0,24.0,1.0
638732,0.804192,-1.171184,0.260463,0.08594299999999999,0.405158,0.163636,0.0,20.0,52.0,165.0,24.0,1.0
638733,0.7826270000000001,-1.168409,0.244492,0.621534,0.508857,0.070918,0.0,20.0,52.0,165.0,24.0,1.0
638734,0.780568,-1.16242,0.26037,0.6067140000000001,0.62659,0.353931,0.0,20.0,52.0,165.0,24.0,1.0
638735,0.778523,-1.15602,0.246783,-0.061852,0.675797,-0.136989,0.0,20.0,52.0,165.0,24.0,1.0
638736,0.720342,-1.151566,0.203811,-0.069853,0.29930500000000004,0.229774,0.0,20.0,52.0,165.0,24.0,1.0
638737,0.704961,-1.147302,0.19055,0.083958,-0.047217,0.244339,0.0,20.0,52.0,165.0,24.0,1.0
638738,0.7340270000000001,-1.147618,0.192299,0.387882,0.384293,0.302172,0.0,20.0,52.0,165.0,24.0,1.0
638739,0.783127,-1.147691,0.209518,0.258992,0.141282,0.234819,0.0,20.0,52.0,165.0,24.0,1.0
638740,0.8512959999999999,-1.149615,0.26264,0.180846,-0.09005099999999999,0.242858,0.0,20.0,52.0,165.0,24.0,1.0
638741,0.93107,-1.150109,0.33299,0.177485,0.362979,-0.224286,0.0,20.0,52.0,165.0,24.0,1.0
638742,0.993733,-1.151277,0.394045,0.07987799999999999,0.290298,-0.326658,0.0,20.0,52.0,165.0,24.0,1.0
638743,1.016445,-1.152548,0.432971,-0.110998,0.028199,-0.233822,0.0,20.0,52.0,165.0,24.0,1.0
638744,1.033957,-1.154455,0.460608,-0.143342,-0.293329,-0.214289,0.0,20.0,52.0,165.0,24.0,1.0
638745,1.06253,-1.157504,0.485796,0.22805300000000006,-0.092638,-0.064603,0.0,20.0,52.0,165.0,24.0,1.0
638746,1.093851,-1.159051,0.50993,0.286656,-0.053127,0.026829,0.0,20.0,52.0,165.0,24.0,1.0
638747,1.135151,-1.158607,0.558633,0.066984,-0.188371,-0.09866,0.0,20.0,52.0,165.0,24.0,1.0
638748,1.186813,-1.158472,0.6378159999999999,-0.320495,-0.165917,-0.336863,0.0,20.0,52.0,165.0,24.0,1.0
638749,1.22087,-1.161807,0.703461,-0.490243,-0.202618,-0.360172,0.0,20.0,52.0,165.0,24.0,1.0
638750,1.218745,-1.169378,0.723069,-0.550697,-0.187125,-0.25495100000000004,0.0,20.0,52.0,165.0,24.0,1.0
638751,1.1821620000000002,-1.179549,0.701693,-0.332572,-0.287227,-0.184162,0.0,20.0,52.0,165.0,24.0,1.0
638752,1.128359,-1.189932,0.650999,-0.190093,-0.342681,-0.093768,0.0,20.0,52.0,165.0,24.0,1.0
638753,1.074776,-1.196811,0.589178,0.036787,-0.438691,0.14520999999999998,0.0,20.0,52.0,165.0,24.0,1.0
638754,1.041808,-1.202063,0.546686,0.018002,-0.366256,0.016425,0.0,20.0,52.0,165.0,24.0,1.0
638755,1.013496,-1.20886,0.5201439999999999,0.07686599999999999,-0.310701,0.097747,0.0,20.0,52.0,165.0,24.0,1.0
638756,0.984972,-1.214777,0.494578,-0.007858,-0.240148,0.08668300000000001,0.0,20.0,52.0,165.0,24.0,1.0
638757,0.974495,-1.221366,0.4839890000000001,-0.07613099999999999,-0.136696,-0.081452,0.0,20.0,52.0,165.0,24.0,1.0
638758,0.946957,-1.226736,0.465371,-0.035839,0.079832,-0.154205,0.0,20.0,52.0,165.0,24.0,1.0
638759,0.877941,-1.230641,0.402285,0.115616,0.411515,-0.065772,0.0,20.0,52.0,165.0,24.0,1.0
638760,0.755071,-1.222766,0.27822,-0.013207,0.538622,0.045867000000000005,0.0,20.0,52.0,165.0,24.0,1.0
638761,0.617919,-1.203809,0.142549,0.037221,1.011427,-0.025009,0.0,20.0,52.0,165.0,24.0,1.0
638762,0.483531,-1.179847,0.024102,0.189969,1.156568,0.016085,0.0,20.0,52.0,165.0,24.0,1.0
638763,0.369439,-1.156268,-0.051986,0.249162,0.814934,0.29402,0.0,20.0,52.0,165.0,24.0,1.0
638764,0.239134,-1.136823,-0.113399,0.217331,0.48462,0.049697000000000005,0.0,20.0,52.0,165.0,24.0,1.0
638765,0.14777300000000002,-1.114493,-0.16701400000000002,0.158802,0.478289,-0.140789,0.0,20.0,52.0,165.0,24.0,1.0
638766,0.121492,-1.096659,-0.194304,0.040142,0.395622,0.06738200000000001,0.0,20.0,52.0,165.0,24.0,1.0
638767,0.09599,-1.086542,-0.207761,-0.01636,0.135928,0.146781,0.0,20.0,52.0,165.0,24.0,1.0
638768,0.073424,-1.081848,-0.209219,-0.012758,-0.20695500000000006,0.3159,0.0,20.0,52.0,165.0,24.0,1.0
638769,0.06573999999999999,-1.083039,-0.1944,-0.030038,-0.414316,0.486367,0.0,20.0,52.0,165.0,24.0,1.0
638770,0.07203899999999999,-1.089989,-0.171127,-0.115015,-0.451823,0.513155,0.0,20.0,52.0,165.0,24.0,1.0
638771,0.092719,-1.101274,-0.142459,-0.260839,-0.504959,0.433728,0.0,20.0,52.0,165.0,24.0,1.0
638772,0.132437,-1.116556,-0.104337,-0.226672,-0.522404,0.400218,0.0,20.0,52.0,165.0,24.0,1.0
638773,0.200115,-1.138192,-0.054797000000000005,-0.126152,-0.480326,0.374167,0.0,20.0,52.0,165.0,24.0,1.0
638774,0.305144,-1.166625,0.010592,-0.099529,-0.485011,0.334129,0.0,20.0,52.0,165.0,24.0,1.0
638775,0.463164,-1.199186,0.111335,0.013536,-0.261914,0.040734,0.0,20.0,52.0,165.0,24.0,1.0
638776,0.666659,-1.2226549999999998,0.244779,-0.058316,-0.123465,-0.189296,0.0,20.0,52.0,165.0,24.0,1.0
638777,0.830729,-1.235725,0.35640900000000003,-0.18393,-0.002508,-0.213501,0.0,20.0,52.0,165.0,24.0,1.0
638778,0.921851,-1.244265,0.419175,-0.330133,-0.124269,-0.15623900000000002,0.0,20.0,52.0,165.0,24.0,1.0
638779,0.951869,-1.245436,0.447984,-0.279756,-0.126338,-0.189862,0.0,20.0,52.0,165.0,24.0,1.0
638780,0.926436,-1.239866,0.4386560000000001,-0.189526,0.104293,-0.08845900000000001,0.0,20.0,52.0,165.0,24.0,1.0
638781,0.8832459999999999,-1.231765,0.400502,0.331067,0.547401,0.014222,0.0,20.0,52.0,165.0,24.0,1.0
638782,0.804457,-1.217569,0.339196,0.338856,0.552217,0.043057,0.0,20.0,52.0,165.0,24.0,1.0
638783,0.737954,-1.205857,0.27789200000000003,0.31016,0.311261,0.718262,0.0,20.0,52.0,165.0,24.0,1.0
638784,0.722402,-1.2030459999999998,0.224408,0.510817,-0.065844,-0.396565,0.0,20.0,52.0,165.0,24.0,1.0
638785,0.675683,-1.191683,0.191042,0.7216600000000001,0.07184600000000001,0.074753,0.0,20.0,52.0,165.0,24.0,1.0
638786,0.742877,-1.186898,0.233798,0.622321,0.715443,0.07628099999999999,0.0,20.0,52.0,165.0,24.0,1.0
638787,0.857463,-1.193118,0.328173,0.139946,0.011929,0.24270100000000006,0.0,20.0,52.0,165.0,24.0,1.0
638788,0.964412,-1.195829,0.439479,0.149593,-0.041009,0.022864,0.0,20.0,52.0,165.0,24.0,1.0
638789,1.071989,-1.195961,0.5484220000000001,0.1104,0.7256060000000001,-0.156724,0.0,20.0,52.0,165.0,24.0,1.0
638790,1.1567120000000002,-1.1989379999999998,0.6309819999999999,-0.06668400000000001,0.765459,-0.232305,0.0,20.0,52.0,165.0,24.0,1.0
638791,1.202519,-1.204314,0.693891,-0.356041,-0.024887,-0.116392,0.0,20.0,52.0,165.0,24.0,1.0
638792,1.219124,-1.210141,0.727456,-0.109219,-0.454297,-0.306637,0.0,20.0,52.0,165.0,24.0,1.0
638793,1.236883,-1.2142959999999998,0.740847,0.271974,-0.225988,-0.035128,0.0,20.0,52.0,165.0,24.0,1.0
638794,1.266707,-1.218772,0.7569640000000001,0.288479,-0.162905,0.084729,0.0,20.0,52.0,165.0,24.0,1.0
638795,1.319301,-1.219518,0.81689,0.032033,-0.21647600000000006,-0.130407,0.0,20.0,52.0,165.0,24.0,1.0
638796,1.369873,-1.217372,0.8938309999999999,-0.275372,-0.17218599999999998,-0.503528,0.0,20.0,52.0,165.0,24.0,1.0
638797,1.389692,-1.219445,0.937724,-0.478709,-0.170888,-0.474832,0.0,20.0,52.0,165.0,24.0,1.0
638798,1.370548,-1.229178,0.932629,-0.348555,-0.308577,-0.160918,0.0,20.0,52.0,165.0,24.0,1.0
638799,1.333621,-1.244205,0.897558,-0.007426,-0.388746,0.07545199999999999,0.0,20.0,52.0,165.0,24.0,1.0
638800,1.305547,-1.258299,0.859017,0.140402,-0.362473,0.084619,0.0,20.0,52.0,165.0,24.0,1.0
638801,1.28665,-1.267305,0.8374540000000001,0.327996,-0.380019,0.080069,0.0,20.0,52.0,165.0,24.0,1.0
638802,1.268393,-1.272443,0.824274,0.065886,-0.240444,-0.064791,0.0,20.0,52.0,165.0,24.0,1.0
638803,1.247306,-1.2783639999999998,0.814492,-0.033539,-0.265086,-0.151286,0.0,20.0,52.0,165.0,24.0,1.0
638804,1.232435,-1.286485,0.81015,0.06402100000000001,0.047759,-0.090292,0.0,20.0,52.0,165.0,24.0,1.0
638805,1.200677,-1.2969389999999998,0.778766,0.232303,0.346103,-0.073214,0.0,20.0,52.0,165.0,24.0,1.0
638806,1.109423,-1.301389,0.690399,0.147517,0.406921,-0.137958,0.0,20.0,52.0,165.0,24.0,1.0
638807,0.957457,-1.296127,0.551776,-0.135949,0.60914,-0.08645800000000001,0.0,20.0,52.0,165.0,24.0,1.0
638808,0.789326,-1.280466,0.396318,-0.073918,0.647884,-0.116423,0.0,20.0,52.0,165.0,24.0,1.0
638809,0.637092,-1.254487,0.25250100000000003,0.190793,0.985767,0.066849,0.0,20.0,52.0,165.0,24.0,1.0
638810,0.512713,-1.230682,0.14971600000000002,0.5034310000000001,1.214754,0.257564,0.0,20.0,52.0,165.0,24.0,1.0
638811,0.432634,-1.21805,0.133762,0.07547999999999999,0.72121,0.188729,0.0,20.0,52.0,165.0,24.0,1.0
638812,0.341976,-1.197083,0.101589,-0.152881,0.5529850000000001,-0.322409,0.0,20.0,52.0,165.0,24.0,1.0
638813,0.276623,-1.17735,0.068102,0.154363,0.29711,-0.078139,0.0,20.0,52.0,165.0,24.0,1.0
638814,0.230677,-1.160071,0.060167,0.27384000000000003,-0.046409,0.097417,0.0,20.0,52.0,165.0,24.0,1.0
638815,0.19975,-1.15189,0.077178,0.11889,-0.142844,0.257004,0.0,20.0,52.0,165.0,24.0,1.0
638816,0.175257,-1.1560700000000002,0.10098,-0.123845,-0.154469,0.4572310000000001,0.0,20.0,52.0,165.0,24.0,1.0
638817,0.15123399999999998,-1.1659,0.121057,-0.350606,-0.463928,0.569351,0.0,20.0,52.0,165.0,24.0,1.0
638818,0.12700999999999998,-1.176366,0.139223,-0.329239,-0.538297,0.524536,0.0,20.0,52.0,165.0,24.0,1.0
638819,0.12673099999999998,-1.189116,0.167712,-0.099064,-0.533616,0.341302,0.0,20.0,52.0,165.0,24.0,1.0
638820,0.153245,-1.209908,0.20683,0.008846,-0.461996,0.285497,0.0,20.0,52.0,165.0,24.0,1.0
638821,0.201119,-1.233959,0.253321,-0.050076,-0.380923,0.237299,0.0,20.0,52.0,165.0,24.0,1.0
638822,0.258818,-1.254764,0.301135,-0.130415,-0.34194,0.166676,0.0,20.0,52.0,165.0,24.0,1.0
638823,0.31808200000000003,-1.269709,0.341652,-0.171647,-0.303937,0.045908,0.0,20.0,52.0,165.0,24.0,1.0
638824,0.376526,-1.277209,0.371416,-0.146135,-0.240415,-0.050507,0.0,20.0,52.0,165.0,24.0,1.0
638825,0.433938,-1.282061,0.397494,-0.14873499999999998,-0.204607,-0.073647,0.0,20.0,52.0,165.0,24.0,1.0
638826,0.492473,-1.290261,0.434273,-0.066599,-0.246842,-0.041825,0.0,20.0,52.0,165.0,24.0,1.0
638827,0.546666,-1.297509,0.4809310000000001,-0.034447000000000005,-0.244581,-0.15573900000000002,0.0,20.0,52.0,165.0,24.0,1.0
638828,0.59178,-1.304816,0.530233,0.054565,-0.090003,-0.419002,0.0,20.0,52.0,165.0,24.0,1.0
638829,0.61811,-1.309873,0.569756,-0.242198,0.262241,-0.557517,0.0,20.0,52.0,165.0,24.0,1.0
638830,0.587023,-1.300677,0.547558,-0.311795,0.222647,-0.507239,0.0,20.0,52.0,165.0,24.0,1.0
638831,0.513093,-1.28904,0.490348,-0.495349,-0.438352,-0.156805,0.0,20.0,52.0,165.0,24.0,1.0
638832,0.425899,-1.278096,0.436204,-0.36084,-0.426462,-0.14166800000000002,0.0,20.0,52.0,165.0,24.0,1.0
638833,0.314068,-1.271652,0.367695,-0.320409,0.028069,-0.165983,0.0,20.0,52.0,165.0,24.0,1.0
638834,0.090752,-1.261319,0.21209,0.334414,0.441336,1.1826290000000002,0.0,20.0,52.0,165.0,24.0,1.0
638835,-0.004241,-1.248184,0.125644,0.8463149999999999,0.20906,0.985366,0.0,20.0,52.0,165.0,24.0,1.0
638836,0.134778,-1.249895,0.189329,0.978416,0.109505,0.31413800000000003,0.0,20.0,52.0,165.0,24.0,1.0
638837,0.217804,-1.249112,0.271554,1.582532,2.9090990000000003,0.576965,0.0,20.0,52.0,165.0,24.0,1.0
638838,0.199342,-1.242155,0.294105,0.192237,0.004919,1.09669,0.0,20.0,52.0,165.0,24.0,1.0
638839,0.242572,-1.263457,0.327031,-0.056932,-0.202821,0.475098,0.0,20.0,52.0,165.0,24.0,1.0
638840,0.295427,-1.288577,0.366371,0.464638,0.46084,0.429008,0.0,20.0,52.0,165.0,24.0,1.0
638841,0.430271,-1.294259,0.464262,0.425062,0.444701,0.460821,0.0,20.0,52.0,165.0,24.0,1.0
638842,0.632169,-1.29945,0.581887,0.265994,0.317519,0.411623,0.0,20.0,52.0,165.0,24.0,1.0
638843,0.850657,-1.314694,0.739406,-0.112723,-0.162178,0.104011,0.0,20.0,52.0,165.0,24.0,1.0
638844,1.055836,-1.332078,0.938844,0.003744,-0.362328,-0.26421500000000003,0.0,20.0,52.0,165.0,24.0,1.0
638845,1.180252,-1.335178,1.1039370000000002,0.063358,-0.373035,-0.370793,0.0,20.0,52.0,165.0,24.0,1.0
638846,1.245379,-1.330477,1.227649,0.072577,-0.4593140000000001,-0.409249,0.0,20.0,52.0,165.0,24.0,1.0
638847,1.354818,-1.329173,1.366752,-0.026441000000000003,-0.38425,-0.4362140000000001,0.0,20.0,52.0,165.0,24.0,1.0
638848,1.468534,-1.325783,1.482121,0.019949,-0.223888,-0.364675,0.0,20.0,52.0,165.0,24.0,1.0
638849,1.543307,-1.321251,1.555868,0.017417,-0.171158,-0.216494,0.0,20.0,52.0,165.0,24.0,1.0
638850,1.591696,-1.319698,1.601151,-0.042949,-0.069638,-0.234654,0.0,20.0,52.0,165.0,24.0,1.0
638851,1.628095,-1.3232469999999998,1.63554,0.010155,0.0547,-0.221474,0.0,20.0,52.0,165.0,24.0,1.0
638852,1.650841,-1.3326639999999998,1.659082,0.19836,0.044775,-0.155472,0.0,20.0,52.0,165.0,24.0,1.0
638853,1.653329,-1.346115,1.65711,0.168579,0.096622,-0.291971,0.0,20.0,52.0,165.0,24.0,1.0
638854,1.591755,-1.364131,1.594699,0.200771,0.149072,-0.20271,0.0,20.0,52.0,165.0,24.0,1.0
638855,1.438924,-1.3761290000000002,1.460261,0.141469,0.342557,0.005291,0.0,20.0,52.0,165.0,24.0,1.0
638856,1.3175,-1.378873,1.357085,-0.177788,0.221104,-0.314143,0.0,20.0,52.0,165.0,24.0,1.0
638857,1.239853,-1.381576,1.297576,-0.195091,0.0135,-0.303925,0.0,20.0,52.0,165.0,24.0,1.0
638858,1.148185,-1.390185,1.218986,-0.089816,-0.100265,-0.387746,0.0,20.0,52.0,165.0,24.0,1.0
638859,0.904463,-1.393853,1.007012,0.181168,0.14007999999999998,-0.245691,0.0,20.0,52.0,165.0,24.0,1.0
638860,0.541246,-1.374696,0.682585,0.46803,0.322267,-0.07034,0.0,20.0,52.0,165.0,24.0,1.0
638861,0.245047,-1.326997,0.407976,0.7052970000000001,0.499787,0.010243,0.0,20.0,52.0,165.0,24.0,1.0
638862,0.075067,-1.270507,0.26876500000000003,0.88454,0.29430700000000004,0.313583,0.0,20.0,52.0,165.0,24.0,1.0
638863,-0.024165,-1.220896,0.234488,0.859769,0.116638,0.253171,0.0,20.0,52.0,165.0,24.0,1.0
638864,-0.06689500000000001,-1.180822,0.261238,0.5469569999999999,-0.003914,0.308811,0.0,20.0,52.0,165.0,24.0,1.0
638865,-0.071701,-1.1606459999999998,0.318809,0.14695899999999998,0.01548,0.228297,0.0,20.0,52.0,165.0,24.0,1.0
638866,-0.070752,-1.1491790000000002,0.38537,0.122374,0.042741,0.197619,0.0,20.0,52.0,165.0,24.0,1.0
638867,-0.084799,-1.138287,0.451822,0.06539199999999999,-0.013843,0.192219,0.0,20.0,52.0,165.0,24.0,1.0
638868,-0.104267,-1.125383,0.518232,0.102182,-0.015531,0.258792,0.0,20.0,52.0,165.0,24.0,1.0
638869,-0.123443,-1.112544,0.5824010000000001,0.176128,-0.026344,0.314116,0.0,20.0,52.0,165.0,24.0,1.0
638870,-0.137761,-1.10514,0.645311,0.299269,-0.021441,0.361284,0.0,20.0,52.0,165.0,24.0,1.0
638871,-0.146117,-1.108741,0.706671,0.178095,-0.033108,0.271461,0.0,20.0,52.0,165.0,24.0,1.0
638872,-0.143118,-1.118965,0.771729,0.110674,-0.051962,0.220138,0.0,20.0,52.0,165.0,24.0,1.0
638873,-0.128207,-1.130869,0.842865,0.012122,0.096087,0.159279,0.0,20.0,52.0,165.0,24.0,1.0
638874,-0.101998,-1.140196,0.921355,0.086995,-0.174508,0.17561500000000002,0.0,20.0,52.0,165.0,24.0,1.0
638875,-0.07472000000000001,-1.148856,0.996165,0.086479,-0.194752,0.158899,0.0,20.0,52.0,165.0,24.0,1.0
638876,-0.050388,-1.162815,1.061382,0.003488,-0.111588,0.133595,0.0,20.0,52.0,165.0,24.0,1.0
638877,-0.023664,-1.180986,1.124523,-0.000759,-0.118005,0.124129,0.0,20.0,52.0,165.0,24.0,1.0
638878,0.003968,-1.20312,1.187002,0.0008320000000000001,-0.127288,0.095504,0.0,20.0,52.0,165.0,24.0,1.0
638879,0.035613,-1.22738,1.250849,-0.018214,-0.039434,-0.089956,0.0,20.0,52.0,165.0,24.0,1.0
638880,0.07303899999999999,-1.250105,1.319333,-0.06188200000000001,-0.002271,-0.175238,0.0,20.0,52.0,165.0,24.0,1.0
638881,0.108149,-1.269658,1.387057,-0.106706,0.089861,-0.276565,0.0,20.0,52.0,165.0,24.0,1.0
638882,0.118745,-1.281398,1.430434,0.019127,0.153446,-0.591969,0.0,20.0,52.0,165.0,24.0,1.0
638883,0.092272,-1.278844,1.438991,0.07345700000000001,0.138324,-0.685859,0.0,20.0,52.0,165.0,24.0,1.0
638884,0.04571,-1.259975,1.433084,0.132846,-0.044185,-0.367984,0.0,20.0,52.0,165.0,24.0,1.0
638885,0.002718,-1.241653,1.440352,0.180747,-0.259064,-0.06262999999999999,0.0,20.0,52.0,165.0,24.0,1.0
638886,-0.028172000000000006,-1.238136,1.473056,0.199369,-0.310549,-0.104552,0.0,20.0,52.0,165.0,24.0,1.0
638887,-0.02714,-1.240689,1.531517,0.132194,-0.105401,-0.122901,0.0,20.0,52.0,165.0,24.0,1.0
638888,0.015717,-1.244035,1.612637,-0.0007570000000000001,0.236949,-0.121472,0.0,20.0,52.0,165.0,24.0,1.0
638889,0.050324,-1.247611,1.681654,0.04387,1.181792,-0.111993,0.0,20.0,52.0,165.0,24.0,1.0
638890,0.013935,-1.240036,1.691173,0.303596,1.541005,0.234387,0.0,20.0,52.0,165.0,24.0,1.0
638891,-0.036931,-1.2315459999999998,1.671589,0.05754400000000001,-0.7437090000000001,0.756324,0.0,20.0,52.0,165.0,24.0,1.0
638892,-0.06145700000000001,-1.247592,1.651841,0.307516,-0.498348,0.615975,0.0,20.0,52.0,165.0,24.0,1.0
638893,-0.028718,-1.281868,1.652783,0.697237,0.344826,0.003483,0.0,20.0,52.0,165.0,24.0,1.0
638894,0.040995,-1.318625,1.71639,1.138319,0.680141,0.27181700000000003,0.0,20.0,52.0,165.0,24.0,1.0
638895,0.135399,-1.339256,1.825191,0.35522600000000004,0.035154000000000005,0.272721,0.0,20.0,52.0,165.0,24.0,1.0
638896,0.288297,-1.359528,1.96597,-0.28025700000000003,-0.06625199999999999,0.007909000000000001,0.0,20.0,52.0,165.0,24.0,1.0
638897,0.466528,-1.38837,2.12322,-0.25926,-0.103524,-0.262007,0.0,20.0,52.0,165.0,24.0,1.0
638898,0.642127,-1.405512,2.288739,0.185646,-0.081098,-0.038004,0.0,20.0,52.0,165.0,24.0,1.0
638899,0.812913,-1.405178,2.431937,0.405952,-0.158756,0.042286,0.0,20.0,52.0,165.0,24.0,1.0
638900,0.978567,-1.401518,2.569991,0.228381,-0.183308,0.051605,0.0,20.0,52.0,165.0,24.0,1.0
638901,1.144825,-1.397644,2.721646,0.024596,-0.088166,-0.107366,0.0,20.0,52.0,165.0,24.0,1.0
638902,1.302353,-1.393728,2.8807970000000003,0.036053,-0.07111100000000001,-0.132825,0.0,20.0,52.0,165.0,24.0,1.0
638903,1.4262,-1.389324,3.013821,0.065106,-0.090177,-0.109299,0.0,20.0,52.0,165.0,24.0,1.0
638904,1.517759,-1.384242,3.11289,0.10083,-0.065916,-0.109432,0.0,20.0,52.0,165.0,24.0,1.0
638905,1.586623,-1.378853,-3.096222,0.106057,-0.027549,-0.103055,0.0,20.0,52.0,165.0,24.0,1.0
638906,1.640059,-1.373611,-3.036066,0.138623,-0.018006,-0.149802,0.0,20.0,52.0,165.0,24.0,1.0
638907,1.67864,-1.367616,-2.983951,0.182033,-0.117339,-0.115923,0.0,20.0,52.0,165.0,24.0,1.0
638908,1.713802,-1.360819,-2.931211,0.184697,-0.080666,-0.11982,0.0,20.0,52.0,165.0,24.0,1.0
638909,1.753489,-1.354553,-2.8742520000000003,0.17202,0.019124,-0.169957,0.0,20.0,52.0,165.0,24.0,1.0
638910,1.79794,-1.348083,-2.812989,0.107581,0.056192,-0.280218,0.0,20.0,52.0,165.0,24.0,1.0
638911,1.843315,-1.339117,-2.74805,0.061087,0.08905,-0.480892,0.0,20.0,52.0,165.0,24.0,1.0
638912,1.87245,-1.332235,-2.696689,0.059915,0.10962,-0.420799,0.0,20.0,52.0,165.0,24.0,1.0
638913,1.850965,-1.330368,-2.692751,0.001128,0.090944,0.050192,0.0,20.0,52.0,165.0,24.0,1.0
638914,1.7779029999999998,-1.334619,-2.731612,-0.038697,0.088979,0.038866000000000005,0.0,20.0,52.0,165.0,24.0,1.0
638915,1.708952,-1.342986,-2.7793810000000003,-0.002167,0.179111,0.056685,0.0,20.0,52.0,165.0,24.0,1.0
638916,1.6371440000000002,-1.356073,-2.839259,0.098673,0.260895,-0.144755,0.0,20.0,52.0,165.0,24.0,1.0
638917,1.531362,-1.373434,-2.938793,0.046459,0.242603,-0.26912600000000003,0.0,20.0,52.0,165.0,24.0,1.0
638918,1.284961,-1.394934,3.120669,-0.017569,0.184446,-0.008618,0.0,20.0,52.0,165.0,24.0,1.0
638919,0.911836,-1.4044219999999998,2.776252,0.112154,0.279738,0.1089,0.0,20.0,52.0,165.0,24.0,1.0
638920,0.5673560000000001,-1.387142,2.457078,0.4543970000000001,0.329424,0.138708,0.0,20.0,52.0,165.0,24.0,1.0
638921,0.373123,-1.355873,2.301541,0.7634529999999999,0.198346,0.271921,0.0,20.0,52.0,165.0,24.0,1.0
638922,0.282687,-1.321586,2.258881,0.507946,0.188348,0.249812,0.0,20.0,52.0,165.0,24.0,1.0
638923,0.245577,-1.296306,2.2760290000000003,0.358164,0.122443,0.290721,0.0,20.0,52.0,165.0,24.0,1.0
638924,0.187603,-1.279579,2.282861,0.198164,-0.02331,0.062458000000000014,0.0,20.0,52.0,165.0,24.0,1.0
638925,0.08815,-1.266149,2.25219,-0.0017170000000000002,-0.098576,0.135902,0.0,20.0,52.0,165.0,24.0,1.0
638926,-0.005044,-1.2487700000000002,2.224087,-0.02944,-0.143787,0.148104,0.0,20.0,52.0,165.0,24.0,1.0
638927,-0.063563,-1.226498,2.225105,0.091935,-0.208082,0.185534,0.0,20.0,52.0,165.0,24.0,1.0
638928,-0.09669,-1.208413,2.24371,0.112515,-0.285198,0.242957,0.0,20.0,52.0,165.0,24.0,1.0
638929,-0.110031,-1.1990299999999998,2.272399,0.082689,-0.282105,0.265014,0.0,20.0,52.0,165.0,24.0,1.0
638930,-0.112358,-1.1976,2.306353,-0.002824,-0.272445,0.231011,0.0,20.0,52.0,165.0,24.0,1.0
638931,-0.098311,-1.201039,2.345464,-0.100242,-0.242687,0.196866,0.0,20.0,52.0,165.0,24.0,1.0
638932,-0.057574,-1.206774,2.396412,-0.100684,-0.287591,0.096842,0.0,20.0,52.0,165.0,24.0,1.0
638933,-0.000575,-1.2162309999999998,2.455697,-0.057997,-0.329887,0.038286,0.0,20.0,52.0,165.0,24.0,1.0
638934,0.070809,-1.230577,2.524212,-0.026934,-0.302713,-0.005581,0.0,20.0,52.0,165.0,24.0,1.0
638935,0.151197,-1.251448,2.6016630000000003,-0.009764,-0.361595,0.126436,0.0,20.0,52.0,165.0,24.0,1.0
638936,0.238548,-1.277426,2.68143,0.018847,-0.342575,0.142179,0.0,20.0,52.0,165.0,24.0,1.0
638937,0.321019,-1.300194,2.747729,-0.043232,-0.277575,-0.020426,0.0,20.0,52.0,165.0,24.0,1.0
638938,0.380126,-1.315257,2.787919,-0.09332,-0.135908,-0.131049,0.0,20.0,52.0,165.0,24.0,1.0
638939,0.418893,-1.321802,2.808138,-0.045737,-0.383849,-0.118281,0.0,20.0,52.0,165.0,24.0,1.0
638940,0.46057,-1.325267,2.838252,-0.00402,-0.462074,-0.128349,0.0,20.0,52.0,165.0,24.0,1.0
638941,0.4925810000000001,-1.326608,2.870392,0.069242,-0.443463,-0.14520999999999998,0.0,20.0,52.0,165.0,24.0,1.0
638942,0.534983,-1.324335,2.918607,0.2269,-0.109186,-0.150059,0.0,20.0,52.0,165.0,24.0,1.0
638943,0.601769,-1.3203049999999998,2.981456,0.032326,0.06841,-0.161024,0.0,20.0,52.0,165.0,24.0,1.0
638944,0.678199,-1.314282,3.050086,-0.107906,0.061666,-0.150705,0.0,20.0,52.0,165.0,24.0,1.0
638945,0.735293,-1.307785,3.107377,-0.214654,0.214457,-0.01031,0.0,20.0,52.0,165.0,24.0,1.0
638946,0.759684,-1.301764,3.139241,-0.225883,0.4783689999999999,-0.05939,0.0,20.0,52.0,165.0,24.0,1.0
638947,0.742414,-1.301227,3.137184,-0.061074,0.365628,0.230409,0.0,20.0,52.0,165.0,24.0,1.0
638948,0.710162,-1.299868,3.117094,0.49532,0.181222,0.345656,0.0,20.0,52.0,165.0,24.0,1.0
638949,0.730822,-1.299815,3.117904,0.418667,0.081841,-0.11313800000000003,0.0,20.0,52.0,165.0,24.0,1.0
638950,0.78204,-1.295275,-3.1288240000000003,0.32650100000000004,0.134076,-0.00511,0.0,20.0,52.0,165.0,24.0,1.0
638951,0.836802,-1.280263,-3.068944,0.406656,0.61892,0.177373,0.0,20.0,52.0,165.0,24.0,1.0
638952,0.954493,-1.275959,-2.955047,0.322864,0.805632,-0.16237200000000002,0.0,20.0,52.0,165.0,24.0,1.0
638953,1.028881,-1.275048,-2.873216,0.145176,0.522877,-0.365632,0.0,20.0,52.0,165.0,24.0,1.0
638954,1.072496,-1.270846,-2.82009,0.012788,-0.044936,-0.083649,0.0,20.0,52.0,165.0,24.0,1.0
638955,1.122627,-1.2680559999999998,-2.779906,0.102347,-0.231104,0.273937,0.0,20.0,52.0,165.0,24.0,1.0
638956,1.192337,-1.266018,-2.7155,0.146867,-0.228404,0.169293,0.0,20.0,52.0,165.0,24.0,1.0
638957,1.272144,-1.261955,-2.62594,0.195837,-0.060855999999999986,-0.063742,0.0,20.0,52.0,165.0,24.0,1.0
638958,1.327867,-1.2575379999999998,-2.54604,-0.118728,-0.242411,-0.189002,0.0,20.0,52.0,165.0,24.0,1.0
638959,1.369577,-1.253275,-2.48336,-0.215173,-0.297852,-0.282179,0.0,20.0,52.0,165.0,24.0,1.0
638960,1.376165,-1.252822,-2.464707,-0.386349,-0.385372,-0.211786,0.0,20.0,52.0,165.0,24.0,1.0
638961,1.338666,-1.258289,-2.494476,-0.362024,-0.36601,-0.093035,0.0,20.0,52.0,165.0,24.0,1.0
638962,1.274316,-1.269636,-2.550847,-0.319885,-0.37168,-0.163484,0.0,20.0,52.0,165.0,24.0,1.0
638963,1.182323,-1.284139,-2.634178,-0.20718000000000006,-0.457043,-0.279067,0.0,20.0,52.0,165.0,24.0,1.0
638964,1.067135,-1.295164,-2.745132,0.260048,-0.455173,0.0023710000000000003,0.0,20.0,52.0,165.0,24.0,1.0
638965,0.974062,-1.300894,-2.846819,0.190342,-0.356741,0.124108,0.0,20.0,52.0,165.0,24.0,1.0
638966,0.93921,-1.306977,-2.891791,-0.085503,-0.142311,-0.13683900000000002,0.0,20.0,52.0,165.0,24.0,1.0
638967,0.906488,-1.31334,-2.914491,0.002094,-0.149368,-0.204948,0.0,20.0,52.0,165.0,24.0,1.0
638968,0.844618,-1.316655,-2.963782,0.150491,-0.12561,-0.116753,0.0,20.0,52.0,165.0,24.0,1.0
638969,0.753108,-1.317469,-3.050045,0.159822,0.62768,-0.341068,0.0,20.0,52.0,165.0,24.0,1.0
638970,0.59038,-1.303031,3.092284,0.152124,0.5192479999999999,-0.138797,0.0,20.0,52.0,165.0,24.0,1.0
638971,0.412994,-1.272459,2.932986,-0.070491,0.651687,0.110491,0.0,20.0,52.0,165.0,24.0,1.0
638972,0.24553000000000005,-1.23316,2.78594,0.279227,1.141115,-0.134614,0.0,20.0,52.0,165.0,24.0,1.0
638973,0.104835,-1.189303,2.684998,0.24803000000000006,0.748312,-0.099892,0.0,20.0,52.0,165.0,24.0,1.0
638974,0.003363,-1.14768,2.628687,0.075874,0.449209,-0.12948099999999998,0.0,20.0,52.0,165.0,24.0,1.0
638975,-0.053048000000000005,-1.11902,2.5981400000000003,0.289123,0.403961,-0.05239,0.0,20.0,52.0,165.0,24.0,1.0
638976,-0.070837,-1.106362,2.597085,0.091364,0.381743,-0.089503,0.0,20.0,52.0,165.0,24.0,1.0
638977,-0.07903400000000001,-1.102208,2.605493,-0.1796,0.250295,0.027461000000000003,0.0,20.0,52.0,165.0,24.0,1.0
638978,-0.087077,-1.101223,2.615279,0.087082,0.000161,0.159032,0.0,20.0,52.0,165.0,24.0,1.0
638979,-0.09035,-1.10514,2.636453,0.232727,-0.27052600000000004,0.331718,0.0,20.0,52.0,165.0,24.0,1.0
638980,-0.089253,-1.114642,2.66535,0.104051,-0.382037,0.467359,0.0,20.0,52.0,165.0,24.0,1.0
638981,-0.085917,-1.131358,2.692176,-0.092629,-0.406502,0.495397,0.0,20.0,52.0,165.0,24.0,1.0
638982,-0.074624,-1.151337,2.71837,-0.187121,-0.37298,0.412696,0.0,20.0,52.0,165.0,24.0,1.0
638983,-0.054268,-1.172159,2.746178,-0.163776,-0.364645,0.225498,0.0,20.0,52.0,165.0,24.0,1.0
638984,-0.005304,-1.199376,2.786063,-0.122053,-0.261464,0.058367,0.0,20.0,52.0,165.0,24.0,1.0
638985,0.070962,-1.227276,2.835704,-0.168578,-0.32959,-0.064239,0.0,20.0,52.0,165.0,24.0,1.0
638986,0.167994,-1.247532,2.893296,-0.124996,-0.267585,-0.13552899999999998,0.0,20.0,52.0,165.0,24.0,1.0
638987,0.27179000000000003,-1.2613370000000002,2.950335,-0.074961,-0.260207,0.029732,0.0,20.0,52.0,165.0,24.0,1.0
638988,0.37153,-1.276957,3.005427,-0.07094400000000001,-0.266099,0.151865,0.0,20.0,52.0,165.0,24.0,1.0
638989,0.471604,-1.295816,3.064975,-0.06856799999999999,-0.231245,0.035855,0.0,20.0,52.0,165.0,24.0,1.0
638990,0.582464,-1.316325,-3.1373740000000003,-0.053878,-0.118691,-0.234091,0.0,20.0,52.0,165.0,24.0,1.0
638991,0.70276,-1.331788,-3.037946,-0.163578,-0.116166,-0.40875,0.0,20.0,52.0,165.0,24.0,1.0
638992,0.782466,-1.336978,-2.976608,-0.205989,-0.183803,-0.331396,0.0,20.0,52.0,165.0,24.0,1.0
638993,0.807362,-1.332377,-2.969514,-0.17190899999999998,-0.225771,-0.118262,0.0,20.0,52.0,165.0,24.0,1.0
638994,0.807527,-1.326165,-2.984061,-0.089031,-0.065167,0.023622,0.0,20.0,52.0,165.0,24.0,1.0
638995,0.804806,-1.321979,-2.998028,-0.098184,0.293842,-0.051411,0.0,20.0,52.0,165.0,24.0,1.0
638996,0.781461,-1.320663,-3.02721,0.080335,0.695168,-0.19645,0.0,20.0,52.0,165.0,24.0,1.0
638997,0.712672,-1.315967,-3.091334,0.520437,0.431692,0.265855,0.0,20.0,52.0,165.0,24.0,1.0
638998,0.66996,-1.306548,3.135124,0.445805,-0.122012,0.335535,0.0,20.0,52.0,165.0,24.0,1.0
638999,0.6712640000000001,-1.293996,3.106087,0.093059,-0.077306,-0.074913,0.0,20.0,52.0,165.0,24.0,1.0
639000,0.6974229999999999,-1.281927,3.1187970000000003,0.563841,0.743674,0.163233,0.0,20.0,52.0,165.0,24.0,1.0
639001,0.810526,-1.278957,-3.07954,0.568657,0.646883,0.279519,0.0,20.0,52.0,165.0,24.0,1.0
639002,0.950362,-1.282858,-2.955058,0.27709,0.424073,0.05696100000000001,0.0,20.0,52.0,165.0,24.0,1.0
639003,1.105505,-1.289705,-2.797475,0.06922,0.296052,-0.409009,0.0,20.0,52.0,165.0,24.0,1.0
639004,1.214025,-1.292418,-2.684031,-0.058978,0.008728,-0.306076,0.0,20.0,52.0,165.0,24.0,1.0
639005,1.265816,-1.288992,-2.63242,-0.001251,-0.153503,-0.078966,0.0,20.0,52.0,165.0,24.0,1.0
639006,1.326425,-1.282502,-2.584993,0.247581,-0.131261,0.035305,0.0,20.0,52.0,165.0,24.0,1.0
639007,1.406713,-1.275018,-2.521229,0.074186,-0.230425,0.036256,0.0,20.0,52.0,165.0,24.0,1.0
639008,1.490809,-1.264886,-2.443691,-0.201505,-0.27223800000000004,-0.25664000000000003,0.0,20.0,52.0,165.0,24.0,1.0
639009,1.550881,-1.257143,-2.377393,-0.269916,-0.224208,-0.415213,0.0,20.0,52.0,165.0,24.0,1.0
639010,1.55284,-1.257157,-2.350275,-0.31859,-0.285552,-0.381042,0.0,20.0,52.0,165.0,24.0,1.0
639011,1.516795,-1.262991,-2.3571,-0.281821,-0.450834,-0.13204100000000002,0.0,20.0,52.0,165.0,24.0,1.0
639012,1.468071,-1.271558,-2.389702,-0.389613,-0.437678,-0.456132,0.0,20.0,52.0,165.0,24.0,1.0
639013,1.370694,-1.283869,-2.46627,-0.4466100000000001,-0.335278,-0.511121,0.0,20.0,52.0,165.0,24.0,1.0
639014,1.228939,-1.299106,-2.592738,0.088202,-0.234299,-0.193325,0.0,20.0,52.0,165.0,24.0,1.0
639015,1.081158,-1.308547,-2.741328,0.322079,-0.655354,0.161602,0.0,20.0,52.0,165.0,24.0,1.0
639016,0.98337,-1.309776,-2.852506,0.10567,-0.6275649999999999,0.180453,0.0,20.0,52.0,165.0,24.0,1.0
639017,0.92384,-1.315121,-2.909265,-0.268983,-0.190286,-0.208773,0.0,20.0,52.0,165.0,24.0,1.0
639018,0.8386469999999999,-1.322332,-2.971171,0.121662,-0.161155,-0.091723,0.0,20.0,52.0,165.0,24.0,1.0
639019,0.71825,-1.321297,-3.074138,0.15354,-0.06036,-0.066133,0.0,20.0,52.0,165.0,24.0,1.0
639020,0.561474,-1.308974,3.060568,0.07216,0.739952,-0.08028400000000001,0.0,20.0,52.0,165.0,24.0,1.0
639021,0.383248,-1.28074,2.896306,0.14243499999999998,0.8066949999999999,-0.035392,0.0,20.0,52.0,165.0,24.0,1.0
639022,0.235187,-1.246595,2.771488,0.243965,1.005601,-0.077291,0.0,20.0,52.0,165.0,24.0,1.0
639023,0.10165,-1.206238,2.675285,0.311585,1.288146,-0.184703,0.0,20.0,52.0,165.0,24.0,1.0
639024,-0.011988,-1.154628,2.598767,0.123758,0.419965,-0.022007,0.0,20.0,52.0,165.0,24.0,1.0
639025,-0.074148,-1.104839,2.563043,0.041171,-0.060247,-0.08012000000000001,0.0,20.0,52.0,165.0,24.0,1.0
639026,-0.103977,-1.077469,2.558091,0.060792,0.78504,-0.165224,0.0,20.0,52.0,165.0,24.0,1.0
639027,-0.113294,-1.06592,2.560948,-0.301336,0.095118,-0.0403,0.0,20.0,52.0,165.0,24.0,1.0
639028,-0.11098,-1.061029,2.580001,-0.29854200000000003,-0.284845,0.010186,0.0,20.0,52.0,165.0,24.0,1.0
639029,-0.099914,-1.064774,2.604367,0.17085999999999998,-0.350601,0.279959,0.0,20.0,52.0,165.0,24.0,1.0
639030,-0.07487100000000001,-1.079279,2.632407,0.105859,-0.340373,0.389761,0.0,20.0,52.0,165.0,24.0,1.0
639031,-0.033828,-1.102491,2.667787,-0.115533,-0.494248,0.398982,0.0,20.0,52.0,165.0,24.0,1.0
639032,0.019221,-1.130449,2.707985,-0.340239,-0.6605850000000001,0.409775,0.0,20.0,52.0,165.0,24.0,1.0
639033,0.094206,-1.168507,2.7592060000000003,-0.299722,-0.658662,0.459066,0.0,20.0,52.0,165.0,24.0,1.0
639034,0.212417,-1.220604,2.837982,-0.210494,-0.75817,0.411568,0.0,20.0,52.0,165.0,24.0,1.0
639035,0.407398,-1.274929,2.976966,0.072242,-0.521125,0.098984,0.0,20.0,52.0,165.0,24.0,1.0
639036,0.665992,-1.317865,-3.1068740000000004,0.127345,-0.06529,-0.080371,0.0,20.0,52.0,165.0,24.0,1.0
639037,0.8940239999999999,-1.340036,-2.9287650000000003,-0.070784,-0.036328,-0.251006,0.0,20.0,52.0,165.0,24.0,1.0
639038,0.993108,-1.34771,-2.847716,-0.362571,-0.300445,-0.33115300000000003,0.0,20.0,52.0,165.0,24.0,1.0
639039,0.979913,-1.345223,-2.845265,-0.180235,-0.199352,-0.231969,0.0,20.0,52.0,165.0,24.0,1.0
639040,0.919728,-1.336853,-2.885236,-0.157619,-0.12991,-0.18079,0.0,20.0,52.0,165.0,24.0,1.0
639041,0.853513,-1.328917,-2.944148,-0.069674,0.723813,-0.30109600000000003,0.0,20.0,52.0,165.0,24.0,1.0
639042,0.692832,-1.318878,-3.070681,0.322209,0.797067,0.867216,0.0,20.0,52.0,165.0,24.0,1.0
639043,0.5876,-1.302224,3.109674,0.48078,0.0586,0.715592,0.0,20.0,52.0,165.0,24.0,1.0
639044,0.592869,-1.286047,3.07189,0.647528,-0.247086,-0.588013,0.0,20.0,52.0,165.0,24.0,1.0
639045,0.571887,-1.26459,3.040922,0.4668850000000001,0.767738,0.434184,0.0,20.0,52.0,165.0,24.0,1.0
639046,0.688358,-1.263789,3.109244,0.348559,0.885503,0.167669,0.0,20.0,52.0,165.0,24.0,1.0
639047,0.8707530000000001,-1.277702,-3.021449,0.158844,1.109967,0.047522,0.0,20.0,52.0,165.0,24.0,1.0
639048,0.977915,-1.289722,-2.895953,-0.022367,0.069012,-0.538796,0.0,20.0,52.0,165.0,24.0,1.0
639049,0.964784,-1.292885,-2.845759,-0.218283,-0.477256,-0.013808,0.0,20.0,52.0,165.0,24.0,1.0
639050,1.04294,-1.295008,-2.780015,0.073377,-0.7042149999999999,-0.332937,0.0,20.0,52.0,165.0,24.0,1.0
639051,1.162969,-1.294965,-2.688905,0.366122,-0.115641,0.238361,0.0,20.0,52.0,165.0,24.0,1.0
639052,1.2715,-1.288952,-2.60062,0.17643599999999998,-0.211704,0.228465,0.0,20.0,52.0,165.0,24.0,1.0
639053,1.403899,-1.279065,-2.467606,-0.2637,-0.405364,-0.197832,0.0,20.0,52.0,165.0,24.0,1.0
639054,1.497396,-1.271598,-2.35629,-0.3618,-0.32300500000000004,-0.540292,0.0,20.0,52.0,165.0,24.0,1.0
639055,1.499744,-1.27362,-2.3298520000000003,-0.7068909999999999,-0.211218,-0.489346,0.0,20.0,52.0,165.0,24.0,1.0
639056,1.422987,-1.286042,-2.393133,-0.456019,-0.372756,-0.158615,0.0,20.0,52.0,165.0,24.0,1.0
639057,1.313566,-1.302408,-2.494879,-0.050015,-0.445309,-0.228659,0.0,20.0,52.0,165.0,24.0,1.0
639058,1.192041,-1.315707,-2.609603,0.199911,-0.5196729999999999,-0.149095,0.0,20.0,52.0,165.0,24.0,1.0
639059,1.070289,-1.323504,-2.730196,0.094145,-0.474507,0.15988,0.0,20.0,52.0,165.0,24.0,1.0
639060,0.979418,-1.330755,-2.834293,0.119099,-0.399719,-0.054412,0.0,20.0,52.0,165.0,24.0,1.0
639061,0.908139,-1.334825,-2.884399,0.349502,-0.265668,0.090631,0.0,20.0,52.0,165.0,24.0,1.0
639062,0.844366,-1.334071,-2.923048,0.070514,0.018627,-0.155884,0.0,20.0,52.0,165.0,24.0,1.0
639063,0.7569100000000001,-1.329414,-2.990419,-0.193741,0.150909,-0.145432,0.0,20.0,52.0,165.0,24.0,1.0
639064,0.594188,-1.319089,-3.1246810000000003,-0.131876,0.265734,-0.078415,0.0,20.0,52.0,165.0,24.0,1.0
639065,0.394398,-1.29351,2.98668,-0.101271,0.71697,-0.036509,0.0,20.0,52.0,165.0,24.0,1.0
639066,0.201962,-1.255045,2.824643,0.33986,0.920942,-0.099306,0.0,20.0,52.0,165.0,24.0,1.0
639067,0.05194,-1.2137440000000002,2.714979,0.4990060000000001,1.124058,-0.088276,0.0,20.0,52.0,165.0,24.0,1.0
639068,-0.053156,-1.176118,2.659912,0.400281,0.840109,-0.032719,0.0,20.0,52.0,165.0,24.0,1.0
639069,-0.122774,-1.138626,2.624386,0.008522,0.419791,0.032253,0.0,20.0,52.0,165.0,24.0,1.0
639070,-0.137925,-1.107434,2.614142,-0.227658,0.432761,0.008025,0.0,20.0,52.0,165.0,24.0,1.0
639071,-0.13818699999999998,-1.080067,2.609369,-0.174099,-0.036149,-0.17691099999999998,0.0,20.0,52.0,165.0,24.0,1.0
639072,-0.139896,-1.062778,2.61255,0.222538,-0.220298,0.021342,0.0,20.0,52.0,165.0,24.0,1.0
639073,-0.13053900000000002,-1.06204,2.632979,0.294238,-0.206557,0.167523,0.0,20.0,52.0,165.0,24.0,1.0
639074,-0.111033,-1.076443,2.667933,-0.006251,-0.401073,0.440097,0.0,20.0,52.0,165.0,24.0,1.0
639075,-0.098331,-1.0956,2.695442,-0.330025,-0.687589,0.464263,0.0,20.0,52.0,165.0,24.0,1.0
639076,-0.06493600000000001,-1.11987,2.724414,-0.32021700000000003,-0.6306350000000001,0.362083,0.0,20.0,52.0,165.0,24.0,1.0
639077,-0.007959,-1.155909,2.764246,-0.138104,-0.585587,0.296293,0.0,20.0,52.0,165.0,24.0,1.0
639078,0.07658200000000001,-1.201532,2.824444,0.091528,-0.615744,0.209845,0.0,20.0,52.0,165.0,24.0,1.0
639079,0.198907,-1.241898,2.908134,0.092521,-0.492251,0.087257,0.0,20.0,52.0,165.0,24.0,1.0
639080,0.353142,-1.272025,3.009738,-0.058242,-0.214702,-0.0039310000000000005,0.0,20.0,52.0,165.0,24.0,1.0
639081,0.5257970000000001,-1.299909,3.123648,-0.128962,0.03053,-0.13613699999999998,0.0,20.0,52.0,165.0,24.0,1.0
639082,0.710159,-1.321282,-3.024466,-0.109164,0.004966,-0.21983000000000005,0.0,20.0,52.0,165.0,24.0,1.0
639083,0.8341299999999999,-1.328296,-2.920561,-0.15091,-0.205222,-0.208998,0.0,20.0,52.0,165.0,24.0,1.0
639084,0.857088,-1.323502,-2.895411,-0.271257,-0.153813,-0.2597,0.0,20.0,52.0,165.0,24.0,1.0
639085,0.827716,-1.31615,-2.916777,-0.16833800000000002,0.08795700000000001,-0.19399,0.0,20.0,52.0,165.0,24.0,1.0
639086,0.7717930000000001,-1.31202,-2.966029,0.142827,0.613603,0.202611,0.0,20.0,52.0,165.0,24.0,1.0
639087,0.7424390000000001,-1.312653,-3.00515,0.618136,0.738838,0.089292,0.0,20.0,52.0,165.0,24.0,1.0
639088,0.7703479999999999,-1.316865,-2.99902,0.613795,0.108789,-0.159245,0.0,20.0,52.0,165.0,24.0,1.0
639089,0.76478,-1.3016450000000002,-2.991772,0.54505,-0.219292,0.159357,0.0,20.0,52.0,165.0,24.0,1.0
639090,0.86261,-1.291116,-2.899531,0.494271,1.011619,0.008593,0.0,20.0,52.0,165.0,24.0,1.0
639091,1.038162,-1.289427,-2.7331950000000003,0.5513020000000001,1.793856,-0.18694,0.0,20.0,52.0,165.0,24.0,1.0
639092,1.149184,-1.2910629999999998,-2.608918,-0.263809,-0.010903,-0.217972,0.0,20.0,52.0,165.0,24.0,1.0
639093,1.1811969999999998,-1.292604,-2.540534,-0.719585,-0.713888,0.050215,0.0,20.0,52.0,165.0,24.0,1.0
639094,1.2191809999999998,-1.295975,-2.513672,-0.545542,-0.809184,-0.433341,0.0,20.0,52.0,165.0,24.0,1.0
639095,1.289241,-1.293835,-2.481649,0.514893,0.012734,-0.05517,0.0,20.0,52.0,165.0,24.0,1.0
639096,1.383329,-1.294935,-2.429792,0.39889,-0.255831,0.476156,0.0,20.0,52.0,165.0,24.0,1.0
639097,1.522228,-1.284689,-2.308738,0.205789,-0.2825,0.25571900000000003,0.0,20.0,52.0,165.0,24.0,1.0
639098,1.623329,-1.26904,-2.183455,-0.404724,-0.106916,-0.664285,0.0,20.0,52.0,165.0,24.0,1.0
639099,1.626089,-1.262414,-2.12348,-0.479153,-0.116247,-0.236071,0.0,20.0,52.0,165.0,24.0,1.0
639100,1.635822,-1.266246,-2.095631,-0.289295,-0.06778200000000001,-0.060483,0.0,20.0,52.0,165.0,24.0,1.0
639101,1.648257,-1.275007,-2.080543,-0.106383,-0.01277,-0.330095,0.0,20.0,52.0,165.0,24.0,1.0
639102,1.63077,-1.282277,-2.077464,-0.190971,0.007703,-0.699441,0.0,20.0,52.0,165.0,24.0,1.0
639103,1.546333,-1.293004,-2.134594,-0.260124,-0.190347,-0.498252,0.0,20.0,52.0,165.0,24.0,1.0
639104,1.432239,-1.309794,-2.245784,-0.24454,-0.7296819999999999,0.043494,0.0,20.0,52.0,165.0,24.0,1.0
639105,1.324694,-1.32761,-2.3670880000000003,-0.131272,-0.681971,0.021073,0.0,20.0,52.0,165.0,24.0,1.0
639106,1.211961,-1.342122,-2.489811,0.212562,-0.41249,0.146749,0.0,20.0,52.0,165.0,24.0,1.0
639107,1.132605,-1.351006,-2.568444,0.190045,-0.202735,-0.013312,0.0,20.0,52.0,165.0,24.0,1.0
639108,1.098256,-1.355571,-2.576919,0.061778,-0.107315,-0.231609,0.0,20.0,52.0,165.0,24.0,1.0
639109,1.067421,-1.359579,-2.580341,0.017058,-0.100182,-0.14167000000000002,0.0,20.0,52.0,165.0,24.0,1.0
639110,1.0233450000000002,-1.367852,-2.619598,0.164409,0.662796,-0.124953,0.0,20.0,52.0,165.0,24.0,1.0
639111,0.8544510000000001,-1.364715,-2.776549,-0.016713,0.437282,-0.07344099999999999,0.0,20.0,52.0,165.0,24.0,1.0
639112,0.643587,-1.3460530000000002,-2.967712,-0.17383900000000002,0.397051,-0.017249,0.0,20.0,52.0,165.0,24.0,1.0
639113,0.450498,-1.32417,-3.140447,0.037528,0.992981,-0.079598,0.0,20.0,52.0,165.0,24.0,1.0
639114,0.30286,-1.29391,3.018225,-0.06261699999999999,0.762073,0.23987,0.0,20.0,52.0,165.0,24.0,1.0
639115,0.176122,-1.270152,2.943005,0.128308,0.904931,0.279356,0.0,20.0,52.0,165.0,24.0,1.0
639116,0.051291,-1.252646,2.900833,0.517258,0.9727,-0.17744400000000002,0.0,20.0,52.0,165.0,24.0,1.0
639117,-0.001154,-1.221851,2.87458,-0.01903,0.266016,-0.28659,0.0,20.0,52.0,165.0,24.0,1.0
639118,-0.030938,-1.194126,2.854112,-0.038626,0.014243,0.011952,0.0,20.0,52.0,165.0,24.0,1.0
639119,-0.054322,-1.178899,2.847362,0.21678200000000006,0.134026,0.18068,0.0,20.0,52.0,165.0,24.0,1.0
639120,-0.066361,-1.174014,2.850349,0.057043,-0.061774,0.342252,0.0,20.0,52.0,165.0,24.0,1.0
639121,-0.076275,-1.175062,2.859028,-0.13198800000000002,-0.405227,0.42741,0.0,20.0,52.0,165.0,24.0,1.0
639122,-0.08735599999999999,-1.180949,2.8684540000000003,-0.180818,-0.545878,0.576062,0.0,20.0,52.0,165.0,24.0,1.0
639123,-0.094143,-1.190118,2.878529,-0.150774,-0.6016,0.509522,0.0,20.0,52.0,165.0,24.0,1.0
639124,-0.091774,-1.2039959999999998,2.890364,-0.098421,-0.624077,0.34141900000000003,0.0,20.0,52.0,165.0,24.0,1.0
639125,-0.06615499999999999,-1.2256280000000002,2.907187,-0.067874,-0.5944149999999999,0.197399,0.0,20.0,52.0,165.0,24.0,1.0
639126,-0.014627,-1.253513,2.924779,-0.16802899999999998,-0.487562,0.188291,0.0,20.0,52.0,165.0,24.0,1.0
639127,0.061543,-1.283499,2.950855,-0.153626,-0.450026,0.20585100000000006,0.0,20.0,52.0,165.0,24.0,1.0
639128,0.178958,-1.31201,3.006914,-0.126831,-0.280071,0.020547,0.0,20.0,52.0,165.0,24.0,1.0
639129,0.343879,-1.33856,3.096743,-0.114266,-0.235971,-0.233484,0.0,20.0,52.0,165.0,24.0,1.0
639130,0.535168,-1.359408,-3.071351,-0.08705700000000001,-0.278247,-0.312668,0.0,20.0,52.0,165.0,24.0,1.0
639131,0.704771,-1.372718,-2.956172,0.070963,-0.296364,-0.428299,0.0,20.0,52.0,165.0,24.0,1.0
639132,0.795529,-1.379944,-2.880823,0.036099,-0.076447,-0.384702,0.0,20.0,52.0,165.0,24.0,1.0
639133,0.790342,-1.3735,-2.880007,-0.016715999999999998,-0.07535700000000001,-0.281484,0.0,20.0,52.0,165.0,24.0,1.0
639134,0.783199,-1.360149,-2.8901830000000004,-0.122793,0.16485,-0.142609,0.0,20.0,52.0,165.0,24.0,1.0
639135,0.781297,-1.350545,-2.897761,-0.066832,0.844851,0.666732,0.0,20.0,52.0,165.0,24.0,1.0
639136,0.804164,-1.3550799999999998,-2.899637,-0.002467,1.129546,0.6489020000000001,0.0,20.0,52.0,165.0,24.0,1.0
639137,0.860349,-1.365945,-2.890979,-0.013628,-0.043239,0.112177,0.0,20.0,52.0,165.0,24.0,1.0
639138,0.8656659999999999,-1.355908,-2.893992,0.644573,0.5794729999999999,0.1136,0.0,20.0,52.0,165.0,24.0,1.0
639139,0.900753,-1.339338,-2.856996,0.8320219999999999,1.094294,0.18379,0.0,20.0,52.0,165.0,24.0,1.0
639140,1.051834,-1.335912,-2.729944,0.444229,1.4311,-0.8456319999999999,0.0,20.0,52.0,165.0,24.0,1.0
639141,1.108959,-1.336538,-2.655374,-0.211249,-0.447891,-0.111505,0.0,20.0,52.0,165.0,24.0,1.0
639142,1.059511,-1.328832,-2.670534,-0.344329,-0.542769,0.020499,0.0,20.0,52.0,165.0,24.0,1.0
639143,1.115469,-1.326604,-2.652965,0.323525,0.215687,-0.023806,0.0,20.0,52.0,165.0,24.0,1.0
639144,1.20136,-1.324845,-2.62049,0.490785,0.16591199999999998,0.18341,0.0,20.0,52.0,165.0,24.0,1.0
639145,1.322589,-1.321676,-2.536416,0.200415,-0.292891,0.325698,0.0,20.0,52.0,165.0,24.0,1.0
639146,1.472904,-1.312388,-2.399351,-0.131892,-0.410005,-0.30457199999999995,0.0,20.0,52.0,165.0,24.0,1.0
639147,1.574236,-1.302453,-2.284619,-0.202324,-0.190041,-0.352001,0.0,20.0,52.0,165.0,24.0,1.0
639148,1.63693,-1.296964,-2.2038990000000003,-0.245765,-0.197056,-0.095688,0.0,20.0,52.0,165.0,24.0,1.0
639149,1.701034,-1.293755,-2.138994,-0.093762,-0.358796,-0.503015,0.0,20.0,52.0,165.0,24.0,1.0
639150,1.734989,-1.292963,-2.097721,-0.157605,-0.464994,-0.6005659999999999,0.0,20.0,52.0,165.0,24.0,1.0
639151,1.717368,-1.298232,-2.105968,-0.287094,-0.529215,-0.541539,0.0,20.0,52.0,165.0,24.0,1.0
639152,1.643532,-1.313664,-2.174211,-0.396086,-0.347479,-0.413757,0.0,20.0,52.0,165.0,24.0,1.0
639153,1.528318,-1.336797,-2.284672,0.144537,-0.399306,-0.144895,0.0,20.0,52.0,165.0,24.0,1.0
639154,1.3849870000000002,-1.356361,-2.418994,0.352064,-0.158997,-0.132524,0.0,20.0,52.0,165.0,24.0,1.0
639155,1.250753,-1.368951,-2.528451,0.411746,-0.179726,-0.234289,0.0,20.0,52.0,165.0,24.0,1.0
639156,1.129765,-1.371998,-2.61232,0.045472000000000005,-0.728809,0.326718,0.0,20.0,52.0,165.0,24.0,1.0
639157,1.07598,-1.3783379999999998,-2.65328,-0.092474,-0.596543,0.094335,0.0,20.0,52.0,165.0,24.0,1.0
639158,0.989208,-1.384966,-2.725673,-0.119653,0.078038,-0.070993,0.0,20.0,52.0,165.0,24.0,1.0
639159,0.8794139999999999,-1.389571,-2.824596,-0.084325,0.198261,-0.209617,0.0,20.0,52.0,165.0,24.0,1.0
639160,0.738065,-1.388458,-2.949778,0.06355,0.29917,-0.16467,0.0,20.0,52.0,165.0,24.0,1.0
639161,0.522466,-1.3730870000000002,3.129341,-0.183939,0.492335,-0.148949,0.0,20.0,52.0,165.0,24.0,1.0
639162,0.304465,-1.344507,2.929657,0.040674,0.8352629999999999,0.160915,0.0,20.0,52.0,165.0,24.0,1.0
639163,0.134448,-1.310142,2.780343,0.239155,1.109355,0.163718,0.0,20.0,52.0,165.0,24.0,1.0
639164,-0.002554,-1.275793,2.691178,0.361903,1.245179,0.13557,0.0,20.0,52.0,165.0,24.0,1.0
639165,-0.140674,-1.229213,2.630245,0.35742,0.619313,-0.13053499999999998,0.0,20.0,52.0,165.0,24.0,1.0
639166,-0.218799,-1.180221,2.596412,0.476815,0.382149,-0.149686,0.0,20.0,52.0,165.0,24.0,1.0
639167,-0.237629,-1.1495540000000002,2.591047,-0.034044,0.380692,-0.068352,0.0,20.0,52.0,165.0,24.0,1.0
639168,-0.24943,-1.128961,2.594246,-0.13453099999999998,0.151558,0.000186,0.0,20.0,52.0,165.0,24.0,1.0
639169,-0.254857,-1.117805,2.60958,-0.089923,-0.066027,0.075915,0.0,20.0,52.0,165.0,24.0,1.0
639170,-0.246861,-1.117054,2.641117,0.183387,-0.437937,0.366058,0.0,20.0,52.0,165.0,24.0,1.0
639171,-0.232356,-1.1263040000000002,2.678245,0.14952,-0.5551119999999999,0.475592,0.0,20.0,52.0,165.0,24.0,1.0
639172,-0.222266,-1.1401139999999998,2.711435,0.073948,-0.643041,0.480848,0.0,20.0,52.0,165.0,24.0,1.0
639173,-0.210493,-1.155989,2.738906,-0.233316,-0.716097,0.503207,0.0,20.0,52.0,165.0,24.0,1.0
639174,-0.172103,-1.180453,2.772187,-0.279459,-0.557667,0.276102,0.0,20.0,52.0,165.0,24.0,1.0
639175,-0.105792,-1.216327,2.816216,-0.178438,-0.462581,0.164381,0.0,20.0,52.0,165.0,24.0,1.0
639176,0.003181,-1.256987,2.887787,-0.105322,-0.356713,0.014949,0.0,20.0,52.0,165.0,24.0,1.0
639177,0.151763,-1.291094,2.9855240000000003,-0.061326,-0.199816,-0.027357,0.0,20.0,52.0,165.0,24.0,1.0
639178,0.301313,-1.316453,3.078478,-0.099612,-0.284952,-0.010498,0.0,20.0,52.0,165.0,24.0,1.0
639179,0.421262,-1.338669,-3.133418,-0.166034,-0.23476100000000005,-0.005819,0.0,20.0,52.0,165.0,24.0,1.0
639180,0.528474,-1.363405,-3.061154,-0.0681,0.162725,-0.242637,0.0,20.0,52.0,165.0,24.0,1.0
639181,0.674654,-1.381794,-2.947919,0.021035,0.295823,-0.387154,0.0,20.0,52.0,165.0,24.0,1.0
639182,0.8222219999999999,-1.389248,-2.828885,0.104194,0.230073,-0.566474,0.0,20.0,52.0,165.0,24.0,1.0
639183,0.894874,-1.3872520000000002,-2.772414,-0.060645,0.30637800000000004,-0.358617,0.0,20.0,52.0,165.0,24.0,1.0
639184,0.891819,-1.377952,-2.785384,-0.062142,0.5137,-0.306028,0.0,20.0,52.0,165.0,24.0,1.0
639185,0.845967,-1.368232,-2.825483,0.146049,0.463638,-0.145233,0.0,20.0,52.0,165.0,24.0,1.0
639186,0.83775,-1.363114,-2.828558,0.277307,0.37386,0.697519,0.0,20.0,52.0,165.0,24.0,1.0
639187,0.897856,-1.368392,-2.802947,0.273339,0.372785,0.684845,0.0,20.0,52.0,165.0,24.0,1.0
639188,0.914364,-1.367768,-2.771606,0.275645,-0.148146,-0.25384,0.0,20.0,52.0,165.0,24.0,1.0
639189,0.946742,-1.354861,-2.709846,0.547982,0.641556,0.108731,0.0,20.0,52.0,165.0,24.0,1.0
639190,1.08679,-1.350571,-2.5924560000000003,0.347443,0.840512,0.151944,0.0,20.0,52.0,165.0,24.0,1.0
639191,1.19064,-1.344873,-2.4913220000000003,-0.055151,0.149421,0.010004,0.0,20.0,52.0,165.0,24.0,1.0
639192,1.253912,-1.342863,-2.4178900000000003,0.052331,0.34398,-0.214449,0.0,20.0,52.0,165.0,24.0,1.0
639193,1.300343,-1.344942,-2.382263,0.126932,0.123694,-0.009882,0.0,20.0,52.0,165.0,24.0,1.0
639194,1.326673,-1.345147,-2.368835,0.058077,-0.121973,0.102975,0.0,20.0,52.0,165.0,24.0,1.0
639195,1.369714,-1.345608,-2.332001,0.06615800000000001,-0.014944,0.037693,0.0,20.0,52.0,165.0,24.0,1.0
639196,1.415961,-1.3459219999999998,-2.284127,0.003048,-0.07891799999999999,-0.010952,0.0,20.0,52.0,165.0,24.0,1.0
639197,1.458851,-1.34585,-2.235142,-0.094773,-0.28065300000000004,-0.302113,0.0,20.0,52.0,165.0,24.0,1.0
639198,1.4982209999999998,-1.345597,-2.183144,-0.120303,-0.107623,-0.413132,0.0,20.0,52.0,165.0,24.0,1.0
639199,1.521091,-1.347884,-2.148957,-0.130517,-0.073616,-0.460667,0.0,20.0,52.0,165.0,24.0,1.0
639200,1.525262,-1.352452,-2.136766,-0.058999,-0.389328,-0.13961700000000002,0.0,20.0,52.0,165.0,24.0,1.0
639201,1.526735,-1.358095,-2.129306,-0.113381,-0.41823,-0.13128299999999998,0.0,20.0,52.0,165.0,24.0,1.0
639202,1.523777,-1.365686,-2.124375,-0.146811,-0.572651,-0.167812,0.0,20.0,52.0,165.0,24.0,1.0
639203,1.490689,-1.377066,-2.1518,-0.106515,-0.419632,-0.112116,0.0,20.0,52.0,165.0,24.0,1.0
639204,1.435843,-1.3896700000000002,-2.203703,-0.080214,-0.25183,-0.183061,0.0,20.0,52.0,165.0,24.0,1.0
639205,1.387181,-1.401246,-2.241896,0.003765,-0.099461,-0.374733,0.0,20.0,52.0,165.0,24.0,1.0
639206,1.339006,-1.408844,-2.268716,0.300578,-0.32968800000000004,0.013424,0.0,20.0,52.0,165.0,24.0,1.0
639207,1.302578,-1.418434,-2.307196,-0.08621799999999999,-0.302746,-0.040878,0.0,20.0,52.0,165.0,24.0,1.0
639208,1.168789,-1.436963,-2.4342740000000003,-0.074947,0.024155000000000003,-0.318682,0.0,20.0,52.0,165.0,24.0,1.0
639209,0.8858530000000001,-1.44682,-2.68986,0.411455,0.583435,-0.050321,0.0,20.0,52.0,165.0,24.0,1.0
639210,0.593446,-1.432903,-2.972202,-0.185159,0.574174,-0.241669,0.0,20.0,52.0,165.0,24.0,1.0
639211,0.32463200000000003,-1.402903,3.058068,-0.233034,0.774742,-0.24282,0.0,20.0,52.0,165.0,24.0,1.0
639212,0.141056,-1.3646200000000002,2.893953,0.221911,0.88031,-0.093829,0.0,20.0,52.0,165.0,24.0,1.0
639213,0.045043,-1.325528,2.804827,0.286675,1.061697,0.082538,0.0,20.0,52.0,165.0,24.0,1.0
639214,-0.023406,-1.303142,2.781056,0.12778599999999998,0.8748090000000001,0.25157,0.0,20.0,52.0,165.0,24.0,1.0
639215,-0.096409,-1.28459,2.78416,-0.007449,0.397185,-0.07042999999999999,0.0,20.0,52.0,165.0,24.0,1.0
639216,-0.128216,-1.259455,2.793974,0.019834,0.486263,-0.240512,0.0,20.0,52.0,165.0,24.0,1.0
639217,-0.14611300000000002,-1.243506,2.803217,0.038028,0.259886,-0.025458,0.0,20.0,52.0,165.0,24.0,1.0
639218,-0.170335,-1.2322110000000002,2.820296,0.090541,-0.227085,0.148814,0.0,20.0,52.0,165.0,24.0,1.0
639219,-0.182483,-1.223519,2.846891,0.080817,-0.422023,0.262999,0.0,20.0,52.0,165.0,24.0,1.0
639220,-0.194148,-1.225523,2.866591,-0.057463,-0.350346,0.339431,0.0,20.0,52.0,165.0,24.0,1.0
639221,-0.200035,-1.236173,2.88283,-0.199777,-0.348404,0.404579,0.0,20.0,52.0,165.0,24.0,1.0
639222,-0.197361,-1.251409,2.901318,-0.176292,-0.398616,0.34883800000000004,0.0,20.0,52.0,165.0,24.0,1.0
639223,-0.18446,-1.270776,2.923975,-0.12629400000000002,-0.430184,0.303442,0.0,20.0,52.0,165.0,24.0,1.0
639224,-0.157164,-1.294977,2.952604,-0.014721,-0.450865,0.2099,0.0,20.0,52.0,165.0,24.0,1.0
639225,-0.107001,-1.322412,2.992895,-0.16271300000000002,-0.437344,0.054491,0.0,20.0,52.0,165.0,24.0,1.0
639226,-0.031481,-1.349905,3.048339,-0.2381,-0.441691,-0.000314,0.0,20.0,52.0,165.0,24.0,1.0
639227,0.072774,-1.3744610000000002,3.121842,-0.215216,-0.4544510000000001,-0.036637,0.0,20.0,52.0,165.0,24.0,1.0
639228,0.189919,-1.3947200000000002,-3.07923,-0.065881,-0.4278520000000001,0.038289,0.0,20.0,52.0,165.0,24.0,1.0
639229,0.305333,-1.413218,-2.996635,-0.0023420000000000003,-0.331604,0.0488,0.0,20.0,52.0,165.0,24.0,1.0
639230,0.447546,-1.430028,-2.885257,0.014338,0.017475,-0.151618,0.0,20.0,52.0,165.0,24.0,1.0
639231,0.619636,-1.439105,-2.730483,-0.108733,0.069297,-0.61197,0.0,20.0,52.0,165.0,24.0,1.0
639232,0.659667,-1.437817,-2.683098,-0.252264,-0.013494999999999998,-0.665931,0.0,20.0,52.0,165.0,24.0,1.0
639233,0.532663,-1.424397,-2.799877,-0.426099,-0.170058,-0.533568,0.0,20.0,52.0,165.0,24.0,1.0
639234,0.387635,-1.404753,-2.942932,-0.384554,-0.234858,-0.24925300000000006,0.0,20.0,52.0,165.0,24.0,1.0
639235,0.25865,-1.391305,-3.053377,-0.37196,0.11746,-0.240405,0.0,20.0,52.0,165.0,24.0,1.0
639236,0.075116,-1.381548,3.097403,-0.014786,0.786958,0.11348,0.0,20.0,52.0,165.0,24.0,1.0
639237,0.046207,-1.372624,3.061529,1.003664,0.103694,0.364854,0.0,20.0,52.0,165.0,24.0,1.0
639238,0.207396,-1.364949,-3.107346,1.130238,0.110574,0.220897,0.0,20.0,52.0,165.0,24.0,1.0
639239,0.32198000000000004,-1.360947,-3.008591,0.6253920000000001,2.5259970000000003,-0.127487,0.0,20.0,52.0,165.0,24.0,1.0
639240,0.276696,-1.365154,-3.015552,0.176879,1.823698,0.248073,0.0,20.0,52.0,165.0,24.0,1.0
639241,0.271667,-1.375975,-2.998348,-0.23443200000000006,-0.393634,-0.161709,0.0,20.0,52.0,165.0,24.0,1.0
639242,0.403663,-1.389906,-2.884668,0.244127,0.16101500000000002,-0.16144,0.0,20.0,52.0,165.0,24.0,1.0
639243,0.650655,-1.389926,-2.677962,0.509342,0.459886,0.204679,0.0,20.0,52.0,165.0,24.0,1.0
639244,0.924045,-1.38774,-2.4679900000000004,0.289337,-0.062027,0.499725,0.0,20.0,52.0,165.0,24.0,1.0
639245,1.247475,-1.3899,-2.183351,0.024316,-0.09643,0.513519,0.0,20.0,52.0,165.0,24.0,1.0
639246,1.5803200000000002,-1.387567,-1.884491,-0.198485,-0.201308,-0.220775,0.0,20.0,52.0,165.0,24.0,1.0
639247,1.778057,-1.381591,-1.6932029999999998,-0.187692,-0.323981,-0.546672,0.0,20.0,52.0,165.0,24.0,1.0
639248,1.800415,-1.373612,-1.629457,0.058155,-0.325669,-0.27660300000000004,0.0,20.0,52.0,165.0,24.0,1.0
639249,1.854907,-1.368529,-1.560834,0.188789,-0.311141,-0.277197,0.0,20.0,52.0,165.0,24.0,1.0
639250,1.955229,-1.361659,-1.463371,0.156096,-0.14267,-0.157662,0.0,20.0,52.0,165.0,24.0,1.0
639251,2.038064,-1.349124,-1.377732,0.096842,-0.060430999999999985,-0.212066,0.0,20.0,52.0,165.0,24.0,1.0
639252,2.103471,-1.332672,-1.303795,-0.018953,-0.077205,-0.360152,0.0,20.0,52.0,165.0,24.0,1.0
639253,2.158424,-1.317126,-1.2415770000000002,-0.162803,-0.066509,-0.394108,0.0,20.0,52.0,165.0,24.0,1.0
639254,2.219415,-1.305862,-1.177948,-0.07899500000000001,0.031976,-0.17093699999999998,0.0,20.0,52.0,165.0,24.0,1.0
639255,2.28959,-1.2988959999999998,-1.112167,0.237367,0.186228,0.060874,0.0,20.0,52.0,165.0,24.0,1.0
639256,2.350146,-1.29338,-1.055193,0.276827,0.230281,0.0245,0.0,20.0,52.0,165.0,24.0,1.0
639257,2.37304,-1.2878459999999998,-1.013853,0.17047,0.256179,-0.227995,0.0,20.0,52.0,165.0,24.0,1.0
639258,2.368208,-1.284856,-0.993986,-0.138183,0.338897,-0.709838,0.0,20.0,52.0,165.0,24.0,1.0
639259,2.365279,-1.285226,-0.988258,-0.095876,0.281298,-0.7207399999999999,0.0,20.0,52.0,165.0,24.0,1.0
639260,2.351239,-1.297188,-0.99678,0.177697,0.204098,-0.51241,0.0,20.0,52.0,165.0,24.0,1.0
639261,2.314766,-1.321641,-1.01865,0.472807,0.207103,-0.16680599999999998,0.0,20.0,52.0,165.0,24.0,1.0
639262,2.25076,-1.354655,-1.063759,0.437159,0.119825,-0.088288,0.0,20.0,52.0,165.0,24.0,1.0
639263,2.153534,-1.392713,-1.143052,0.168383,0.031654,0.007989,0.0,20.0,52.0,165.0,24.0,1.0
639264,2.015034,-1.433845,-1.270515,-0.080706,0.22660300000000005,0.11013699999999997,0.0,20.0,52.0,165.0,24.0,1.0
639265,1.781438,-1.470416,-1.502802,-0.114084,0.186659,0.069492,0.0,20.0,52.0,165.0,24.0,1.0
639266,1.35066,-1.4881,-1.918662,0.241734,0.20735100000000006,0.118153,0.0,20.0,52.0,165.0,24.0,1.0
639267,0.921342,-1.481399,-2.2866150000000003,0.478076,0.05305,0.35893,0.0,20.0,52.0,165.0,24.0,1.0
639268,0.648551,-1.462486,-2.463862,0.484747,-0.029281,0.372563,0.0,20.0,52.0,165.0,24.0,1.0
639269,0.483851,-1.441377,-2.531843,0.39744,-0.067595,0.159436,0.0,20.0,52.0,165.0,24.0,1.0
639270,0.364107,-1.421846,-2.576132,0.262664,-0.044759,-0.065715,0.0,20.0,52.0,165.0,24.0,1.0
639271,0.262421,-1.406125,-2.611996,0.205748,-0.03205,-0.048628,0.0,20.0,52.0,165.0,24.0,1.0
639272,0.141819,-1.391328,-2.655627,0.141417,-0.085867,0.163546,0.0,20.0,52.0,165.0,24.0,1.0
639273,0.036281,-1.368946,-2.687711,0.182961,-0.105292,0.209572,0.0,20.0,52.0,165.0,24.0,1.0
639274,-0.03065,-1.344102,-2.687384,0.224965,-0.037708,0.191368,0.0,20.0,52.0,165.0,24.0,1.0
639275,-0.071228,-1.324694,-2.667644,0.207781,0.021845,0.207148,0.0,20.0,52.0,165.0,24.0,1.0
639276,-0.085097,-1.309703,-2.627905,0.091136,-0.02339,0.2195,0.0,20.0,52.0,165.0,24.0,1.0
639277,-0.080205,-1.295233,-2.571578,0.061943,-0.036842,0.192208,0.0,20.0,52.0,165.0,24.0,1.0
639278,-0.064884,-1.281416,-2.506602,0.021064,-0.06808600000000001,0.133046,0.0,20.0,52.0,165.0,24.0,1.0
639279,-0.047063,-1.272458,-2.440964,-0.059049,-0.112519,0.210193,0.0,20.0,52.0,165.0,24.0,1.0
639280,-0.030656,-1.269602,-2.380023,-0.110186,-0.11604,0.231785,0.0,20.0,52.0,165.0,24.0,1.0
639281,-0.009768,-1.27072,-2.320394,-0.147519,-0.173805,0.201577,0.0,20.0,52.0,165.0,24.0,1.0
639282,0.015519,-1.276871,-2.260787,-0.08455800000000001,-0.196067,0.224467,0.0,20.0,52.0,165.0,24.0,1.0
639283,0.048583,-1.289172,-2.199403,-0.055427,-0.196415,0.221151,0.0,20.0,52.0,165.0,24.0,1.0
639284,0.100905,-1.307878,-2.1301360000000003,-0.13302,-0.178847,0.123296,0.0,20.0,52.0,165.0,24.0,1.0
639285,0.182061,-1.333483,-2.0451740000000003,-0.18793,-0.156635,0.009007,0.0,20.0,52.0,165.0,24.0,1.0
639286,0.296089,-1.3639370000000002,-1.93345,-0.237774,-0.017331,-0.173124,0.0,20.0,52.0,165.0,24.0,1.0
639287,0.401774,-1.385726,-1.8294,-0.089246,0.90935,-0.901463,0.0,20.0,52.0,165.0,24.0,1.0
639288,0.364254,-1.383174,-1.860474,-0.262983,0.669741,-0.694513,0.0,20.0,52.0,165.0,24.0,1.0
639289,0.220022,-1.36734,-1.976857,-0.266456,0.247997,-0.320387,0.0,20.0,52.0,165.0,24.0,1.0
639290,0.126471,-1.362266,-2.0225310000000003,0.226151,-0.753025,-0.307746,0.0,20.0,52.0,165.0,24.0,1.0
639291,0.13787,-1.369115,-1.95315,0.586184,-0.5989479999999999,-0.043263,0.0,20.0,52.0,165.0,24.0,1.0
639292,0.256412,-1.3734540000000002,-1.809648,0.232956,0.045517,0.069039,0.0,20.0,52.0,165.0,24.0,1.0
639293,0.414735,-1.3712950000000002,-1.6572360000000002,0.0254,1.0025309999999998,0.059775,0.0,20.0,52.0,165.0,24.0,1.0
639294,0.527573,-1.369229,-1.548286,-0.068177,1.360608,0.161671,0.0,20.0,52.0,165.0,24.0,1.0
639295,0.579727,-1.36922,-1.481725,-0.01479,-0.441712,0.412523,0.0,20.0,52.0,165.0,24.0,1.0
639296,0.600796,-1.371236,-1.432088,-0.27726300000000004,-0.77677,0.5378029999999999,0.0,20.0,52.0,165.0,24.0,1.0
639297,0.619733,-1.385508,-1.395449,-0.097182,-0.572239,0.352066,0.0,20.0,52.0,165.0,24.0,1.0
639298,0.6982,-1.405795,-1.316429,0.088492,-0.207045,0.305357,0.0,20.0,52.0,165.0,24.0,1.0
639299,0.8790819999999999,-1.431951,-1.156362,0.43193,0.388148,0.097179,0.0,20.0,52.0,165.0,24.0,1.0
639300,1.165336,-1.446942,-0.90096,0.539245,0.196762,-0.003441,0.0,20.0,52.0,165.0,24.0,1.0
639301,1.386792,-1.439126,-0.701132,0.486005,0.03275,-0.198312,0.0,20.0,52.0,165.0,24.0,1.0
639302,1.438585,-1.421592,-0.6449020000000001,0.362815,-0.032911,-0.119405,0.0,20.0,52.0,165.0,24.0,1.0
639303,1.469277,-1.405308,-0.599938,0.164986,-0.057978,0.14243699999999998,0.0,20.0,52.0,165.0,24.0,1.0
639304,1.572359,-1.392598,-0.489776,0.022416,0.005566,0.188032,0.0,20.0,52.0,165.0,24.0,1.0
639305,1.692706,-1.382132,-0.364773,-0.013936000000000002,-0.022569,0.081524,0.0,20.0,52.0,165.0,24.0,1.0
639306,1.786229,-1.3717,-0.255313,-0.028227,-0.009863,0.000807,0.0,20.0,52.0,165.0,24.0,1.0
639307,1.834381,-1.363993,-0.180534,-0.028421,-0.018609,-0.08182,0.0,20.0,52.0,165.0,24.0,1.0
639308,1.847713,-1.3608790000000002,-0.139208,0.003681,-0.041845,-0.067102,0.0,20.0,52.0,165.0,24.0,1.0
639309,1.869993,-1.358971,-0.099998,0.091534,-0.022799,0.057720000000000014,0.0,20.0,52.0,165.0,24.0,1.0
639310,1.92263,-1.3542610000000002,-0.041088,0.095085,-0.023935,0.082761,0.0,20.0,52.0,165.0,24.0,1.0
639311,1.992917,-1.345664,0.034958,0.049442,-0.049182,0.086556,0.0,20.0,52.0,165.0,24.0,1.0
639312,2.048824,-1.337077,0.104219,0.037449,-0.08679500000000001,-0.050458,0.0,20.0,52.0,165.0,24.0,1.0
639313,2.080985,-1.330116,0.157434,0.055033000000000006,-0.06475800000000001,-0.096376,0.0,20.0,52.0,165.0,24.0,1.0
639314,2.1124560000000003,-1.323688,0.20812,0.067597,-0.010288,-0.187347,0.0,20.0,52.0,165.0,24.0,1.0
639315,2.153106,-1.316929,0.26399,0.063549,-0.011238,-0.257099,0.0,20.0,52.0,165.0,24.0,1.0
639316,2.194345,-1.310898,0.318519,0.061877,-0.005906000000000001,-0.261359,0.0,20.0,52.0,165.0,24.0,1.0
639317,2.223212,-1.307067,0.36021,0.015777,0.08907999999999999,-0.211076,0.0,20.0,52.0,165.0,24.0,1.0
639318,2.222755,-1.309113,0.373017,0.090687,0.023439,-0.151829,0.0,20.0,52.0,165.0,24.0,1.0
639319,2.210942,-1.3129620000000002,0.385674,0.219547,0.000676,-0.103756,0.0,20.0,52.0,165.0,24.0,1.0
639320,2.174056,-1.321525,0.379033,0.08912300000000001,0.253625,-0.183099,0.0,20.0,52.0,165.0,24.0,1.0
639321,2.1353880000000003,-1.327776,0.363981,-0.164811,0.215358,-0.422889,0.0,20.0,52.0,165.0,24.0,1.0
639322,2.074804,-1.336685,0.326259,-0.110742,0.16228900000000002,-0.441078,0.0,20.0,52.0,165.0,24.0,1.0
639323,1.976086,-1.356948,0.252594,0.215619,0.14224,-0.251654,0.0,20.0,52.0,165.0,24.0,1.0
639324,1.817615,-1.386884,0.121522,0.262772,0.138294,-0.108783,0.0,20.0,52.0,165.0,24.0,1.0
639325,1.579631,-1.4185530000000002,-0.097688,0.14441099999999998,0.089936,0.08794,0.0,20.0,52.0,165.0,24.0,1.0
639326,1.230386,-1.438389,-0.437321,-0.011213,0.373789,0.191208,0.0,20.0,52.0,165.0,24.0,1.0
639327,0.875431,-1.435975,-0.772262,0.057787,0.220348,0.210853,0.0,20.0,52.0,165.0,24.0,1.0
639328,0.613147,-1.419161,-0.978583,0.206554,0.159103,0.295683,0.0,20.0,52.0,165.0,24.0,1.0
639329,0.425661,-1.395093,-1.080385,0.390596,0.152268,0.406758,0.0,20.0,52.0,165.0,24.0,1.0
639330,0.295165,-1.3683,-1.124901,0.26202,0.07895,0.198036,0.0,20.0,52.0,165.0,24.0,1.0
639331,0.196501,-1.340699,-1.148248,0.213673,0.071812,0.106565,0.0,20.0,52.0,165.0,24.0,1.0
639332,0.096655,-1.311744,-1.172636,0.160432,-0.001118,0.254585,0.0,20.0,52.0,165.0,24.0,1.0
639333,0.001561,-1.279386,-1.196774,0.124933,-0.086624,0.254666,0.0,20.0,52.0,165.0,24.0,1.0
639334,-0.075239,-1.244543,-1.211919,0.063304,-0.132431,0.263306,0.0,20.0,52.0,165.0,24.0,1.0
639335,-0.132459,-1.214703,-1.217049,-0.127865,-0.165232,0.209752,0.0,20.0,52.0,165.0,24.0,1.0
639336,-0.166005,-1.196442,-1.209241,-0.13963599999999998,-0.156375,0.240463,0.0,20.0,52.0,165.0,24.0,1.0
639337,-0.177761,-1.187129,-1.189451,-0.136068,-0.148291,0.341627,0.0,20.0,52.0,165.0,24.0,1.0
639338,-0.16985899999999998,-1.182461,-1.159769,-0.087912,-0.240696,0.208858,0.0,20.0,52.0,165.0,24.0,1.0
639339,-0.145953,-1.182224,-1.123975,-0.087099,-0.290395,0.13739400000000002,0.0,20.0,52.0,165.0,24.0,1.0
639340,-0.110163,-1.188337,-1.0861379999999998,-0.084216,-0.29896500000000004,0.10168,0.0,20.0,52.0,165.0,24.0,1.0
639341,-0.065738,-1.201931,-1.044181,-0.07989299999999999,-0.27381700000000003,0.145296,0.0,20.0,52.0,165.0,24.0,1.0
639342,-0.015477,-1.223202,-0.997119,-0.098809,-0.295572,0.171461,0.0,20.0,52.0,165.0,24.0,1.0
639343,0.047612,-1.255528,-0.939839,-0.100007,-0.274779,0.120852,0.0,20.0,52.0,165.0,24.0,1.0
639344,0.137069,-1.296537,-0.857182,-0.029098,0.038564,-0.006807,0.0,20.0,52.0,165.0,24.0,1.0
639345,0.249699,-1.333488,-0.7513529999999999,-0.063287,0.26377399999999995,-0.11728800000000003,0.0,20.0,52.0,165.0,24.0,1.0
639346,0.334646,-1.356005,-0.670589,-0.081937,0.8894799999999999,-0.459548,0.0,20.0,52.0,165.0,24.0,1.0
639347,0.247205,-1.338974,-0.7469180000000001,-0.35030700000000004,0.210466,-0.585437,0.0,20.0,52.0,165.0,24.0,1.0
639348,0.112271,-1.302471,-0.858777,-0.262746,-0.2628,-0.258435,0.0,20.0,52.0,165.0,24.0,1.0
639349,0.045005,-1.294031,-0.8849809999999999,0.079169,-0.712066,0.26512600000000003,0.0,20.0,52.0,165.0,24.0,1.0
639350,0.030035000000000006,-1.305136,-0.855123,0.489339,-0.176162,0.383597,0.0,20.0,52.0,165.0,24.0,1.0
639351,0.088001,-1.313265,-0.794337,0.470523,0.78368,0.11906300000000003,0.0,20.0,52.0,165.0,24.0,1.0
639352,0.16400499999999998,-1.3092629999999998,-0.730159,0.105846,0.7613770000000001,-0.116049,0.0,20.0,52.0,165.0,24.0,1.0
639353,0.160664,-1.303591,-0.70982,-0.483671,-0.34876,0.426223,0.0,20.0,52.0,165.0,24.0,1.0
639354,0.133222,-1.3157370000000002,-0.717907,-0.218689,-0.644467,0.884525,0.0,20.0,52.0,165.0,24.0,1.0
639355,0.187919,-1.342178,-0.6822020000000001,0.11836,-0.209027,0.477288,0.0,20.0,52.0,165.0,24.0,1.0
639356,0.310521,-1.363604,-0.589896,0.4134600000000001,0.266185,0.003708,0.0,20.0,52.0,165.0,24.0,1.0
639357,0.401041,-1.376633,-0.4986060000000001,0.695954,0.272727,-0.004462,0.0,20.0,52.0,165.0,24.0,1.0
639358,0.466296,-1.381835,-0.423711,0.347001,0.099236,0.061203,0.0,20.0,52.0,165.0,24.0,1.0
639359,0.58438,-1.384714,-0.301261,-0.006502,0.052984,-0.006182,0.0,20.0,52.0,165.0,24.0,1.0
639360,0.716701,-1.386109,-0.171279,-0.128684,-0.06499400000000001,0.047446,0.0,20.0,52.0,165.0,24.0,1.0
639361,0.8203860000000001,-1.387837,-0.084252,-0.117757,-0.097888,0.081706,0.0,20.0,52.0,165.0,24.0,1.0
639362,0.913038,-1.388995,-0.011701,-0.0006389999999999999,-0.014113,0.07952100000000001,0.0,20.0,52.0,165.0,24.0,1.0
639363,0.991289,-1.386111,0.052037,0.155887,-0.041344,0.140981,0.0,20.0,52.0,165.0,24.0,1.0
639364,1.0631959999999998,-1.383772,0.115813,0.167865,-0.010897,0.115529,0.0,20.0,52.0,165.0,24.0,1.0
639365,1.14012,-1.383621,0.193052,0.093488,-0.000112,0.045162,0.0,20.0,52.0,165.0,24.0,1.0
639366,1.207861,-1.382562,0.270645,0.063323,0.008722,-0.076822,0.0,20.0,52.0,165.0,24.0,1.0
639367,1.254712,-1.379782,0.334239,0.049845,0.003585,-0.115883,0.0,20.0,52.0,165.0,24.0,1.0
639368,1.2817040000000002,-1.3759549999999998,0.377741,-0.023291,-0.06488,-0.08036499999999999,0.0,20.0,52.0,165.0,24.0,1.0
639369,1.288186,-1.3729049999999998,0.395146,-0.050062,-0.10469,-0.029694,0.0,20.0,52.0,165.0,24.0,1.0
639370,1.28173,-1.372628,0.397142,-0.071023,-0.134894,-0.035051,0.0,20.0,52.0,165.0,24.0,1.0
639371,1.257976,-1.37387,0.385168,-0.090388,-0.175771,-0.102876,0.0,20.0,52.0,165.0,24.0,1.0
639372,1.214642,-1.377998,0.361507,-0.1166,-0.091595,-0.312912,0.0,20.0,52.0,165.0,24.0,1.0
639373,1.124448,-1.3828049999999998,0.303661,-0.130911,-0.0828,-0.402155,0.0,20.0,52.0,165.0,24.0,1.0
639374,0.951462,-1.384587,0.173907,-0.127737,-0.193651,-0.246324,0.0,20.0,52.0,165.0,24.0,1.0
639375,0.791111,-1.38435,0.03145,0.183328,-0.592349,0.232213,0.0,20.0,52.0,165.0,24.0,1.0
639376,0.696997,-1.386017,-0.069904,0.250565,-0.56185,0.243254,0.0,20.0,52.0,165.0,24.0,1.0
639377,0.639863,-1.389987,-0.120344,0.089179,-0.110438,0.041669,0.0,20.0,52.0,165.0,24.0,1.0
639378,0.555365,-1.39269,-0.167257,0.050737,0.024379,-0.141332,0.0,20.0,52.0,165.0,24.0,1.0
639379,0.490326,-1.392375,-0.197344,0.171165,-0.203073,-0.11776,0.0,20.0,52.0,165.0,24.0,1.0
639380,0.44418,-1.39071,-0.23582600000000006,0.100514,-0.472933,0.019824,0.0,20.0,52.0,165.0,24.0,1.0
639381,0.40315,-1.3907889999999998,-0.285587,-0.042707,-0.185121,0.004128,0.0,20.0,52.0,165.0,24.0,1.0
639382,0.372134,-1.3941059999999998,-0.320767,0.026425,0.049062,-0.139577,0.0,20.0,52.0,165.0,24.0,1.0
639383,0.369054,-1.396705,-0.315996,0.344488,0.24621,-0.089646,0.0,20.0,52.0,165.0,24.0,1.0
639384,0.388955,-1.396223,-0.298181,0.331066,0.150636,-0.078793,0.0,20.0,52.0,165.0,24.0,1.0
639385,0.358055,-1.386784,-0.328746,0.07412300000000001,0.395941,-0.08075299999999999,0.0,20.0,52.0,165.0,24.0,1.0
639386,0.254911,-1.367542,-0.428072,0.035034,0.622911,0.005287,0.0,20.0,52.0,165.0,24.0,1.0
639387,0.141396,-1.340683,-0.540585,0.07700800000000001,0.796135,0.06425800000000001,0.0,20.0,52.0,165.0,24.0,1.0
639388,0.050114,-1.309431,-0.6194270000000001,-0.060596,0.91827,0.29512,0.0,20.0,52.0,165.0,24.0,1.0
639389,-0.037388,-1.283512,-0.66473,-0.044784,0.793928,0.23913,0.0,20.0,52.0,165.0,24.0,1.0
639390,-0.131598,-1.253918,-0.685193,0.120245,0.831968,0.160902,0.0,20.0,52.0,165.0,24.0,1.0
639391,-0.191109,-1.215116,-0.684817,0.31461500000000003,0.362334,-0.05919600000000001,0.0,20.0,52.0,165.0,24.0,1.0
639392,-0.228993,-1.181177,-0.682217,0.284566,0.29244499999999995,0.142698,0.0,20.0,52.0,165.0,24.0,1.0
639393,-0.27629000000000004,-1.153494,-0.691469,0.146581,0.081786,0.293944,0.0,20.0,52.0,165.0,24.0,1.0
639394,-0.321497,-1.128703,-0.697469,-0.038354,-0.241947,0.328534,0.0,20.0,52.0,165.0,24.0,1.0
639395,-0.350544,-1.107932,-0.692583,-0.101705,-0.299028,0.35927,0.0,20.0,52.0,165.0,24.0,1.0
639396,-0.369459,-1.095325,-0.682413,-0.063815,-0.362191,0.479254,0.0,20.0,52.0,165.0,24.0,1.0
639397,-0.383636,-1.089952,-0.671071,-0.001429,-0.442589,0.54489,0.0,20.0,52.0,165.0,24.0,1.0
639398,-0.391113,-1.08971,-0.6626890000000001,-0.021965,-0.516925,0.507603,0.0,20.0,52.0,165.0,24.0,1.0
639399,-0.377532,-1.09835,-0.653135,-0.025936,-0.557175,0.279739,0.0,20.0,52.0,165.0,24.0,1.0
639400,-0.341345,-1.122086,-0.6380279999999999,-0.05303,-0.448355,0.170875,0.0,20.0,52.0,165.0,24.0,1.0
639401,-0.287489,-1.153946,-0.617042,-0.06969700000000001,-0.429811,0.047488,0.0,20.0,52.0,165.0,24.0,1.0
639402,-0.217959,-1.18836,-0.582619,-0.038129,-0.485925,-0.00223,0.0,20.0,52.0,165.0,24.0,1.0
639403,-0.142879,-1.220418,-0.536121,-0.041627,-0.548465,-0.049048,0.0,20.0,52.0,165.0,24.0,1.0
639404,-0.071355,-1.259494,-0.4879350000000001,-0.048172,-0.318299,0.209162,0.0,20.0,52.0,165.0,24.0,1.0
639405,0.02842,-1.305615,-0.424235,-0.007506999999999998,0.237073,0.138759,0.0,20.0,52.0,165.0,24.0,1.0
639406,0.189362,-1.343089,-0.317896,-0.013035,0.29801500000000003,-0.005307,0.0,20.0,52.0,165.0,24.0,1.0
639407,0.361036,-1.360957,-0.197153,-0.07560900000000001,0.091424,-0.323818,0.0,20.0,52.0,165.0,24.0,1.0
639408,0.460463,-1.3661450000000002,-0.123615,-0.338529,-0.051596,-0.364266,0.0,20.0,52.0,165.0,24.0,1.0
639409,0.499312,-1.364095,-0.08859700000000001,-0.348826,-0.020614,-0.256772,0.0,20.0,52.0,165.0,24.0,1.0
639410,0.486687,-1.355624,-0.096441,-0.254411,0.329579,0.114418,0.0,20.0,52.0,165.0,24.0,1.0
639411,0.466562,-1.346059,-0.121398,0.038281,0.5885020000000001,0.031528,0.0,20.0,52.0,165.0,24.0,1.0
639412,0.469261,-1.343427,-0.122132,0.238459,0.7300220000000001,0.23435,0.0,20.0,52.0,165.0,24.0,1.0
639413,0.475326,-1.3481379999999998,-0.14158900000000002,0.312143,0.57623,0.539138,0.0,20.0,52.0,165.0,24.0,1.0
639414,0.464494,-1.349734,-0.182277,0.201814,-0.384295,0.179286,0.0,20.0,52.0,165.0,24.0,1.0
639415,0.468232,-1.344108,-0.17605,0.198605,-0.383046,0.183815,0.0,20.0,52.0,165.0,24.0,1.0
639416,0.542463,-1.335126,-0.103794,0.473947,0.522713,0.062564,0.0,20.0,52.0,165.0,24.0,1.0
639417,0.669916,-1.333139,0.008140999999999999,0.478921,1.171052,-0.021298,0.0,20.0,52.0,165.0,24.0,1.0
639418,0.768825,-1.337716,0.111534,0.344943,1.011141,-0.225899,0.0,20.0,52.0,165.0,24.0,1.0
639419,0.73682,-1.339108,0.130608,-0.249415,-0.471251,0.318159,0.0,20.0,52.0,165.0,24.0,1.0
639420,0.705126,-1.333909,0.10335,-0.26450100000000004,-0.302548,0.11458,0.0,20.0,52.0,165.0,24.0,1.0
639421,0.7569600000000001,-1.327226,0.105278,-0.172804,-0.002649,-0.099818,0.0,20.0,52.0,165.0,24.0,1.0
639422,0.829097,-1.323423,0.143506,0.276979,0.402481,0.182368,0.0,20.0,52.0,165.0,24.0,1.0
639423,0.930984,-1.325535,0.23551,0.073102,-0.13789,0.234345,0.0,20.0,52.0,165.0,24.0,1.0
639424,1.038737,-1.332045,0.36146,-0.034539999999999994,-0.204926,-0.091918,0.0,20.0,52.0,165.0,24.0,1.0
639425,1.079736,-1.335905,0.446201,-0.138163,-0.103429,-0.554792,0.0,20.0,52.0,165.0,24.0,1.0
639426,1.076465,-1.338677,0.46096,-0.092796,-0.07433200000000001,-0.216824,0.0,20.0,52.0,165.0,24.0,1.0
639427,1.068984,-1.34057,0.444252,-0.033565,-0.141782,-0.10896,0.0,20.0,52.0,165.0,24.0,1.0
639428,1.057968,-1.342422,0.440784,-0.050471,-0.199835,-0.248823,0.0,20.0,52.0,165.0,24.0,1.0
639429,0.996644,-1.34266,0.408825,-0.110316,-0.21031100000000005,-0.365136,0.0,20.0,52.0,165.0,24.0,1.0
639430,0.8901180000000001,-1.345057,0.330465,-0.365333,-0.344426,-0.120873,0.0,20.0,52.0,165.0,24.0,1.0
639431,0.7865,-1.347882,0.23465500000000006,-0.025466,-0.288352,0.009069,0.0,20.0,52.0,165.0,24.0,1.0
639432,0.686709,-1.348198,0.14135699999999998,0.091296,-0.272523,0.109945,0.0,20.0,52.0,165.0,24.0,1.0
639433,0.618084,-1.349375,0.07531,0.108344,-0.245072,0.031137,0.0,20.0,52.0,165.0,24.0,1.0
639434,0.552284,-1.349985,0.024563,0.03151,-0.276318,0.168843,0.0,20.0,52.0,165.0,24.0,1.0
639435,0.501262,-1.353733,-0.013033,0.02843,-0.257693,0.086518,0.0,20.0,52.0,165.0,24.0,1.0
639436,0.454388,-1.358542,-0.0431,0.027507,0.003109,-0.216837,0.0,20.0,52.0,165.0,24.0,1.0
639437,0.408912,-1.360186,-0.076067,0.111049,-0.071257,-0.08605499999999999,0.0,20.0,52.0,165.0,24.0,1.0
639438,0.376412,-1.360575,-0.111052,0.07097,-0.15871,0.031151,0.0,20.0,52.0,165.0,24.0,1.0
639439,0.314635,-1.356817,-0.171994,-0.06582400000000001,0.367701,-0.290581,0.0,20.0,52.0,165.0,24.0,1.0
639440,0.200141,-1.338081,-0.27264,0.155026,0.370889,-0.134299,0.0,20.0,52.0,165.0,24.0,1.0
639441,0.11051,-1.308658,-0.360758,0.090259,0.370664,0.098259,0.0,20.0,52.0,165.0,24.0,1.0
639442,0.040567,-1.278803,-0.4443180000000001,0.020797,0.71315,0.154889,0.0,20.0,52.0,165.0,24.0,1.0
639443,-0.031693,-1.248827,-0.5148010000000001,0.073014,0.782709,0.147564,0.0,20.0,52.0,165.0,24.0,1.0
639444,-0.127524,-1.221058,-0.569766,0.189113,0.656515,0.318254,0.0,20.0,52.0,165.0,24.0,1.0
639445,-0.202261,-1.190607,-0.6070760000000001,0.180027,0.80543,-0.02034,0.0,20.0,52.0,165.0,24.0,1.0
639446,-0.219339,-1.160891,-0.610517,0.124199,0.597551,-0.113257,0.0,20.0,52.0,165.0,24.0,1.0
639447,-0.229787,-1.13608,-0.607846,-0.103495,0.240929,0.026841000000000004,0.0,20.0,52.0,165.0,24.0,1.0
639448,-0.251981,-1.116773,-0.609478,0.12529,0.255073,0.258565,0.0,20.0,52.0,165.0,24.0,1.0
639449,-0.272395,-1.101345,-0.6069479999999999,0.161564,-0.114748,0.322649,0.0,20.0,52.0,165.0,24.0,1.0
639450,-0.290418,-1.091967,-0.5970260000000001,0.115283,-0.355644,0.42512,0.0,20.0,52.0,165.0,24.0,1.0
639451,-0.303569,-1.089821,-0.586488,-0.034772000000000004,-0.402886,0.498177,0.0,20.0,52.0,165.0,24.0,1.0
639452,-0.31040700000000004,-1.09618,-0.577653,-0.097477,-0.436328,0.5066,0.0,20.0,52.0,165.0,24.0,1.0
639453,-0.306323,-1.111115,-0.567543,-0.052892,-0.5160060000000001,0.253896,0.0,20.0,52.0,165.0,24.0,1.0
639454,-0.28054,-1.135308,-0.554335,-0.06463200000000001,-0.473299,0.208003,0.0,20.0,52.0,165.0,24.0,1.0
639455,-0.232039,-1.165877,-0.530868,-0.136219,-0.42684,0.114569,0.0,20.0,52.0,165.0,24.0,1.0
639456,-0.160921,-1.201353,-0.492142,-0.08240399999999999,-0.486499,0.13581400000000002,0.0,20.0,52.0,165.0,24.0,1.0
639457,-0.064468,-1.242845,-0.4322720000000001,-0.067233,-0.438312,0.15573,0.0,20.0,52.0,165.0,24.0,1.0
639458,0.059513,-1.2889,-0.346017,0.062817,-0.16838499999999998,0.309163,0.0,20.0,52.0,165.0,24.0,1.0
639459,0.208037,-1.327244,-0.246344,-0.039591,-0.008009,0.06314,0.0,20.0,52.0,165.0,24.0,1.0
639460,0.358319,-1.35205,-0.141489,-0.151025,-0.074727,-0.111515,0.0,20.0,52.0,165.0,24.0,1.0
639461,0.457026,-1.365618,-0.06443099999999999,-0.310178,-0.214544,-0.345973,0.0,20.0,52.0,165.0,24.0,1.0
639462,0.500229,-1.369561,-0.027539,-0.332783,-0.188316,-0.434012,0.0,20.0,52.0,165.0,24.0,1.0
639463,0.5113409999999999,-1.365536,-0.023288,-0.248017,-0.081669,-0.284097,0.0,20.0,52.0,165.0,24.0,1.0
639464,0.5068090000000001,-1.354646,-0.051162,-0.019257,0.446701,0.115848,0.0,20.0,52.0,165.0,24.0,1.0
639465,0.518325,-1.347287,-0.069677,0.243586,0.954287,0.084562,0.0,20.0,52.0,165.0,24.0,1.0
639466,0.52993,-1.3461379999999998,-0.059107000000000014,0.375635,0.803068,0.272672,0.0,20.0,52.0,165.0,24.0,1.0
639467,0.508632,-1.338438,-0.078187,0.416216,-0.168149,0.317437,0.0,20.0,52.0,165.0,24.0,1.0
639468,0.523181,-1.330244,-0.06346399999999999,0.313404,0.383377,0.142023,0.0,20.0,52.0,165.0,24.0,1.0
639469,0.605725,-1.32922,0.018715,0.28417600000000004,0.8479620000000001,0.13672,0.0,20.0,52.0,165.0,24.0,1.0
639470,0.684901,-1.333784,0.101521,-0.149501,0.303026,0.13453099999999998,0.0,20.0,52.0,165.0,24.0,1.0
639471,0.712892,-1.3377,0.139446,-0.189958,0.115194,-0.010563,0.0,20.0,52.0,165.0,24.0,1.0
639472,0.701829,-1.333068,0.138505,-0.123481,0.015444,-0.07083099999999999,0.0,20.0,52.0,165.0,24.0,1.0
639473,0.714776,-1.326781,0.135095,0.167198,-0.102288,0.197545,0.0,20.0,52.0,165.0,24.0,1.0
639474,0.784948,-1.321215,0.167218,0.22427,0.017891999999999998,0.212106,0.0,20.0,52.0,165.0,24.0,1.0
639475,0.8821040000000001,-1.321752,0.24072800000000005,0.18772,0.163618,0.302051,0.0,20.0,52.0,165.0,24.0,1.0
639476,0.963277,-1.325507,0.323114,-0.167537,-0.13844800000000002,-0.1669,0.0,20.0,52.0,165.0,24.0,1.0
639477,0.996614,-1.328115,0.37435,-0.11531,-0.06926900000000001,-0.278131,0.0,20.0,52.0,165.0,24.0,1.0
639478,1.0021639999999998,-1.329636,0.391431,-0.015131,-0.000587,-0.285083,0.0,20.0,52.0,165.0,24.0,1.0
639479,1.0060209999999998,-1.329366,0.394852,0.092795,-0.017918,0.060502,0.0,20.0,52.0,165.0,24.0,1.0
639480,1.035145,-1.33044,0.42658,0.0823,-0.028992,0.03397,0.0,20.0,52.0,165.0,24.0,1.0
639481,1.081875,-1.332262,0.482933,0.030973,-0.035039999999999995,-0.20266,0.0,20.0,52.0,165.0,24.0,1.0
639482,1.113082,-1.3333469999999998,0.523496,-0.053044000000000015,-0.061678,-0.200624,0.0,20.0,52.0,165.0,24.0,1.0
639483,1.123122,-1.33485,0.540609,-0.076455,-0.06261,-0.134228,0.0,20.0,52.0,165.0,24.0,1.0
639484,1.096303,-1.335557,0.5271100000000001,-0.112576,-0.082352,-0.16380999999999998,0.0,20.0,52.0,165.0,24.0,1.0
639485,1.021914,-1.335572,0.475799,-0.216917,-0.103672,0.061256,0.0,20.0,52.0,165.0,24.0,1.0
639486,0.943258,-1.3358,0.4134020000000001,-0.275983,-0.149014,0.00621,0.0,20.0,52.0,165.0,24.0,1.0
639487,0.87174,-1.337914,0.354476,-0.04303,-0.163786,-0.067263,0.0,20.0,52.0,165.0,24.0,1.0
639488,0.801428,-1.339851,0.292479,0.217284,-0.223817,0.072541,0.0,20.0,52.0,165.0,24.0,1.0
639489,0.737812,-1.340098,0.234888,0.186289,-0.271664,0.15071500000000002,0.0,20.0,52.0,165.0,24.0,1.0
639490,0.685483,-1.3411030000000002,0.191369,0.107878,-0.311703,0.22085,0.0,20.0,52.0,165.0,24.0,1.0
639491,0.61824,-1.344666,0.138086,-0.167923,-0.253243,-0.011372,0.0,20.0,52.0,165.0,24.0,1.0
639492,0.53887,-1.3469799999999998,0.07578,0.071837,-0.028128,-0.21455,0.0,20.0,52.0,165.0,24.0,1.0
639493,0.4925270000000001,-1.348073,0.040158,0.190723,-0.046573,-0.180937,0.0,20.0,52.0,165.0,24.0,1.0
639494,0.466658,-1.347785,0.015862,-0.163298,-0.220826,0.053805999999999986,0.0,20.0,52.0,165.0,24.0,1.0
639495,0.436149,-1.352509,-0.019623,-0.260322,-0.095288,-0.163768,0.0,20.0,52.0,165.0,24.0,1.0
639496,0.375812,-1.357722,-0.08014099999999999,-0.108101,0.024461,-0.31061,0.0,20.0,52.0,165.0,24.0,1.0
639497,0.310601,-1.357149,-0.135738,0.384552,0.347245,-0.244617,0.0,20.0,52.0,165.0,24.0,1.0
639498,0.264948,-1.349511,-0.175729,0.175859,0.31419400000000003,-0.110876,0.0,20.0,52.0,165.0,24.0,1.0
639499,0.212008,-1.331826,-0.226625,0.022084,0.3328,-0.018221,0.0,20.0,52.0,165.0,24.0,1.0
639500,0.151497,-1.309689,-0.291794,-0.176757,0.366491,0.128895,0.0,20.0,52.0,165.0,24.0,1.0
639501,0.069454,-1.287076,-0.369465,-0.08099400000000001,0.590684,0.243413,0.0,20.0,52.0,165.0,24.0,1.0
639502,-0.032619,-1.261387,-0.4461020000000001,-0.051639,0.598191,0.268497,0.0,20.0,52.0,165.0,24.0,1.0
639503,-0.13196300000000002,-1.233551,-0.509746,0.18297,0.32824200000000003,0.220156,0.0,20.0,52.0,165.0,24.0,1.0
639504,-0.206032,-1.2074790000000002,-0.5557350000000001,0.166326,0.317642,0.044817,0.0,20.0,52.0,165.0,24.0,1.0
639505,-0.25129,-1.1832,-0.586724,0.141676,0.3749,0.051897000000000006,0.0,20.0,52.0,165.0,24.0,1.0
639506,-0.277801,-1.163723,-0.599785,0.055839,0.4204310000000001,0.131429,0.0,20.0,52.0,165.0,24.0,1.0
639507,-0.294624,-1.148259,-0.594474,0.119622,0.253217,0.08164600000000001,0.0,20.0,52.0,165.0,24.0,1.0
639508,-0.312089,-1.130659,-0.592807,0.15568900000000002,0.169327,0.129467,0.0,20.0,52.0,165.0,24.0,1.0
639509,-0.330494,-1.116039,-0.597885,0.060976,-0.148307,0.217797,0.0,20.0,52.0,165.0,24.0,1.0
639510,-0.340797,-1.107097,-0.59817,-0.050922,-0.252604,0.333923,0.0,20.0,52.0,165.0,24.0,1.0
639511,-0.342504,-1.105469,-0.593426,-0.074662,-0.227171,0.339403,0.0,20.0,52.0,165.0,24.0,1.0
639512,-0.344948,-1.1083,-0.589986,-0.08979,-0.207029,0.326229,0.0,20.0,52.0,165.0,24.0,1.0
639513,-0.346897,-1.114337,-0.590932,-0.042472,-0.158346,0.133284,0.0,20.0,52.0,165.0,24.0,1.0
639514,-0.334367,-1.126976,-0.590417,-0.024923,-0.168071,0.04543,0.0,20.0,52.0,165.0,24.0,1.0
639515,-0.306135,-1.142799,-0.58512,-0.123912,-0.112893,0.032898000000000004,0.0,20.0,52.0,165.0,24.0,1.0
639516,-0.26533,-1.158996,-0.571768,-0.15606199999999998,-0.162846,0.035071,0.0,20.0,52.0,165.0,24.0,1.0
639517,-0.217526,-1.178665,-0.550901,-0.104723,-0.28733200000000003,0.070386,0.0,20.0,52.0,165.0,24.0,1.0
639518,-0.167726,-1.205575,-0.525618,0.071797,-0.358712,0.25648200000000004,0.0,20.0,52.0,165.0,24.0,1.0
639519,-0.104253,-1.241501,-0.485128,0.12067,-0.304669,0.27670500000000003,0.0,20.0,52.0,165.0,24.0,1.0
639520,-0.017841,-1.278751,-0.425018,0.175332,-0.188583,0.225491,0.0,20.0,52.0,165.0,24.0,1.0
639521,0.087149,-1.3103,-0.35099,0.013657,-0.051422,0.002643,0.0,20.0,52.0,165.0,24.0,1.0
639522,0.210329,-1.336461,-0.25841,-0.193551,0.063983,-0.213938,0.0,20.0,52.0,165.0,24.0,1.0
639523,0.335084,-1.3531,-0.16156199999999998,-0.299496,0.026456,-0.25852,0.0,20.0,52.0,165.0,24.0,1.0
639524,0.410417,-1.357371,-0.107821,-0.218754,-0.161485,-0.237096,0.0,20.0,52.0,165.0,24.0,1.0
639525,0.427541,-1.354516,-0.096234,-0.087878,-0.191561,-0.189677,0.0,20.0,52.0,165.0,24.0,1.0
639526,0.421507,-1.348742,-0.101407,-0.007691,-0.13925,-0.094293,0.0,20.0,52.0,165.0,24.0,1.0
639527,0.442431,-1.345364,-0.09034,-0.065058,-0.005032,-0.034301,0.0,20.0,52.0,165.0,24.0,1.0
639528,0.4789850000000001,-1.345138,-0.073584,-0.187223,0.376946,-0.03966,0.0,20.0,52.0,165.0,24.0,1.0
639529,0.49674,-1.344739,-0.06526900000000001,-0.08250299999999999,0.658179,0.00298,0.0,20.0,52.0,165.0,24.0,1.0
639530,0.508962,-1.345717,-0.045337,0.334965,0.096131,0.298298,0.0,20.0,52.0,165.0,24.0,1.0
639531,0.533957,-1.342564,-0.026431,0.31506100000000004,0.22740900000000006,0.336936,0.0,20.0,52.0,165.0,24.0,1.0
639532,0.570673,-1.340236,-0.012266,0.208835,0.37482,0.407424,0.0,20.0,52.0,165.0,24.0,1.0
639533,0.6143,-1.33861,0.02978,0.06849,0.041269,-0.001664,0.0,20.0,52.0,165.0,24.0,1.0
639534,0.654625,-1.333708,0.093476,0.294718,0.389226,0.145866,0.0,20.0,52.0,165.0,24.0,1.0
639535,0.7206670000000001,-1.332847,0.15526700000000002,0.294864,0.751703,0.152583,0.0,20.0,52.0,165.0,24.0,1.0
639536,0.7700600000000001,-1.338544,0.200606,-0.046424,0.356333,-0.123084,0.0,20.0,52.0,165.0,24.0,1.0
639537,0.780071,-1.337728,0.222497,-0.025816,-0.181138,0.007308,0.0,20.0,52.0,165.0,24.0,1.0
639538,0.792244,-1.331658,0.215455,-0.032004000000000005,-0.17971800000000002,0.009463,0.0,20.0,52.0,165.0,24.0,1.0
639539,0.818787,-1.323747,0.21131100000000005,0.237375,-0.003421,0.351607,0.0,20.0,52.0,165.0,24.0,1.0
639540,0.8713799999999999,-1.321111,0.248907,0.16563699999999998,-0.039196,0.409354,0.0,20.0,52.0,165.0,24.0,1.0
639541,0.952961,-1.322833,0.334491,-0.009166,-0.089028,0.136454,0.0,20.0,52.0,165.0,24.0,1.0
639542,1.017083,-1.324713,0.414497,-0.024994,-0.052989,-0.201634,0.0,20.0,52.0,165.0,24.0,1.0
639543,1.050181,-1.326228,0.454008,-0.054623000000000005,0.007175,-0.16031099999999998,0.0,20.0,52.0,165.0,24.0,1.0
639544,1.070965,-1.328406,0.475862,-0.06793400000000001,0.02081,0.08454400000000001,0.0,20.0,52.0,165.0,24.0,1.0
639545,1.086981,-1.331145,0.501346,-0.008297,-0.065461,-0.036475,0.0,20.0,52.0,165.0,24.0,1.0
639546,1.088771,-1.332893,0.514917,-0.006776000000000001,-0.120394,-0.158824,0.0,20.0,52.0,165.0,24.0,1.0
639547,1.072271,-1.334084,0.509338,-0.008384,-0.111259,-0.161716,0.0,20.0,52.0,165.0,24.0,1.0
639548,1.031877,-1.334627,0.482943,-0.049592,-0.07421599999999999,-0.15376199999999998,0.0,20.0,52.0,165.0,24.0,1.0
639549,0.955492,-1.333414,0.430636,-0.102424,-0.132449,-0.057818,0.0,20.0,52.0,165.0,24.0,1.0
639550,0.858139,-1.33314,0.357257,-0.170222,-0.215499,0.057208,0.0,20.0,52.0,165.0,24.0,1.0
639551,0.771999,-1.334066,0.28508,-0.268181,-0.317432,0.10638,0.0,20.0,52.0,165.0,24.0,1.0
639552,0.680435,-1.337324,0.210797,0.031735,-0.157882,-0.041865,0.0,20.0,52.0,165.0,24.0,1.0
639553,0.570174,-1.335544,0.119442,0.137299,-0.14843499999999998,0.0724,0.0,20.0,52.0,165.0,24.0,1.0
639554,0.486932,-1.33369,0.041627,0.098424,-0.279273,0.198763,0.0,20.0,52.0,165.0,24.0,1.0
639555,0.423389,-1.333525,-0.017678,-0.042645,-0.114592,-0.081289,0.0,20.0,52.0,165.0,24.0,1.0
639556,0.355429,-1.3318530000000002,-0.06561,-0.065212,-0.007386,-0.103305,0.0,20.0,52.0,165.0,24.0,1.0
639557,0.297136,-1.330398,-0.10825,-0.06354800000000001,-0.048437,-0.216733,0.0,20.0,52.0,165.0,24.0,1.0
639558,0.249273,-1.327927,-0.146784,0.078025,-0.113779,-0.026121,0.0,20.0,52.0,165.0,24.0,1.0
639559,0.210262,-1.322642,-0.184237,-0.06093,-0.006065,-0.135685,0.0,20.0,52.0,165.0,24.0,1.0
639560,0.17518399999999998,-1.316254,-0.213556,0.001332,0.128657,-0.310085,0.0,20.0,52.0,165.0,24.0,1.0
639561,0.14318499999999998,-1.306031,-0.23243200000000006,0.07542599999999999,0.12649000000000002,-0.290315,0.0,20.0,52.0,165.0,24.0,1.0
639562,0.107913,-1.295042,-0.26283,0.07292799999999999,0.112365,-0.004002,0.0,20.0,52.0,165.0,24.0,1.0
639563,0.057689,-1.277953,-0.316964,-0.04864,0.309419,0.07709099999999999,0.0,20.0,52.0,165.0,24.0,1.0
639564,-0.000252,-1.258158,-0.379704,-0.049758,0.348478,0.17734,0.0,20.0,52.0,165.0,24.0,1.0
639565,-0.057665,-1.238067,-0.431622,0.093988,0.581609,0.301031,0.0,20.0,52.0,165.0,24.0,1.0
639566,-0.121059,-1.216163,-0.475332,0.15071199999999998,0.571183,0.281389,0.0,20.0,52.0,165.0,24.0,1.0
639567,-0.181716,-1.1911459999999998,-0.511208,0.250899,0.8472069999999999,0.0916,0.0,20.0,52.0,165.0,24.0,1.0
639568,-0.211612,-1.16739,-0.531238,0.095752,0.8728879999999999,-0.025585,0.0,20.0,52.0,165.0,24.0,1.0
639569,-0.24495100000000006,-1.136824,-0.553338,-0.13508,0.282502,0.175809,0.0,20.0,52.0,165.0,24.0,1.0
639570,-0.275341,-1.1001,-0.569454,-0.098859,0.007948,0.25123,0.0,20.0,52.0,165.0,24.0,1.0
639571,-0.28433400000000003,-1.069998,-0.568803,0.182227,-0.091524,0.077748,0.0,20.0,52.0,165.0,24.0,1.0
639572,-0.296997,-1.055125,-0.571275,0.179403,0.122805,0.185522,0.0,20.0,52.0,165.0,24.0,1.0
639573,-0.321267,-1.04892,-0.5785640000000001,-0.040207,-0.190646,0.274305,0.0,20.0,52.0,165.0,24.0,1.0
639574,-0.348634,-1.04443,-0.585309,-0.075861,-0.242125,0.27562600000000004,0.0,20.0,52.0,165.0,24.0,1.0
639575,-0.365072,-1.045595,-0.5903079999999999,-0.041765,-0.182835,0.178278,0.0,20.0,52.0,165.0,24.0,1.0
639576,-0.367507,-1.053492,-0.594195,-0.070994,-0.11705,0.091342,0.0,20.0,52.0,165.0,24.0,1.0
639577,-0.357782,-1.065517,-0.594367,-0.072129,-0.093118,0.066699,0.0,20.0,52.0,165.0,24.0,1.0
639578,-0.340113,-1.077864,-0.5909949999999999,-0.08190599999999999,-0.123884,0.159744,0.0,20.0,52.0,165.0,24.0,1.0
639579,-0.319037,-1.090728,-0.586743,-0.055541,-0.202912,0.19145,0.0,20.0,52.0,165.0,24.0,1.0
639580,-0.293758,-1.107055,-0.5810270000000001,-0.041403,-0.224814,0.16475499999999998,0.0,20.0,52.0,165.0,24.0,1.0
639581,-0.259492,-1.129458,-0.572525,-0.039541,-0.259085,0.054115,0.0,20.0,52.0,165.0,24.0,1.0
639582,-0.216484,-1.158953,-0.559063,-0.017322999999999998,-0.233477,0.021325,0.0,20.0,52.0,165.0,24.0,1.0
639583,-0.16612000000000002,-1.19657,-0.536304,-0.00848,-0.202489,0.008236,0.0,20.0,52.0,165.0,24.0,1.0
639584,-0.113942,-1.23761,-0.505422,0.038113,-0.128217,0.199041,0.0,20.0,52.0,165.0,24.0,1.0
639585,-0.056864,-1.273836,-0.468095,0.008511,-0.124825,0.195587,0.0,20.0,52.0,165.0,24.0,1.0
639586,0.023692,-1.299709,-0.414782,-0.04478,-0.120829,0.062151,0.0,20.0,52.0,165.0,24.0,1.0
639587,0.125645,-1.318926,-0.344241,-0.05001,-0.102039,-0.219489,0.0,20.0,52.0,165.0,24.0,1.0
639588,0.220244,-1.333651,-0.271109,-0.058534,-0.12103,-0.195175,0.0,20.0,52.0,165.0,24.0,1.0
639589,0.287297,-1.342248,-0.212133,-0.090845,-0.09889,-0.112701,0.0,20.0,52.0,165.0,24.0,1.0
639590,0.336702,-1.342946,-0.16993699999999998,-0.146879,-0.061648,-0.142932,0.0,20.0,52.0,165.0,24.0,1.0
639591,0.379507,-1.342848,-0.133803,-0.226646,-0.078334,-0.137535,0.0,20.0,52.0,165.0,24.0,1.0
639592,0.418191,-1.343072,-0.104544,-0.248893,-0.087021,-0.130935,0.0,20.0,52.0,165.0,24.0,1.0
639593,0.442005,-1.3425049999999998,-0.094093,-0.188402,-0.155649,0.0035380000000000008,0.0,20.0,52.0,165.0,24.0,1.0
639594,0.449118,-1.344659,-0.098731,-0.064432,0.317544,-0.023323,0.0,20.0,52.0,165.0,24.0,1.0
639595,0.444397,-1.347626,-0.103415,-0.06223400000000001,0.316883,-0.025478,0.0,20.0,52.0,165.0,24.0,1.0
639596,0.47689,-1.351113,-0.07286799999999999,0.339962,0.7026680000000001,0.318766,0.0,20.0,52.0,165.0,24.0,1.0
639597,0.515733,-1.349858,-0.060792,0.153175,0.4291390000000001,0.184836,0.0,20.0,52.0,165.0,24.0,1.0
639598,0.528226,-1.344635,-0.06590900000000001,-0.012791,-0.085939,0.168401,0.0,20.0,52.0,165.0,24.0,1.0
639599,0.5480970000000001,-1.341446,-0.034219,0.17944200000000002,0.037187,0.198067,0.0,20.0,52.0,165.0,24.0,1.0
639600,0.597673,-1.342057,0.023831,0.435033,0.345535,0.215912,0.0,20.0,52.0,165.0,24.0,1.0
639601,0.692665,-1.346797,0.105231,0.317756,0.663213,0.149713,0.0,20.0,52.0,165.0,24.0,1.0
639602,0.797033,-1.35034,0.206136,0.038014,0.928087,-0.1353,0.0,20.0,52.0,165.0,24.0,1.0
639603,0.848526,-1.357415,0.285925,-0.232447,-0.24442600000000006,-0.065968,0.0,20.0,52.0,165.0,24.0,1.0
639604,0.861348,-1.357526,0.309798,-0.213181,-0.280506,-0.01964,0.0,20.0,52.0,165.0,24.0,1.0
639605,0.860467,-1.351878,0.282058,0.050656,-0.047041,0.026885000000000003,0.0,20.0,52.0,165.0,24.0,1.0
639606,0.874352,-1.3460450000000002,0.264473,0.259642,0.018849,0.261513,0.0,20.0,52.0,165.0,24.0,1.0
639607,0.931223,-1.345657,0.309312,0.16500399999999998,0.009063,0.241477,0.0,20.0,52.0,165.0,24.0,1.0
639608,1.006267,-1.346686,0.393117,0.070141,-0.049348,-0.177464,0.0,20.0,52.0,165.0,24.0,1.0
639609,1.062813,-1.346587,0.464554,-0.123052,-0.016763999999999998,-0.095687,0.0,20.0,52.0,165.0,24.0,1.0
639610,1.096003,-1.34724,0.496523,-0.099598,-0.0051600000000000005,0.08166,0.0,20.0,52.0,165.0,24.0,1.0
639611,1.132283,-1.351024,0.528576,-0.087763,-0.005625,0.133102,0.0,20.0,52.0,165.0,24.0,1.0
639612,1.174674,-1.3561040000000002,0.576914,0.020829,-0.023383,-0.188508,0.0,20.0,52.0,165.0,24.0,1.0
639613,1.200442,-1.359068,0.611568,0.036676,-0.049065,-0.188467,0.0,20.0,52.0,165.0,24.0,1.0
639614,1.207843,-1.36059,0.623081,0.05509,-0.104971,-0.026294,0.0,20.0,52.0,165.0,24.0,1.0
639615,1.200576,-1.362583,0.618178,-0.10951099999999997,-0.052987,-0.101542,0.0,20.0,52.0,165.0,24.0,1.0
639616,1.162185,-1.365883,0.590531,-0.171192,-0.02574,-0.126752,0.0,20.0,52.0,165.0,24.0,1.0
639617,1.0868799999999998,-1.370316,0.53395,-0.26616100000000004,-0.091833,-0.201215,0.0,20.0,52.0,165.0,24.0,1.0
639618,0.996673,-1.374951,0.461876,0.185102,-0.143512,-0.090499,0.0,20.0,52.0,165.0,24.0,1.0
639619,0.89764,-1.375715,0.372524,0.327031,-0.227889,0.086501,0.0,20.0,52.0,165.0,24.0,1.0
639620,0.807876,-1.371327,0.292781,0.030824,-0.373315,0.247013,0.0,20.0,52.0,165.0,24.0,1.0
639621,0.732888,-1.367758,0.235888,-0.176374,-0.395871,0.191948,0.0,20.0,52.0,165.0,24.0,1.0
639622,0.65571,-1.370877,0.17916300000000002,-0.179479,-0.008860999999999999,-0.293945,0.0,20.0,52.0,165.0,24.0,1.0
639623,0.545673,-1.372448,0.093354,0.208946,-0.106919,-0.06773799999999999,0.0,20.0,52.0,165.0,24.0,1.0
639624,0.458557,-1.365707,0.012991,-0.069147,-0.377419,0.178361,0.0,20.0,52.0,165.0,24.0,1.0
639625,0.393894,-1.361456,-0.05293,-0.223675,-0.253361,-0.143027,0.0,20.0,52.0,165.0,24.0,1.0
639626,0.32254,-1.357624,-0.113956,0.086992,-0.147119,-0.17999,0.0,20.0,52.0,165.0,24.0,1.0
639627,0.25847800000000004,-1.3532879999999998,-0.168935,0.234906,-0.003858,-0.147355,0.0,20.0,52.0,165.0,24.0,1.0
639628,0.212654,-1.350384,-0.209954,0.092141,-0.020531,-0.13466199999999998,0.0,20.0,52.0,165.0,24.0,1.0
639629,0.152843,-1.342962,-0.25761100000000003,0.098293,0.231836,-0.189661,0.0,20.0,52.0,165.0,24.0,1.0
639630,0.07084299999999999,-1.322735,-0.328745,0.071887,0.46637,-0.033722,0.0,20.0,52.0,165.0,24.0,1.0
639631,0.00391,-1.294369,-0.394417,0.008820999999999999,0.403518,0.167373,0.0,20.0,52.0,165.0,24.0,1.0
639632,-0.046138,-1.268802,-0.436353,0.055281,0.653699,0.221017,0.0,20.0,52.0,165.0,24.0,1.0
639633,-0.115105,-1.240105,-0.482042,0.111538,0.637754,0.159775,0.0,20.0,52.0,165.0,24.0,1.0
639634,-0.193242,-1.207883,-0.5249510000000001,0.182367,0.629937,0.15218900000000002,0.0,20.0,52.0,165.0,24.0,1.0
639635,-0.251608,-1.181348,-0.547763,0.155434,0.928916,-0.119722,0.0,20.0,52.0,165.0,24.0,1.0
639636,-0.272112,-1.162814,-0.5474600000000001,-0.061781,0.584045,0.018495,0.0,20.0,52.0,165.0,24.0,1.0
639637,-0.29593,-1.135307,-0.548668,-0.16059500000000002,0.301619,0.127012,0.0,20.0,52.0,165.0,24.0,1.0
639638,-0.319004,-1.106014,-0.542392,0.029851,-0.180312,0.27839899999999995,0.0,20.0,52.0,165.0,24.0,1.0
639639,-0.324303,-1.084221,-0.52423,0.214487,0.049425,0.285804,0.0,20.0,52.0,165.0,24.0,1.0
639640,-0.335057,-1.074082,-0.514083,0.222184,0.054212,0.292618,0.0,20.0,52.0,165.0,24.0,1.0
639641,-0.358657,-1.06963,-0.515363,-0.114943,-0.174523,0.33753,0.0,20.0,52.0,165.0,24.0,1.0
639642,-0.383795,-1.06627,-0.5185960000000001,-0.139009,-0.189231,0.226092,0.0,20.0,52.0,165.0,24.0,1.0
639643,-0.39839,-1.067764,-0.51966,-0.132995,-0.189952,0.222196,0.0,20.0,52.0,165.0,24.0,1.0
639644,-0.397811,-1.074908,-0.520419,-0.061204,-0.04927,0.081299,0.0,20.0,52.0,165.0,24.0,1.0
639645,-0.387131,-1.084564,-0.518375,-0.067939,-0.056478,0.101847,0.0,20.0,52.0,165.0,24.0,1.0
639646,-0.372521,-1.094768,-0.514504,-0.077572,-0.061201,0.095952,0.0,20.0,52.0,165.0,24.0,1.0
639647,-0.35502100000000003,-1.107406,-0.511984,-0.076212,-0.151653,0.13908099999999998,0.0,20.0,52.0,165.0,24.0,1.0
639648,-0.332379,-1.123708,-0.508618,-0.044955,-0.134589,0.092792,0.0,20.0,52.0,165.0,24.0,1.0
639649,-0.300469,-1.142089,-0.5023810000000001,-0.022191,-0.079121,0.066824,0.0,20.0,52.0,165.0,24.0,1.0
639650,-0.263173,-1.162508,-0.492517,-0.027317,-0.043061,0.051899,0.0,20.0,52.0,165.0,24.0,1.0
639651,-0.232756,-1.184799,-0.480671,0.056745,-0.147569,0.184397,0.0,20.0,52.0,165.0,24.0,1.0
639652,-0.203581,-1.206905,-0.464578,0.06057000000000001,-0.201929,0.1792,0.0,20.0,52.0,165.0,24.0,1.0
639653,-0.164534,-1.227054,-0.441097,0.036291,-0.27315,0.112147,0.0,20.0,52.0,165.0,24.0,1.0
639654,-0.110569,-1.248045,-0.407303,-0.033913,-0.232943,-0.051667999999999985,0.0,20.0,52.0,165.0,24.0,1.0
639655,-0.04417,-1.272045,-0.363069,-0.058492,-0.21611100000000005,-0.06907100000000001,0.0,20.0,52.0,165.0,24.0,1.0
639656,0.033246,-1.299234,-0.307125,-0.072285,-0.178548,-0.0095,0.0,20.0,52.0,165.0,24.0,1.0
639657,0.120331,-1.322385,-0.242825,-0.085509,-0.10793,0.012941,0.0,20.0,52.0,165.0,24.0,1.0
639658,0.208672,-1.33607,-0.18191,-0.130662,-0.10504,-0.055603,0.0,20.0,52.0,165.0,24.0,1.0
639659,0.287854,-1.3439139999999998,-0.127679,-0.107138,-0.08744,-0.16332,0.0,20.0,52.0,165.0,24.0,1.0
639660,0.350565,-1.349756,-0.081502,-0.108179,-0.021156,-0.11168,0.0,20.0,52.0,165.0,24.0,1.0
639661,0.401856,-1.350645,-0.047787,-0.116281,-0.02721,-0.093751,0.0,20.0,52.0,165.0,24.0,1.0
639662,0.440478,-1.347923,-0.028836,-0.188127,-0.040543,0.020149,0.0,20.0,52.0,165.0,24.0,1.0
639663,0.470112,-1.347094,-0.018447,-0.161752,0.11087,0.009598,0.0,20.0,52.0,165.0,24.0,1.0
639664,0.492966,-1.348358,-0.009614,0.08075399999999999,0.574869,-0.078523,0.0,20.0,52.0,165.0,24.0,1.0
639665,0.511223,-1.349936,0.009574,0.218632,0.366972,0.233489,0.0,20.0,52.0,165.0,24.0,1.0
639666,0.515041,-1.343987,0.00565,0.154469,0.136863,0.334258,0.0,20.0,52.0,165.0,24.0,1.0
639667,0.533506,-1.339203,-0.00294,0.073752,-0.094167,0.422558,0.0,20.0,52.0,165.0,24.0,1.0
639668,0.583386,-1.345606,0.027297,0.08731799999999999,0.103816,0.22017,0.0,20.0,52.0,165.0,24.0,1.0
639669,0.658831,-1.350687,0.101058,0.267806,1.339617,-0.055299,0.0,20.0,52.0,165.0,24.0,1.0
639670,0.751949,-1.3584969999999998,0.191705,0.333979,2.122945,-0.33456,0.0,20.0,52.0,165.0,24.0,1.0
639671,0.839167,-1.368614,0.29374,0.21271,-0.683473,-0.07062,0.0,20.0,52.0,165.0,24.0,1.0
639672,0.8572620000000001,-1.359191,0.34228400000000003,-0.106863,-0.48653,0.33116100000000004,0.0,20.0,52.0,165.0,24.0,1.0
639673,0.854208,-1.348216,0.307638,-0.136331,0.008128,0.125857,0.0,20.0,52.0,165.0,24.0,1.0
639674,0.887741,-1.344832,0.292896,-0.006953,0.259919,0.334681,0.0,20.0,52.0,165.0,24.0,1.0
639675,0.94539,-1.341042,0.327677,0.023562,-0.032331,0.344709,0.0,20.0,52.0,165.0,24.0,1.0
639676,1.018196,-1.339604,0.398862,0.055248,-0.181798,-0.08555900000000001,0.0,20.0,52.0,165.0,24.0,1.0
639677,1.072981,-1.339491,0.46107,-0.00337,-0.07815,-0.33077,0.0,20.0,52.0,165.0,24.0,1.0
639678,1.099024,-1.34072,0.48805,-0.098088,0.035735,-0.050523,0.0,20.0,52.0,165.0,24.0,1.0
639679,1.117173,-1.343024,0.503355,-0.001041,-0.009984,0.069561,0.0,20.0,52.0,165.0,24.0,1.0
639680,1.14571,-1.346288,0.539874,0.063296,-0.020802,-0.259969,0.0,20.0,52.0,165.0,24.0,1.0
639681,1.176665,-1.348129,0.582911,0.05902,-0.010636,-0.319849,0.0,20.0,52.0,165.0,24.0,1.0
639682,1.183086,-1.348395,0.5985199999999999,0.051106,-0.003432,-0.290405,0.0,20.0,52.0,165.0,24.0,1.0
639683,1.165409,-1.348618,0.587075,-0.03688,-0.04027,0.015138,0.0,20.0,52.0,165.0,24.0,1.0
639684,1.141052,-1.3505790000000002,0.570816,-0.105016,-0.120747,0.105655,0.0,20.0,52.0,165.0,24.0,1.0
639685,1.111078,-1.353575,0.553261,-0.103744,-0.172224,0.092567,0.0,20.0,52.0,165.0,24.0,1.0
639686,1.064166,-1.357355,0.5259189999999999,-0.072594,-0.118482,-0.108436,0.0,20.0,52.0,165.0,24.0,1.0
639687,0.983722,-1.361794,0.47216,-0.110036,-0.203672,-0.049738,0.0,20.0,52.0,165.0,24.0,1.0
639688,0.8715780000000001,-1.364529,0.385915,-0.034504,-0.293667,0.039548,0.0,20.0,52.0,165.0,24.0,1.0
639689,0.758894,-1.366283,0.283294,0.071462,-0.313099,0.059332,0.0,20.0,52.0,165.0,24.0,1.0
639690,0.664387,-1.369063,0.188332,-0.067194,-0.167373,0.027571,0.0,20.0,52.0,165.0,24.0,1.0
639691,0.575385,-1.370778,0.10587,-0.123398,-0.102682,0.010073,0.0,20.0,52.0,165.0,24.0,1.0
639692,0.500861,-1.375296,0.042388,0.06512899999999999,0.031104000000000007,-0.259743,0.0,20.0,52.0,165.0,24.0,1.0
639693,0.423074,-1.376945,-0.012005,0.205474,-0.30439,0.003721,0.0,20.0,52.0,165.0,24.0,1.0
639694,0.363509,-1.373114,-0.057417,0.214732,-0.303645,0.01163,0.0,20.0,52.0,165.0,24.0,1.0
639695,0.32032,-1.373208,-0.100818,-0.214323,-0.186933,-0.153675,0.0,20.0,52.0,165.0,24.0,1.0
639696,0.265968,-1.372556,-0.141289,0.176991,0.143136,-0.168745,0.0,20.0,52.0,165.0,24.0,1.0
639697,0.2254,-1.369433,-0.170209,0.101397,0.067675,-0.176498,0.0,20.0,52.0,165.0,24.0,1.0
639698,0.177757,-1.360847,-0.207116,-0.051202,-0.084365,-0.157085,0.0,20.0,52.0,165.0,24.0,1.0
639699,0.08856599999999999,-1.344264,-0.287373,0.035756,0.217611,0.005464,0.0,20.0,52.0,165.0,24.0,1.0
639700,-0.0074680000000000015,-1.320419,-0.383967,0.06978200000000001,0.344169,0.064149,0.0,20.0,52.0,165.0,24.0,1.0
639701,-0.080575,-1.294632,-0.458704,0.08355900000000001,0.597004,0.330193,0.0,20.0,52.0,165.0,24.0,1.0
639702,-0.149971,-1.268151,-0.513624,0.150118,0.940468,0.22723,0.0,20.0,52.0,165.0,24.0,1.0
639703,-0.218335,-1.238653,-0.5442229999999999,0.213979,0.8646370000000001,0.160376,0.0,20.0,52.0,165.0,24.0,1.0
639704,-0.278463,-1.206311,-0.557623,0.043963,0.341999,0.082493,0.0,20.0,52.0,165.0,24.0,1.0
639705,-0.331956,-1.172625,-0.570866,0.04835,0.286191,0.103502,0.0,20.0,52.0,165.0,24.0,1.0
639706,-0.357287,-1.140611,-0.5763159999999999,0.033542,0.243516,0.08168099999999999,0.0,20.0,52.0,165.0,24.0,1.0
639707,-0.367257,-1.113909,-0.568806,-0.058554,0.032898000000000004,0.157391,0.0,20.0,52.0,165.0,24.0,1.0
639708,-0.374363,-1.096602,-0.552553,0.01118,0.099399,0.203258,0.0,20.0,52.0,165.0,24.0,1.0
639709,-0.382002,-1.086911,-0.5361279999999999,0.171558,0.106795,0.271108,0.0,20.0,52.0,165.0,24.0,1.0
639710,-0.400904,-1.0810959999999998,-0.528624,-0.037333,-0.223004,0.229181,0.0,20.0,52.0,165.0,24.0,1.0
639711,-0.418499,-1.078127,-0.5263760000000001,-0.075202,-0.175537,0.228581,0.0,20.0,52.0,165.0,24.0,1.0
639712,-0.424638,-1.081335,-0.525061,-0.15353699999999998,-0.104571,0.199852,0.0,20.0,52.0,165.0,24.0,1.0
639713,-0.42007,-1.089801,-0.521098,-0.133511,-0.128677,0.13935899999999998,0.0,20.0,52.0,165.0,24.0,1.0
639714,-0.408941,-1.100001,-0.516104,-0.037718,-0.116626,0.113705,0.0,20.0,52.0,165.0,24.0,1.0
639715,-0.392004,-1.112293,-0.510888,0.038869,-0.111606,0.08897999999999999,0.0,20.0,52.0,165.0,24.0,1.0
639716,-0.369673,-1.128659,-0.503678,0.020098,-0.12114,0.072429,0.0,20.0,52.0,165.0,24.0,1.0
639717,-0.343965,-1.150179,-0.495501,-0.036703,-0.119899,0.08663,0.0,20.0,52.0,165.0,24.0,1.0
639718,-0.31048600000000004,-1.175562,-0.483705,-0.084109,-0.115442,0.098195,0.0,20.0,52.0,165.0,24.0,1.0
639719,-0.267722,-1.204027,-0.465758,-0.087547,-0.11101099999999997,0.07789199999999999,0.0,20.0,52.0,165.0,24.0,1.0
639720,-0.223209,-1.236137,-0.444308,-0.021798,-0.106388,0.08870800000000001,0.0,20.0,52.0,165.0,24.0,1.0
639721,-0.178704,-1.270636,-0.418737,0.064103,-0.140317,0.116757,0.0,20.0,52.0,165.0,24.0,1.0
639722,-0.124776,-1.302871,-0.384719,0.109435,-0.180814,0.175239,0.0,20.0,52.0,165.0,24.0,1.0
639723,-0.061981,-1.327536,-0.346342,0.008921,-0.212455,0.106336,0.0,20.0,52.0,165.0,24.0,1.0
639724,0.006124,-1.343828,-0.302532,-0.066014,-0.16658299999999998,-0.02325,0.0,20.0,52.0,165.0,24.0,1.0
639725,0.083745,-1.354266,-0.247349,-0.070641,-0.155116,-0.180545,0.0,20.0,52.0,165.0,24.0,1.0
639726,0.163108,-1.360463,-0.189586,-0.090217,-0.184245,-0.201896,0.0,20.0,52.0,165.0,24.0,1.0
639727,0.225497,-1.36135,-0.14304,-0.066514,-0.135754,-0.096949,0.0,20.0,52.0,165.0,24.0,1.0
639728,0.273356,-1.357847,-0.108853,-0.054816,-0.033351,-0.086508,0.0,20.0,52.0,165.0,24.0,1.0
639729,0.324461,-1.354101,-0.078789,-0.111452,0.008967000000000001,-0.158331,0.0,20.0,52.0,165.0,24.0,1.0
639730,0.376583,-1.352429,-0.048746,-0.15068099999999998,-0.046321,-0.138106,0.0,20.0,52.0,165.0,24.0,1.0
639731,0.406083,-1.350556,-0.032811,-0.16388599999999998,-0.17843599999999998,-0.02575,0.0,20.0,52.0,165.0,24.0,1.0
639732,0.41524,-1.348819,-0.032074,-0.086189,0.257095,0.010312,0.0,20.0,52.0,165.0,24.0,1.0
639733,0.437982,-1.349893,-0.0188,-0.009216,0.542244,-0.047076,0.0,20.0,52.0,165.0,24.0,1.0
639734,0.500173,-1.356634,0.038278,0.288095,0.840899,-0.03835,0.0,20.0,52.0,165.0,24.0,1.0
639735,0.548638,-1.359164,0.08314099999999999,-0.092148,0.151782,0.185997,0.0,20.0,52.0,165.0,24.0,1.0
639736,0.549562,-1.354343,0.06675299999999999,-0.15933599999999998,-0.036785000000000005,0.207143,0.0,20.0,52.0,165.0,24.0,1.0
639737,0.5444180000000001,-1.355533,0.055299,0.249925,0.041406,0.136562,0.0,20.0,52.0,165.0,24.0,1.0
639738,0.570191,-1.3556860000000002,0.081462,0.473423,0.495993,0.14776199999999998,0.0,20.0,52.0,165.0,24.0,1.0
639739,0.639131,-1.358776,0.138827,0.412753,0.73423,0.166898,0.0,20.0,52.0,165.0,24.0,1.0
639740,0.745263,-1.362758,0.233431,0.17538900000000002,0.681779,0.012797,0.0,20.0,52.0,165.0,24.0,1.0
639741,0.853442,-1.366329,0.356921,0.010602,-0.145215,0.020324,0.0,20.0,52.0,165.0,24.0,1.0
639742,0.935175,-1.365746,0.445306,-0.143414,-0.15413,0.008079000000000001,0.0,20.0,52.0,165.0,24.0,1.0
639743,0.984047,-1.362136,0.474979,-0.122662,-0.132011,0.185375,0.0,20.0,52.0,165.0,24.0,1.0
639744,1.029735,-1.361067,0.493831,0.06437799999999999,-0.038634,0.311828,0.0,20.0,52.0,165.0,24.0,1.0
639745,1.079165,-1.361065,0.528487,0.076448,-0.074568,0.288234,0.0,20.0,52.0,165.0,24.0,1.0
639746,1.130782,-1.361423,0.5799850000000001,0.058039,0.015293,-0.238253,0.0,20.0,52.0,165.0,24.0,1.0
639747,1.175673,-1.361642,0.6333850000000001,0.042186,0.013263999999999998,-0.249151,0.0,20.0,52.0,165.0,24.0,1.0
639748,1.20498,-1.361826,0.671067,0.034085000000000004,-0.0017739999999999995,-0.190167,0.0,20.0,52.0,165.0,24.0,1.0
639749,1.229248,-1.363033,0.700573,0.003058,0.006308,0.002272,0.0,20.0,52.0,165.0,24.0,1.0
639750,1.254792,-1.365025,0.7344729999999999,-0.015282,-0.017797999999999998,-0.087564,0.0,20.0,52.0,165.0,24.0,1.0
639751,1.275815,-1.366999,0.767262,-0.026167000000000003,-0.054027,-0.137052,0.0,20.0,52.0,165.0,24.0,1.0
639752,1.280937,-1.368895,0.783742,-0.003339,0.011524,-0.178782,0.0,20.0,52.0,165.0,24.0,1.0
639753,1.270526,-1.371015,0.784292,0.071763,-0.018761,-0.0804,0.0,20.0,52.0,165.0,24.0,1.0
639754,1.249869,-1.37293,0.776746,0.089887,-0.031833999999999994,-0.030596,0.0,20.0,52.0,165.0,24.0,1.0
639755,1.21805,-1.37246,0.75995,-0.013199,-0.094425,0.025773,0.0,20.0,52.0,165.0,24.0,1.0
639756,1.199183,-1.372762,0.7597149999999999,-0.126948,-0.144899,0.003995,0.0,20.0,52.0,165.0,24.0,1.0
639757,1.185178,-1.375993,0.7648659999999999,-0.146263,-0.139045,-0.043237,0.0,20.0,52.0,165.0,24.0,1.0
639758,1.152678,-1.380665,0.747929,-0.057167,-0.08433500000000001,-0.064687,0.0,20.0,52.0,165.0,24.0,1.0
639759,1.09194,-1.387773,0.6987439999999999,-0.051089,-0.151114,0.013219,0.0,20.0,52.0,165.0,24.0,1.0
639760,1.020653,-1.394282,0.633375,-0.057908,-0.191997,0.035152,0.0,20.0,52.0,165.0,24.0,1.0
639761,0.943946,-1.399507,0.558286,-0.084856,-0.193541,-0.120046,0.0,20.0,52.0,165.0,24.0,1.0
639762,0.865851,-1.403224,0.481768,0.01,-0.146546,-0.048131,0.0,20.0,52.0,165.0,24.0,1.0
639763,0.815395,-1.406482,0.42859,0.05419,-0.13655499999999998,-0.052978,0.0,20.0,52.0,165.0,24.0,1.0
639764,0.771626,-1.409774,0.387976,0.045209,-0.244464,-0.06548,0.0,20.0,52.0,165.0,24.0,1.0
639765,0.731483,-1.4150120000000002,0.35167800000000005,-0.014566999999999997,-0.194982,-0.232539,0.0,20.0,52.0,165.0,24.0,1.0
639766,0.6888989999999999,-1.424312,0.315729,0.059764,-0.042116,-0.171278,0.0,20.0,52.0,165.0,24.0,1.0
639767,0.6701020000000001,-1.437389,0.299719,0.198041,-0.00178,-0.198018,0.0,20.0,52.0,165.0,24.0,1.0
639768,0.665488,-1.449218,0.297028,0.271445,-0.001316,-0.171945,0.0,20.0,52.0,165.0,24.0,1.0
639769,0.665684,-1.456212,0.298678,0.180289,-0.048054,-0.247722,0.0,20.0,52.0,165.0,24.0,1.0
639770,0.660895,-1.455594,0.299291,-0.014817,0.023673,-0.362378,0.0,20.0,52.0,165.0,24.0,1.0
639771,0.672231,-1.455893,0.320727,0.013138999999999998,-0.116453,-0.244734,0.0,20.0,52.0,165.0,24.0,1.0
639772,0.67328,-1.461286,0.321279,0.22162,-0.002951,-0.035883,0.0,20.0,52.0,165.0,24.0,1.0
639773,0.611402,-1.465459,0.24650500000000006,0.235119,0.371967,0.16374,0.0,20.0,52.0,165.0,24.0,1.0
639774,0.498381,-1.460687,0.112118,-0.182112,0.229567,0.083465,0.0,20.0,52.0,165.0,24.0,1.0
639775,0.330924,-1.44977,-0.060724,-0.35648,0.183416,-0.105537,0.0,20.0,52.0,165.0,24.0,1.0
639776,0.169818,-1.433027,-0.196446,0.388727,0.968704,0.019912,0.0,20.0,52.0,165.0,24.0,1.0
639777,0.07797799999999999,-1.408317,-0.261391,0.6996979999999999,1.532061,0.13206600000000002,0.0,20.0,52.0,165.0,24.0,1.0
639778,0.08444,-1.381962,-0.241735,0.042704,0.802612,0.119179,0.0,20.0,52.0,165.0,24.0,1.0
639779,0.066834,-1.359537,-0.219733,-0.091989,0.14363099999999998,0.248646,0.0,20.0,52.0,165.0,24.0,1.0
639780,0.024347,-1.337507,-0.197346,0.196247,0.012776,0.270339,0.0,20.0,52.0,165.0,24.0,1.0
639781,-0.014431,-1.317428,-0.17304,0.232392,0.128301,0.239579,0.0,20.0,52.0,165.0,24.0,1.0
639782,-0.059617,-1.303605,-0.154172,0.119703,-0.064675,0.345573,0.0,20.0,52.0,165.0,24.0,1.0
639783,-0.127422,-1.295225,-0.144609,0.04614,-0.29959600000000003,0.563016,0.0,20.0,52.0,165.0,24.0,1.0
639784,-0.214988,-1.286192,-0.147612,0.06345,-0.317912,0.556958,0.0,20.0,52.0,165.0,24.0,1.0
639785,-0.301234,-1.274263,-0.15742799999999998,0.189565,-0.21136,0.433841,0.0,20.0,52.0,165.0,24.0,1.0
639786,-0.35822,-1.262634,-0.162851,0.042842,-0.070507,0.15627,0.0,20.0,52.0,165.0,24.0,1.0
639787,-0.40018,-1.257469,-0.166941,-0.033738,-0.008458,0.14739100000000002,0.0,20.0,52.0,165.0,24.0,1.0
639788,-0.417581,-1.253874,-0.152947,-0.107677,0.0035670000000000007,0.121117,0.0,20.0,52.0,165.0,24.0,1.0
639789,-0.414453,-1.248701,-0.11998699999999997,-0.053566,0.056064,0.084274,0.0,20.0,52.0,165.0,24.0,1.0
639790,-0.396556,-1.243297,-0.078001,-0.050598,0.021366,0.08415299999999999,0.0,20.0,52.0,165.0,24.0,1.0
639791,-0.372838,-1.240457,-0.036174,-0.093983,-0.121729,0.070278,0.0,20.0,52.0,165.0,24.0,1.0
639792,-0.349951,-1.2428549999999998,0.001357,-0.062901,-0.121497,0.081787,0.0,20.0,52.0,165.0,24.0,1.0
639793,-0.327106,-1.251242,0.036466000000000005,0.050971,-0.104115,0.204433,0.0,20.0,52.0,165.0,24.0,1.0
639794,-0.311264,-1.263833,0.064864,0.028082,-0.099969,0.180354,0.0,20.0,52.0,165.0,24.0,1.0
639795,-0.303159,-1.280858,0.083616,-0.016831,-0.08906,0.115131,0.0,20.0,52.0,165.0,24.0,1.0
639796,-0.294427,-1.300055,0.097197,-0.129627,-0.003993,-0.06414299999999999,0.0,20.0,52.0,165.0,24.0,1.0
639797,-0.281331,-1.317316,0.114303,-0.020839,0.121173,-0.184864,0.0,20.0,52.0,165.0,24.0,1.0
639798,-0.279495,-1.327789,0.128323,0.026378,0.224175,-0.362696,0.0,20.0,52.0,165.0,24.0,1.0
639799,-0.296157,-1.321693,0.130359,-0.034199,0.264112,-0.4568100000000001,0.0,20.0,52.0,165.0,24.0,1.0
639800,-0.30342800000000003,-1.299773,0.140286,-0.072299,-0.119824,-0.459215,0.0,20.0,52.0,165.0,24.0,1.0
639801,-0.305665,-1.282961,0.164882,0.142547,-0.38455,-0.06564099999999999,0.0,20.0,52.0,165.0,24.0,1.0
639802,-0.318605,-1.284958,0.20639,0.26907,-0.392806,0.029084,0.0,20.0,52.0,165.0,24.0,1.0
639803,-0.303869,-1.296455,0.268712,0.101652,0.064862,-0.016869,0.0,20.0,52.0,165.0,24.0,1.0
639804,-0.241655,-1.30944,0.353284,-0.123276,0.382608,-0.017546,0.0,20.0,52.0,165.0,24.0,1.0
639805,-0.166702,-1.320239,0.441909,-0.223542,0.4895390000000001,0.011246,0.0,20.0,52.0,165.0,24.0,1.0
639806,-0.127931,-1.329735,0.5044069999999999,-0.101779,0.8911889999999999,0.360073,0.0,20.0,52.0,165.0,24.0,1.0
639807,-0.147982,-1.338831,0.504236,-0.069869,0.176121,0.372883,0.0,20.0,52.0,165.0,24.0,1.0
639808,-0.20036,-1.344841,0.463133,-0.093022,-0.253969,0.266152,0.0,20.0,52.0,165.0,24.0,1.0
639809,-0.25800500000000004,-1.351124,0.415469,0.155505,-0.606294,0.231811,0.0,20.0,52.0,165.0,24.0,1.0
639810,-0.273185,-1.364983,0.398897,0.410031,-0.221876,0.361069,0.0,20.0,52.0,165.0,24.0,1.0
639811,-0.217965,-1.394686,0.423923,0.531421,-0.00057,0.294178,0.0,20.0,52.0,165.0,24.0,1.0
639812,-0.105621,-1.426018,0.502413,0.609854,0.267588,-0.075265,0.0,20.0,52.0,165.0,24.0,1.0
639813,-0.0033,-1.443461,0.597163,0.407172,0.183786,-0.148225,0.0,20.0,52.0,165.0,24.0,1.0
639814,0.069367,-1.454442,0.6896100000000001,0.013337,0.022905,-0.046283,0.0,20.0,52.0,165.0,24.0,1.0
639815,0.225955,-1.463996,0.8542040000000001,-0.089125,-0.113473,0.142517,0.0,20.0,52.0,165.0,24.0,1.0
639816,0.405226,-1.470925,1.018018,-0.026377,-0.143622,0.257272,0.0,20.0,52.0,165.0,24.0,1.0
639817,0.594565,-1.482169,1.171302,0.095192,-0.055493,0.193889,0.0,20.0,52.0,165.0,24.0,1.0
639818,0.8068310000000001,-1.4971290000000002,1.350868,0.083525,0.058285,0.143923,0.0,20.0,52.0,165.0,24.0,1.0
639819,0.957675,-1.5083540000000002,1.483937,0.04723,0.052364,0.035212,0.0,20.0,52.0,165.0,24.0,1.0
639820,0.969157,-1.512592,1.494583,0.108227,-0.054276,-0.023136,0.0,20.0,52.0,165.0,24.0,1.0
639821,0.966096,-1.512824,1.501035,0.257629,-0.064726,-0.038015,0.0,20.0,52.0,165.0,24.0,1.0
639822,1.078519,-1.513921,1.62497,0.355846,-0.05394,0.040352,0.0,20.0,52.0,165.0,24.0,1.0
639823,1.313699,-1.515399,1.868232,0.238828,-0.024284,0.125454,0.0,20.0,52.0,165.0,24.0,1.0
639824,1.5786870000000002,-1.511366,2.14141,0.11791300000000003,-0.06473200000000001,0.089712,0.0,20.0,52.0,165.0,24.0,1.0
639825,1.783125,-1.501837,2.360409,0.056765,-0.174946,-0.050027,0.0,20.0,52.0,165.0,24.0,1.0
639826,1.956734,-1.490057,2.554278,0.055496,-0.135124,-0.086906,0.0,20.0,52.0,165.0,24.0,1.0
639827,2.066049,-1.4736049999999998,2.68549,0.049619,0.047322,-0.08647200000000001,0.0,20.0,52.0,165.0,24.0,1.0
639828,2.161393,-1.460255,2.798416,-0.011046,0.014679,-0.168464,0.0,20.0,52.0,165.0,24.0,1.0
639829,2.238543,-1.448616,2.894651,0.000789,-0.015067,-0.195943,0.0,20.0,52.0,165.0,24.0,1.0
