,attitude.roll,attitude.pitch,attitude.yaw,userAcceleration.x,userAcceleration.y,userAcceleration.z,act,id,weight,height,age,gender
678827,0.960436,-1.058458,1.158251,0.269888,-0.027057,0.08294,0.0,21.0,100.0,186.0,31.0,1.0
678828,0.999634,-1.089222,1.194643,0.087112,-0.129858,-0.168264,0.0,21.0,100.0,186.0,31.0,1.0
678829,1.042415,-1.111002,1.234495,-0.04205,0.044103,-0.177823,0.0,21.0,100.0,186.0,31.0,1.0
678830,1.079796,-1.123935,1.262053,-0.235202,0.066652,-0.382033,0.0,21.0,100.0,186.0,31.0,1.0
678831,1.083843,-1.126533,1.255087,-0.275196,-0.142353,-0.110917,0.0,21.0,100.0,186.0,31.0,1.0
678832,1.070399,-1.122906,1.230378,-0.249298,-0.121577,0.037557,0.0,21.0,100.0,186.0,31.0,1.0
678833,1.062967,-1.122413,1.212973,-0.24378200000000005,-0.155834,-0.191664,0.0,21.0,100.0,186.0,31.0,1.0
678834,1.0831879999999998,-1.130418,1.225877,-0.145589,-0.09473,0.072745,0.0,21.0,100.0,186.0,31.0,1.0
678835,1.105403,-1.144253,1.240749,-0.015222,0.325454,0.157451,0.0,21.0,100.0,186.0,31.0,1.0
678836,1.106519,-1.156486,1.238803,0.417057,0.301281,0.114379,0.0,21.0,100.0,186.0,31.0,1.0
678837,1.148059,-1.160007,1.272101,0.395978,0.261997,-0.251107,0.0,21.0,100.0,186.0,31.0,1.0
678838,1.1971889999999998,-1.161717,1.31456,0.06627000000000001,0.13941199999999998,0.153044,0.0,21.0,100.0,186.0,31.0,1.0
678839,1.221561,-1.166325,1.339969,-0.028381,0.05922,0.513332,0.0,21.0,100.0,186.0,31.0,1.0
678840,1.248744,-1.175514,1.363482,-0.07281,0.363764,0.072056,0.0,21.0,100.0,186.0,31.0,1.0
678841,1.226442,-1.190546,1.3484,0.23975900000000006,0.648165,-0.086392,0.0,21.0,100.0,186.0,31.0,1.0
678842,1.174863,-1.205055,1.295523,0.285624,0.614801,-0.094617,0.0,21.0,100.0,186.0,31.0,1.0
678843,1.160049,-1.207516,1.2701,-0.178115,0.029497,0.365133,0.0,21.0,100.0,186.0,31.0,1.0
678844,1.163489,-1.2106629999999998,1.270127,-0.251689,0.011553,0.340796,0.0,21.0,100.0,186.0,31.0,1.0
678845,1.180307,-1.219464,1.28289,-0.253518,0.180729,0.250438,0.0,21.0,100.0,186.0,31.0,1.0
678846,1.193285,-1.226909,1.290639,-0.03236,0.05880800000000001,0.212421,0.0,21.0,100.0,186.0,31.0,1.0
678847,1.200175,-1.232492,1.293405,0.058565,-0.046301,0.13330999999999998,0.0,21.0,100.0,186.0,31.0,1.0
678848,1.20653,-1.238353,1.300067,0.080221,-0.083599,0.136755,0.0,21.0,100.0,186.0,31.0,1.0
678849,1.219305,-1.245103,1.31061,0.074443,-0.150081,-0.08861799999999999,0.0,21.0,100.0,186.0,31.0,1.0
678850,1.221228,-1.251515,1.310482,-0.158656,-0.212172,-0.31279,0.0,21.0,100.0,186.0,31.0,1.0
678851,1.219722,-1.255046,1.307302,-0.162974,-0.22238400000000005,-0.28170100000000003,0.0,21.0,100.0,186.0,31.0,1.0
678852,1.216667,-1.25752,1.305208,-0.153679,-0.313649,0.024831,0.0,21.0,100.0,186.0,31.0,1.0
678853,1.214099,-1.26298,1.295328,-0.103686,-0.148112,0.096542,0.0,21.0,100.0,186.0,31.0,1.0
678854,1.2030299999999998,-1.271554,1.269494,-0.094863,-0.150674,0.096736,0.0,21.0,100.0,186.0,31.0,1.0
678855,1.170297,-1.2879969999999998,1.210338,0.15163800000000002,-0.08334,0.074744,0.0,21.0,100.0,186.0,31.0,1.0
678856,1.125343,-1.302856,1.1312799999999998,0.158887,-0.007989,0.06607400000000001,0.0,21.0,100.0,186.0,31.0,1.0
678857,1.090086,-1.3078809999999998,1.064282,0.167356,-0.009307,0.072181,0.0,21.0,100.0,186.0,31.0,1.0
678858,1.074088,-1.303965,1.028921,0.263809,-0.019879,-0.000884,0.0,21.0,100.0,186.0,31.0,1.0
678859,1.045867,-1.292623,0.992191,0.275556,-0.136821,0.024479,0.0,21.0,100.0,186.0,31.0,1.0
678860,1.004908,-1.274703,0.94808,0.285725,-0.018556,0.045033,0.0,21.0,100.0,186.0,31.0,1.0
678861,0.958745,-1.249893,0.902654,0.333322,0.270943,0.029531,0.0,21.0,100.0,186.0,31.0,1.0
678862,0.907195,-1.213734,0.854182,0.285986,0.536659,-0.11225999999999997,0.0,21.0,100.0,186.0,31.0,1.0
678863,0.8591719999999999,-1.16746,0.807996,0.13153,0.504239,-0.162615,0.0,21.0,100.0,186.0,31.0,1.0
678864,0.830791,-1.120417,0.780954,-0.183423,0.632494,-0.142562,0.0,21.0,100.0,186.0,31.0,1.0
678865,0.818938,-1.082509,0.77231,-0.224603,0.616786,0.109034,0.0,21.0,100.0,186.0,31.0,1.0
678866,0.818745,-1.054142,0.773953,-0.223745,0.434097,0.169906,0.0,21.0,100.0,186.0,31.0,1.0
678867,0.829551,-1.033265,0.783281,-0.224445,0.236392,0.178203,0.0,21.0,100.0,186.0,31.0,1.0
678868,0.847774,-1.020252,0.798184,-0.122606,0.244028,0.093547,0.0,21.0,100.0,186.0,31.0,1.0
678869,0.8620329999999999,-1.010494,0.810924,-0.208763,0.187573,0.112877,0.0,21.0,100.0,186.0,31.0,1.0
678870,0.8745569999999999,-1.003414,0.823333,-0.22243,0.066846,0.248522,0.0,21.0,100.0,186.0,31.0,1.0
678871,0.880774,-0.998483,0.83306,-0.252654,-0.099974,0.291197,0.0,21.0,100.0,186.0,31.0,1.0
678872,0.879359,-0.996958,0.836894,-0.321818,-0.111704,0.268619,0.0,21.0,100.0,186.0,31.0,1.0
678873,0.871618,-1.001906,0.837724,-0.4179600000000001,-0.305924,0.192155,0.0,21.0,100.0,186.0,31.0,1.0
678874,0.8597049999999999,-1.014082,0.8406950000000001,-0.437874,-0.396847,0.163114,0.0,21.0,100.0,186.0,31.0,1.0
678875,0.8509610000000001,-1.031929,0.851022,-0.386339,-0.4422140000000001,0.158999,0.0,21.0,100.0,186.0,31.0,1.0
678876,0.839483,-1.056993,0.855348,-0.274382,-0.390016,0.113089,0.0,21.0,100.0,186.0,31.0,1.0
678877,0.830925,-1.087329,0.8521700000000001,-0.272422,-0.458463,0.12775699999999998,0.0,21.0,100.0,186.0,31.0,1.0
678878,0.8273659999999999,-1.123788,0.8478700000000001,-0.048527,-0.337123,-0.027826,0.0,21.0,100.0,186.0,31.0,1.0
678879,0.819174,-1.1585450000000002,0.8439209999999999,0.27468000000000004,-0.121681,0.029061,0.0,21.0,100.0,186.0,31.0,1.0
678880,0.803635,-1.190112,0.838572,0.413576,-0.019368,0.030211,0.0,21.0,100.0,186.0,31.0,1.0
678881,0.790808,-1.216093,0.8402440000000001,0.23828,0.084208,-0.120301,0.0,21.0,100.0,186.0,31.0,1.0
678882,0.795151,-1.235943,0.8637239999999999,-0.040608,0.022537,-0.155529,0.0,21.0,100.0,186.0,31.0,1.0
678883,0.8253469999999999,-1.254877,0.90852,-0.132776,-0.11233,-0.195791,0.0,21.0,100.0,186.0,31.0,1.0
678884,0.8701270000000001,-1.2685030000000002,0.955813,-0.187478,-0.1592,-0.142478,0.0,21.0,100.0,186.0,31.0,1.0
678885,0.910704,-1.272491,0.98085,-0.492421,-0.033106000000000003,-0.055723,0.0,21.0,100.0,186.0,31.0,1.0
678886,0.926876,-1.2747,0.986633,-0.57696,0.219848,-0.527382,0.0,21.0,100.0,186.0,31.0,1.0
678887,0.913091,-1.2854290000000002,0.993535,-0.152692,0.110052,-0.217706,0.0,21.0,100.0,186.0,31.0,1.0
678888,0.915122,-1.294022,1.01416,0.6458619999999999,0.031253,0.8391850000000001,0.0,21.0,100.0,186.0,31.0,1.0
678889,0.941297,-1.284915,1.039618,0.49342,0.641813,0.023425,0.0,21.0,100.0,186.0,31.0,1.0
678890,0.97626,-1.259679,1.042509,0.451356,0.863224,-0.59032,0.0,21.0,100.0,186.0,31.0,1.0
678891,0.980352,-1.240787,1.054512,0.215486,0.280569,0.155059,0.0,21.0,100.0,186.0,31.0,1.0
678892,0.958256,-1.224097,1.056227,-0.164301,0.085837,0.345185,0.0,21.0,100.0,186.0,31.0,1.0
678893,0.937742,-1.210679,1.053313,-0.4399,-0.086857,0.542529,0.0,21.0,100.0,186.0,31.0,1.0
678894,0.926816,-1.206923,1.057459,-0.498704,-0.077317,0.529755,0.0,21.0,100.0,186.0,31.0,1.0
678895,0.938374,-1.215617,1.071322,0.089715,0.383094,0.014713,0.0,21.0,100.0,186.0,31.0,1.0
678896,0.946438,-1.229199,1.0877629999999998,0.098424,0.378458,0.004981,0.0,21.0,100.0,186.0,31.0,1.0
678897,0.953817,-1.240851,1.100732,0.229617,0.220002,-0.037925,0.0,21.0,100.0,186.0,31.0,1.0
678898,0.953254,-1.246244,1.099873,-0.144317,-0.0077,-0.12679400000000002,0.0,21.0,100.0,186.0,31.0,1.0
678899,0.945611,-1.250321,1.083634,-0.139763,-0.008992,-0.127075,0.0,21.0,100.0,186.0,31.0,1.0
678900,0.931387,-1.256478,1.05804,-0.203268,-0.010654,-0.143537,0.0,21.0,100.0,186.0,31.0,1.0
678901,0.909025,-1.264572,1.023572,0.07209,-0.046679000000000005,-0.146495,0.0,21.0,100.0,186.0,31.0,1.0
678902,0.881325,-1.269489,0.974669,0.208633,-0.078729,-0.17711400000000002,0.0,21.0,100.0,186.0,31.0,1.0
678903,0.840305,-1.264402,0.911665,0.390304,-0.18031,-0.185853,0.0,21.0,100.0,186.0,31.0,1.0
678904,0.791179,-1.242326,0.844068,0.201948,-0.183323,-0.199825,0.0,21.0,100.0,186.0,31.0,1.0
678905,0.75083,-1.201836,0.782288,0.047993,-0.16279000000000002,-0.200196,0.0,21.0,100.0,186.0,31.0,1.0
678906,0.718792,-1.14781,0.732711,-0.13548,0.083036,0.049116,0.0,21.0,100.0,186.0,31.0,1.0
678907,0.692987,-1.086844,0.7028399999999999,-0.104273,0.315475,0.363434,0.0,21.0,100.0,186.0,31.0,1.0
678908,0.672237,-1.031424,0.693016,-0.04397,0.308213,0.574412,0.0,21.0,100.0,186.0,31.0,1.0
678909,0.6490520000000001,-0.988294,0.683449,0.063721,0.081827,0.5774859999999999,0.0,21.0,100.0,186.0,31.0,1.0
678910,0.623283,-0.955195,0.672186,-0.300727,0.246348,0.318674,0.0,21.0,100.0,186.0,31.0,1.0
678911,0.61436,-0.930625,0.66346,-0.357765,0.407677,0.302938,0.0,21.0,100.0,186.0,31.0,1.0
678912,0.6183810000000001,-0.915973,0.65882,-0.248153,0.408581,0.289908,0.0,21.0,100.0,186.0,31.0,1.0
678913,0.6419100000000001,-0.911928,0.6696449999999999,-0.204091,0.208124,0.185046,0.0,21.0,100.0,186.0,31.0,1.0
678914,0.677728,-0.921615,0.694176,-0.202344,0.075614,0.167447,0.0,21.0,100.0,186.0,31.0,1.0
678915,0.721246,-0.943437,0.723671,-0.250191,-0.279109,0.093083,0.0,21.0,100.0,186.0,31.0,1.0
678916,0.7680520000000001,-0.974748,0.754412,-0.205542,-0.379501,0.057889,0.0,21.0,100.0,186.0,31.0,1.0
678917,0.808735,-1.01561,0.780077,-0.091178,-0.427195,0.003166,0.0,21.0,100.0,186.0,31.0,1.0
678918,0.835167,-1.067935,0.7953979999999999,0.334543,-0.157076,0.098317,0.0,21.0,100.0,186.0,31.0,1.0
678919,0.8496940000000001,-1.129642,0.802182,0.5430010000000001,0.11666,0.101948,0.0,21.0,100.0,186.0,31.0,1.0
678920,0.862776,-1.186924,0.816751,0.656044,0.414408,0.098456,0.0,21.0,100.0,186.0,31.0,1.0
678921,0.8919440000000001,-1.227621,0.85851,-0.003281,-0.083583,-0.392156,0.0,21.0,100.0,186.0,31.0,1.0
678922,0.926004,-1.249832,0.90598,-0.021709,-0.183108,-0.562879,0.0,21.0,100.0,186.0,31.0,1.0
678923,0.964521,-1.265539,0.972372,-0.039614,-0.36005,0.085565,0.0,21.0,100.0,186.0,31.0,1.0
678924,0.996773,-1.2723719999999998,1.031589,-0.478844,-0.648031,-0.35988400000000004,0.0,21.0,100.0,186.0,31.0,1.0
678925,1.004393,-1.279711,1.081315,-0.482244,-0.308046,-0.151321,0.0,21.0,100.0,186.0,31.0,1.0
678926,0.938337,-1.275819,1.0517459999999998,-0.192956,-0.025901,0.4738,0.0,21.0,100.0,186.0,31.0,1.0
678927,0.920241,-1.273718,1.050542,0.295149,1.539959,0.061996,0.0,21.0,100.0,186.0,31.0,1.0
678928,0.968867,-1.266731,1.0801379999999998,0.35193800000000003,0.294103,-0.112244,0.0,21.0,100.0,186.0,31.0,1.0
678929,1.026497,-1.256882,1.124629,-0.156699,-0.317954,0.402884,0.0,21.0,100.0,186.0,31.0,1.0
678930,1.067712,-1.251047,1.16444,0.040316000000000005,0.320965,0.229758,0.0,21.0,100.0,186.0,31.0,1.0
678931,1.103167,-1.252302,1.201792,0.237643,0.918319,0.261158,0.0,21.0,100.0,186.0,31.0,1.0
678932,1.11179,-1.253975,1.213399,0.006568000000000001,0.335719,-0.043048,0.0,21.0,100.0,186.0,31.0,1.0
678933,1.095384,-1.255718,1.208419,-0.214907,0.281558,0.022678,0.0,21.0,100.0,186.0,31.0,1.0
678934,1.0714629999999998,-1.263647,1.1902780000000002,-0.324697,0.469729,-0.057457000000000015,0.0,21.0,100.0,186.0,31.0,1.0
678935,1.043594,-1.2756610000000002,1.158298,-0.27735,0.427683,-0.16653099999999998,0.0,21.0,100.0,186.0,31.0,1.0
678936,1.024237,-1.284974,1.121321,0.07823200000000001,0.023144,-0.247523,0.0,21.0,100.0,186.0,31.0,1.0
678937,1.015317,-1.288925,1.075469,0.082771,0.022038,-0.247381,0.0,21.0,100.0,186.0,31.0,1.0
678938,0.985683,-1.281958,1.002943,0.347258,-0.064502,-0.304012,0.0,21.0,100.0,186.0,31.0,1.0
678939,0.935139,-1.257518,0.914662,0.365992,-0.08583500000000001,-0.22863000000000006,0.0,21.0,100.0,186.0,31.0,1.0
678940,0.876225,-1.209754,0.816571,0.104085,-0.134519,-0.205899,0.0,21.0,100.0,186.0,31.0,1.0
678941,0.82419,-1.146785,0.7314579999999999,-0.303334,-0.236916,0.040581,0.0,21.0,100.0,186.0,31.0,1.0
678942,0.788058,-1.078976,0.6684869999999999,-0.470161,-0.29520100000000005,0.14691300000000002,0.0,21.0,100.0,186.0,31.0,1.0
678943,0.747893,-1.019189,0.623989,-0.412115,-0.318343,0.709527,0.0,21.0,100.0,186.0,31.0,1.0
678944,0.7138399999999999,-0.973883,0.597308,-0.423731,-0.293734,0.750188,0.0,21.0,100.0,186.0,31.0,1.0
678945,0.687762,-0.944911,0.57715,0.184854,0.061473,0.489976,0.0,21.0,100.0,186.0,31.0,1.0
678946,0.6661729999999999,-0.921209,0.554178,0.026449,0.379021,0.4811470000000001,0.0,21.0,100.0,186.0,31.0,1.0
678947,0.65105,-0.905817,0.53267,0.026299,0.388425,0.496438,0.0,21.0,100.0,186.0,31.0,1.0
678948,0.6328739999999999,-0.8999379999999999,0.510167,-0.298915,0.035712,0.435249,0.0,21.0,100.0,186.0,31.0,1.0
678949,0.6353270000000001,-0.905715,0.502341,-0.244794,0.028181,0.08831900000000001,0.0,21.0,100.0,186.0,31.0,1.0
678950,0.66094,-0.928407,0.51444,-0.246337,0.014382,0.064557,0.0,21.0,100.0,186.0,31.0,1.0
678951,0.697415,-0.973803,0.544075,0.253892,-0.024524,-0.244659,0.0,21.0,100.0,186.0,31.0,1.0
678952,0.740746,-1.042134,0.5770770000000001,0.41259,0.044812,-0.098905,0.0,21.0,100.0,186.0,31.0,1.0
678953,0.7887770000000001,-1.116957,0.6043729999999999,0.44191,0.009524,-0.16216,0.0,21.0,100.0,186.0,31.0,1.0
678954,0.844917,-1.186639,0.647609,0.455712,-0.172934,0.100713,0.0,21.0,100.0,186.0,31.0,1.0
678955,0.905047,-1.239339,0.7213350000000001,0.380722,-0.573941,-0.22264,0.0,21.0,100.0,186.0,31.0,1.0
678956,0.940314,-1.265396,0.794127,0.392776,-0.723899,-0.230631,0.0,21.0,100.0,186.0,31.0,1.0
678957,0.913865,-1.261764,0.810314,-0.666579,-0.638984,-0.561786,0.0,21.0,100.0,186.0,31.0,1.0
678958,0.8389719999999999,-1.253572,0.7994319999999999,-0.996841,-0.089875,-0.64084,0.0,21.0,100.0,186.0,31.0,1.0
678959,0.7350439999999999,-1.257685,0.7645270000000001,-1.009246,0.623861,0.112118,0.0,21.0,100.0,186.0,31.0,1.0
678960,0.7109989999999999,-1.269635,0.739911,0.008502,1.48707,-0.061397,0.0,21.0,100.0,186.0,31.0,1.0
678961,0.725648,-1.269166,0.71195,0.572499,0.053508000000000014,0.116086,0.0,21.0,100.0,186.0,31.0,1.0
678962,0.761342,-1.2670709999999998,0.7232569999999999,0.48316,-0.157568,0.412649,0.0,21.0,100.0,186.0,31.0,1.0
678963,0.785411,-1.267056,0.734993,0.7273430000000001,0.338821,0.103142,0.0,21.0,100.0,186.0,31.0,1.0
678964,0.789936,-1.262043,0.742043,0.197129,0.194321,0.108355,0.0,21.0,100.0,186.0,31.0,1.0
678965,0.743352,-1.260632,0.725896,0.062264,0.223452,0.229744,0.0,21.0,100.0,186.0,31.0,1.0
678966,0.6832189999999999,-1.268131,0.693318,-0.180118,0.332427,0.515121,0.0,21.0,100.0,186.0,31.0,1.0
678967,0.6238779999999999,-1.281021,0.640921,-0.253175,0.037358,0.201276,0.0,21.0,100.0,186.0,31.0,1.0
678968,0.560487,-1.295446,0.580641,-0.060039,-0.024403,0.239598,0.0,21.0,100.0,186.0,31.0,1.0
678969,0.499263,-1.3101459999999998,0.518595,0.13071,0.087046,0.12779100000000002,0.0,21.0,100.0,186.0,31.0,1.0
678970,0.444801,-1.321525,0.44937,0.160322,0.110955,-0.152411,0.0,21.0,100.0,186.0,31.0,1.0
678971,0.381364,-1.328264,0.372064,0.237662,0.100205,-0.165075,0.0,21.0,100.0,186.0,31.0,1.0
678972,0.307821,-1.331049,0.29133600000000004,0.536473,-0.129693,-0.046499,0.0,21.0,100.0,186.0,31.0,1.0
678973,0.229129,-1.327414,0.214817,0.6271220000000001,-0.188286,-0.008352,0.0,21.0,100.0,186.0,31.0,1.0
678974,0.156598,-1.315631,0.151223,0.656927,-0.195176,-0.01704,0.0,21.0,100.0,186.0,31.0,1.0
678975,0.10369,-1.295057,0.104312,0.428547,0.031581,-0.05735700000000001,0.0,21.0,100.0,186.0,31.0,1.0
678976,0.077044,-1.267162,0.094883,0.5184770000000001,0.091154,0.041638,0.0,21.0,100.0,186.0,31.0,1.0
678977,0.093224,-1.232206,0.13709200000000002,0.39387,0.093824,0.184893,0.0,21.0,100.0,186.0,31.0,1.0
678978,0.153045,-1.193168,0.222005,0.228077,0.373986,0.390644,0.0,21.0,100.0,186.0,31.0,1.0
678979,0.230516,-1.158658,0.32853000000000004,-0.105208,0.6532220000000001,0.631774,0.0,21.0,100.0,186.0,31.0,1.0
678980,0.32971,-1.131949,0.448582,-0.358224,0.766663,0.334423,0.0,21.0,100.0,186.0,31.0,1.0
678981,0.430513,-1.112214,0.560427,0.088023,0.80591,-0.130024,0.0,21.0,100.0,186.0,31.0,1.0
678982,0.5114029999999999,-1.101732,0.668239,0.596318,0.798087,0.008942,0.0,21.0,100.0,186.0,31.0,1.0
678983,0.596036,-1.091769,0.783017,0.75803,0.43679,0.308391,0.0,21.0,100.0,186.0,31.0,1.0
678984,0.68903,-1.080485,0.91531,0.298435,0.434388,0.437929,0.0,21.0,100.0,186.0,31.0,1.0
678985,0.762821,-1.067588,1.043128,0.042863,0.475874,0.335067,0.0,21.0,100.0,186.0,31.0,1.0
678986,0.789,-1.054529,1.147857,-0.151026,0.484428,0.302839,0.0,21.0,100.0,186.0,31.0,1.0
678987,0.793762,-1.0472860000000002,1.239118,-0.432413,0.123722,0.359361,0.0,21.0,100.0,186.0,31.0,1.0
678988,0.805565,-1.042254,1.331631,-0.331052,-0.070162,0.273702,0.0,21.0,100.0,186.0,31.0,1.0
678989,0.814747,-1.041008,1.428781,-0.292179,-0.152267,0.365599,0.0,21.0,100.0,186.0,31.0,1.0
678990,0.8153600000000001,-1.0445719999999998,1.518839,-0.280675,-0.393396,0.570385,0.0,21.0,100.0,186.0,31.0,1.0
678991,0.809608,-1.056239,1.595935,-0.5416380000000001,-0.379269,0.5031680000000001,0.0,21.0,100.0,186.0,31.0,1.0
678992,0.7962819999999999,-1.076882,1.6574060000000002,-0.5241640000000001,-0.389243,0.495246,0.0,21.0,100.0,186.0,31.0,1.0
678993,0.767478,-1.103826,1.69983,-0.488776,-0.020576,0.143327,0.0,21.0,100.0,186.0,31.0,1.0
678994,0.716493,-1.128738,1.719529,0.064599,0.226849,-0.097438,0.0,21.0,100.0,186.0,31.0,1.0
678995,0.6569699999999999,-1.144904,1.727038,0.093246,0.220051,-0.092911,0.0,21.0,100.0,186.0,31.0,1.0
678996,0.618795,-1.150474,1.7362240000000002,0.6449779999999999,0.000739,0.048711,0.0,21.0,100.0,186.0,31.0,1.0
678997,0.613701,-1.14848,1.758142,0.123822,0.078764,0.232704,0.0,21.0,100.0,186.0,31.0,1.0
678998,0.607773,-1.14654,1.7788240000000002,0.124802,0.079561,0.23555,0.0,21.0,100.0,186.0,31.0,1.0
678999,0.601648,-1.149,1.794834,-0.151609,-0.32605100000000004,0.207027,0.0,21.0,100.0,186.0,31.0,1.0
679000,0.607604,-1.153564,1.807441,0.156886,-0.174575,0.28946900000000003,0.0,21.0,100.0,186.0,31.0,1.0
679001,0.624649,-1.160906,1.817285,0.155181,-0.177525,0.280023,0.0,21.0,100.0,186.0,31.0,1.0
679002,0.651976,-1.184971,1.840228,0.097809,0.950923,-0.185765,0.0,21.0,100.0,186.0,31.0,1.0
679003,0.620203,-1.188322,1.82619,0.648142,1.724737,-0.8833850000000001,0.0,21.0,100.0,186.0,31.0,1.0
679004,0.584967,-1.178362,1.812138,0.00601,-0.226746,0.964704,0.0,21.0,100.0,186.0,31.0,1.0
679005,0.576584,-1.192699,1.811452,-0.464901,-0.371324,0.383578,0.0,21.0,100.0,186.0,31.0,1.0
679006,0.559747,-1.21864,1.7827939999999998,-0.4408760000000001,-0.113405,0.806651,0.0,21.0,100.0,186.0,31.0,1.0
679007,0.494764,-1.255087,1.720188,-0.318643,-0.02481,0.859186,0.0,21.0,100.0,186.0,31.0,1.0
679008,0.363968,-1.285125,1.61522,0.244062,0.39212,0.678768,0.0,21.0,100.0,186.0,31.0,1.0
679009,0.23925,-1.296886,1.512525,0.396473,0.188006,0.045101,0.0,21.0,100.0,186.0,31.0,1.0
679010,0.123672,-1.307507,1.42452,0.230989,-0.026269,0.115071,0.0,21.0,100.0,186.0,31.0,1.0
679011,0.019432,-1.323328,1.359255,-0.124083,-0.030128,0.448246,0.0,21.0,100.0,186.0,31.0,1.0
679012,-0.047094,-1.340589,1.320434,-0.090547,0.013182,0.250267,0.0,21.0,100.0,186.0,31.0,1.0
679013,-0.103232,-1.361356,1.280365,0.025299,0.029787,0.144611,0.0,21.0,100.0,186.0,31.0,1.0
679014,-0.173201,-1.3819709999999998,1.223882,0.32568,-0.110384,0.197071,0.0,21.0,100.0,186.0,31.0,1.0
679015,-0.275856,-1.402615,1.136728,0.283791,-0.143651,0.144119,0.0,21.0,100.0,186.0,31.0,1.0
679016,-0.42568,-1.420186,1.005783,0.207609,-0.125353,0.147815,0.0,21.0,100.0,186.0,31.0,1.0
679017,-0.605472,-1.430209,0.846984,0.048396,-0.131583,0.078788,0.0,21.0,100.0,186.0,31.0,1.0
679018,-0.7961550000000001,-1.432127,0.681371,0.089597,-0.132063,0.015733,0.0,21.0,100.0,186.0,31.0,1.0
679019,-0.968019,-1.429524,0.532874,0.10176,-0.080751,0.07523300000000001,0.0,21.0,100.0,186.0,31.0,1.0
679020,-1.118175,-1.423948,0.403259,0.136554,-0.000712,0.168654,0.0,21.0,100.0,186.0,31.0,1.0
679021,-1.252238,-1.414681,0.282983,0.23182,0.03859,0.154066,0.0,21.0,100.0,186.0,31.0,1.0
679022,-1.366251,-1.401867,0.173368,0.286594,0.07574299999999999,0.062313,0.0,21.0,100.0,186.0,31.0,1.0
679023,-1.453028,-1.388303,0.087906,0.34289200000000003,0.186558,0.003819,0.0,21.0,100.0,186.0,31.0,1.0
679024,-1.525225,-1.377112,0.021779,0.33021,0.21575,-0.029929,0.0,21.0,100.0,186.0,31.0,1.0
679025,-1.583288,-1.368265,-0.028791000000000008,0.463976,0.260552,-0.16897,0.0,21.0,100.0,186.0,31.0,1.0
679026,-1.608999,-1.360172,-0.042838,0.721197,0.068257,-0.170506,0.0,21.0,100.0,186.0,31.0,1.0
679027,-1.614704,-1.355202,-0.019982,0.953221,-0.025067,-0.026265,0.0,21.0,100.0,186.0,31.0,1.0
679028,-1.6041299999999998,-1.355369,0.027153,1.007756,0.023893,-0.019193,0.0,21.0,100.0,186.0,31.0,1.0
679029,-1.541859,-1.361446,0.119076,0.6290140000000001,0.412688,-0.094344,0.0,21.0,100.0,186.0,31.0,1.0
679030,-1.40104,-1.380042,0.293323,0.6327619999999999,0.32003400000000004,0.023239,0.0,21.0,100.0,186.0,31.0,1.0
679031,-1.168318,-1.400984,0.569769,0.5102720000000001,0.264979,-0.027013,0.0,21.0,100.0,186.0,31.0,1.0
679032,-0.799003,-1.408728,0.990279,0.167017,0.388486,-0.031507,0.0,21.0,100.0,186.0,31.0,1.0
679033,-0.391299,-1.389706,1.439858,-0.067228,0.435328,0.200439,0.0,21.0,100.0,186.0,31.0,1.0
679034,-0.096906,-1.35889,1.772964,-0.168678,0.49858,0.428317,0.0,21.0,100.0,186.0,31.0,1.0
679035,0.092696,-1.326914,1.997294,0.071537,0.467275,0.594,0.0,21.0,100.0,186.0,31.0,1.0
679036,0.219818,-1.300135,2.150671,0.371573,0.242827,0.35823,0.0,21.0,100.0,186.0,31.0,1.0
679037,0.325037,-1.278874,2.276958,0.506472,0.249858,0.198405,0.0,21.0,100.0,186.0,31.0,1.0
679038,0.43044,-1.255238,2.407117,0.440573,0.192077,0.271318,0.0,21.0,100.0,186.0,31.0,1.0
679039,0.530122,-1.224161,2.536845,0.01151,0.152313,0.326194,0.0,21.0,100.0,186.0,31.0,1.0
679040,0.619699,-1.186784,2.6663490000000003,-0.034296,0.165665,0.338069,0.0,21.0,100.0,186.0,31.0,1.0
679041,0.665365,-1.159822,2.780304,-0.072524,-0.103789,0.378473,0.0,21.0,100.0,186.0,31.0,1.0
679042,0.688161,-1.137736,2.882186,-0.135969,-0.153825,0.439144,0.0,21.0,100.0,186.0,31.0,1.0
679043,0.698876,-1.120154,2.969638,-0.194711,-0.220083,0.504178,0.0,21.0,100.0,186.0,31.0,1.0
679044,0.697465,-1.110533,3.040591,-0.355781,-0.264756,0.48312,0.0,21.0,100.0,186.0,31.0,1.0
679045,0.69152,-1.110365,3.104191,-0.37614,-0.26729,0.459169,0.0,21.0,100.0,186.0,31.0,1.0
679046,0.684584,-1.118951,-3.120701,-0.36739,-0.258423,0.439163,0.0,21.0,100.0,186.0,31.0,1.0
679047,0.6753979999999999,-1.134379,-3.068421,-0.390351,-0.30326,0.287318,0.0,21.0,100.0,186.0,31.0,1.0
679048,0.662643,-1.156851,-3.024614,-0.432854,-0.179274,0.176516,0.0,21.0,100.0,186.0,31.0,1.0
679049,0.64896,-1.190213,-2.989845,-0.390827,-0.073987,-0.057727,0.0,21.0,100.0,186.0,31.0,1.0
679050,0.622739,-1.228605,-2.972677,-0.057663,0.018199,-0.417554,0.0,21.0,100.0,186.0,31.0,1.0
679051,0.602508,-1.253025,-2.965416,1.177307,0.437761,-0.588325,0.0,21.0,100.0,186.0,31.0,1.0
679052,0.607729,-1.254193,-2.94429,1.11532,0.534168,-0.413329,0.0,21.0,100.0,186.0,31.0,1.0
679053,0.635739,-1.246286,-2.903897,0.166551,0.156883,-0.217119,0.0,21.0,100.0,186.0,31.0,1.0
679054,0.657083,-1.230861,-2.869353,-0.018779,-0.486523,0.230651,0.0,21.0,100.0,186.0,31.0,1.0
679055,0.676308,-1.209101,-2.838959,-0.35075500000000004,-0.797603,0.8940370000000001,0.0,21.0,100.0,186.0,31.0,1.0
679056,0.733383,-1.224322,-2.769548,-0.691983,-0.209863,-0.081053,0.0,21.0,100.0,186.0,31.0,1.0
679057,0.759664,-1.258902,-2.722502,0.429318,1.423398,-0.470337,0.0,21.0,100.0,186.0,31.0,1.0
679058,0.741203,-1.269224,-2.737092,0.8274959999999999,1.565897,-0.093881,0.0,21.0,100.0,186.0,31.0,1.0
679059,0.721458,-1.267293,-2.73889,-0.335876,-0.312907,0.364011,0.0,21.0,100.0,186.0,31.0,1.0
679060,0.717673,-1.278435,-2.730175,-0.480075,-0.15545699999999998,0.374463,0.0,21.0,100.0,186.0,31.0,1.0
679061,0.730151,-1.303921,-2.711855,-0.433959,-0.131821,0.473458,0.0,21.0,100.0,186.0,31.0,1.0
679062,0.715072,-1.335174,-2.706246,0.395543,0.26720900000000003,0.399611,0.0,21.0,100.0,186.0,31.0,1.0
679063,0.672791,-1.365548,-2.7132080000000003,0.68358,0.28380700000000003,0.190389,0.0,21.0,100.0,186.0,31.0,1.0
679064,0.658187,-1.385455,-2.699214,0.697868,0.279944,0.176775,0.0,21.0,100.0,186.0,31.0,1.0
679065,0.666084,-1.404855,-2.657678,-0.098559,-0.017483000000000002,0.254687,0.0,21.0,100.0,186.0,31.0,1.0
679066,0.707994,-1.429202,-2.588341,-0.202046,-0.006684999999999999,0.131187,0.0,21.0,100.0,186.0,31.0,1.0
679067,0.7692899999999999,-1.452533,-2.507868,-0.135182,-0.023929,0.10021,0.0,21.0,100.0,186.0,31.0,1.0
679068,0.867741,-1.472094,-2.399467,0.121831,-0.037156,-0.041782,0.0,21.0,100.0,186.0,31.0,1.0
679069,1.035666,-1.488632,-2.225445,0.111649,-0.056349,-0.051785000000000005,0.0,21.0,100.0,186.0,31.0,1.0
679070,1.268722,-1.500352,-1.986163,0.141353,-0.080009,-0.07153,0.0,21.0,100.0,186.0,31.0,1.0
679071,1.48577,-1.506392,-1.7627970000000002,0.142847,-0.211031,-0.096347,0.0,21.0,100.0,186.0,31.0,1.0
679072,1.642764,-1.510094,-1.597896,0.241259,-0.173619,-0.196603,0.0,21.0,100.0,186.0,31.0,1.0
679073,1.716451,-1.5130370000000002,-1.512306,0.292123,-0.228954,-0.207739,0.0,21.0,100.0,186.0,31.0,1.0
679074,1.681075,-1.513783,-1.534846,0.177368,-0.29738600000000004,-0.181816,0.0,21.0,100.0,186.0,31.0,1.0
679075,1.54027,-1.511197,-1.6609599999999998,0.080315,-0.26505500000000004,-0.161545,0.0,21.0,100.0,186.0,31.0,1.0
679076,1.396421,-1.505866,-1.790861,0.053587,-0.234572,-0.157744,0.0,21.0,100.0,186.0,31.0,1.0
679077,1.282326,-1.499561,-1.89437,-0.021919,-0.26286,-0.013855,0.0,21.0,100.0,186.0,31.0,1.0
679078,1.19035,-1.493498,-1.977398,-0.049514,-0.267201,-0.00975,0.0,21.0,100.0,186.0,31.0,1.0
679079,1.127637,-1.488658,-2.03878,0.031359,-0.15767,-0.117854,0.0,21.0,100.0,186.0,31.0,1.0
679080,1.08284,-1.486036,-2.087402,0.150082,-0.098552,-0.123554,0.0,21.0,100.0,186.0,31.0,1.0
679081,1.043006,-1.486337,-2.127037,0.252566,-0.099676,-0.015367,0.0,21.0,100.0,186.0,31.0,1.0
679082,0.995425,-1.4861540000000002,-2.169223,0.373031,-0.056067,0.028783,0.0,21.0,100.0,186.0,31.0,1.0
679083,0.932091,-1.480425,-2.230237,0.4249350000000001,-0.010171,-0.047525,0.0,21.0,100.0,186.0,31.0,1.0
679084,0.8367829999999999,-1.459655,-2.338687,0.393914,-0.085505,-0.4162810000000001,0.0,21.0,100.0,186.0,31.0,1.0
679085,0.744892,-1.417372,-2.43621,0.391458,0.151364,-0.493883,0.0,21.0,100.0,186.0,31.0,1.0
679086,0.700447,-1.358379,-2.469377,0.484894,0.6088100000000001,-0.271275,0.0,21.0,100.0,186.0,31.0,1.0
679087,0.689539,-1.285297,-2.467653,0.222644,0.768613,-0.172057,0.0,21.0,100.0,186.0,31.0,1.0
679088,0.676153,-1.212597,-2.46085,-0.13524,0.397973,0.544872,0.0,21.0,100.0,186.0,31.0,1.0
679089,0.6841510000000001,-1.1462709999999998,-2.452423,-0.4295060000000001,0.291723,0.356758,0.0,21.0,100.0,186.0,31.0,1.0
679090,0.699403,-1.099522,-2.434198,-0.317074,0.12819,0.317107,0.0,21.0,100.0,186.0,31.0,1.0
679091,0.7068840000000001,-1.07322,-2.416868,-0.151951,0.122524,0.337111,0.0,21.0,100.0,186.0,31.0,1.0
679092,0.7296520000000001,-1.057877,-2.399396,-0.110139,0.097511,0.232546,0.0,21.0,100.0,186.0,31.0,1.0
679093,0.7536010000000001,-1.05451,-2.37935,-0.199881,-0.107818,0.306304,0.0,21.0,100.0,186.0,31.0,1.0
679094,0.776917,-1.06211,-2.356791,-0.238435,-0.152591,0.275144,0.0,21.0,100.0,186.0,31.0,1.0
679095,0.8098380000000001,-1.083638,-2.327313,-0.282538,-0.27360500000000004,0.245029,0.0,21.0,100.0,186.0,31.0,1.0
679096,0.8569479999999999,-1.119047,-2.288338,-0.113356,-0.445751,-0.011772,0.0,21.0,100.0,186.0,31.0,1.0
679097,0.909968,-1.166656,-2.242261,-0.008655,-0.46305,-0.115295,0.0,21.0,100.0,186.0,31.0,1.0
679098,0.962332,-1.225185,-2.1896560000000003,0.15674200000000002,-0.449932,-0.138375,0.0,21.0,100.0,186.0,31.0,1.0
679099,1.024753,-1.290249,-2.117211,0.228019,-0.12556199999999998,-0.416886,0.0,21.0,100.0,186.0,31.0,1.0
679100,1.07766,-1.34553,-2.040791,0.184529,0.12923900000000002,-0.448099,0.0,21.0,100.0,186.0,31.0,1.0
679101,1.138553,-1.38409,-1.941826,0.202007,-0.293977,0.14588299999999998,0.0,21.0,100.0,186.0,31.0,1.0
679102,1.233464,-1.398745,-1.814798,0.321371,-0.730032,0.639406,0.0,21.0,100.0,186.0,31.0,1.0
679103,1.367451,-1.395524,-1.6739099999999998,-0.049489,-1.078902,-0.192984,0.0,21.0,100.0,186.0,31.0,1.0
679104,1.453425,-1.393394,-1.577337,-0.742168,-0.608665,-1.308545,0.0,21.0,100.0,186.0,31.0,1.0
679105,1.391237,-1.398953,-1.587477,-0.297657,0.151356,0.605823,0.0,21.0,100.0,186.0,31.0,1.0
679106,1.536107,-1.409124,-1.428975,0.038,2.26063,0.079282,0.0,21.0,100.0,186.0,31.0,1.0
679107,1.612331,-1.4145299999999998,-1.384209,1.168116,1.328164,-1.46862,0.0,21.0,100.0,186.0,31.0,1.0
679108,1.53191,-1.396773,-1.4911450000000002,1.046911,-0.069827,0.155656,0.0,21.0,100.0,186.0,31.0,1.0
679109,1.4449459999999998,-1.37077,-1.5732270000000002,0.67014,-0.271565,0.254598,0.0,21.0,100.0,186.0,31.0,1.0
679110,1.3804299999999998,-1.356007,-1.60853,-0.167729,-0.102525,0.414016,0.0,21.0,100.0,186.0,31.0,1.0
679111,1.353545,-1.355147,-1.607692,-0.308472,0.3544,0.44944,0.0,21.0,100.0,186.0,31.0,1.0
679112,1.371732,-1.369089,-1.577592,-0.243093,0.52212,0.215686,0.0,21.0,100.0,186.0,31.0,1.0
679113,1.395396,-1.378599,-1.547186,0.311487,0.234584,-0.173671,0.0,21.0,100.0,186.0,31.0,1.0
679114,1.442311,-1.378319,-1.521962,0.239089,0.051822,-0.5205810000000001,0.0,21.0,100.0,186.0,31.0,1.0
679115,1.468444,-1.369728,-1.525412,0.149397,0.027455,-0.6673399999999999,0.0,21.0,100.0,186.0,31.0,1.0
679116,1.410082,-1.358285,-1.608248,-0.204001,0.087742,-0.616275,0.0,21.0,100.0,186.0,31.0,1.0
679117,1.274711,-1.344652,-1.7610669999999995,-0.008244,-0.114385,-0.421749,0.0,21.0,100.0,186.0,31.0,1.0
679118,1.119616,-1.31842,-1.938519,0.060922,-0.17533800000000002,-0.306685,0.0,21.0,100.0,186.0,31.0,1.0
679119,0.994578,-1.271972,-2.094129,-0.072642,-0.227396,0.113508,0.0,21.0,100.0,186.0,31.0,1.0
679120,0.914975,-1.208176,-2.206412,-0.219699,-0.097797,0.203417,0.0,21.0,100.0,186.0,31.0,1.0
679121,0.881115,-1.145701,-2.257064,-0.256714,-0.073826,0.249514,0.0,21.0,100.0,186.0,31.0,1.0
679122,0.8697219999999999,-1.098525,-2.271959,-0.15675799999999998,0.078426,0.559331,0.0,21.0,100.0,186.0,31.0,1.0
679123,0.850701,-1.067138,-2.289371,0.008175,0.190599,0.268818,0.0,21.0,100.0,186.0,31.0,1.0
679124,0.8363520000000001,-1.046428,-2.310495,-0.000606,0.200781,0.286077,0.0,21.0,100.0,186.0,31.0,1.0
679125,0.8358040000000001,-1.037057,-2.320916,-0.245635,0.283758,0.244404,0.0,21.0,100.0,186.0,31.0,1.0
679126,0.8450799999999999,-1.036969,-2.320759,-0.23345900000000006,0.050358,0.149644,0.0,21.0,100.0,186.0,31.0,1.0
679127,0.8685350000000001,-1.052212,-2.305434,-0.292033,-0.047218,0.083695,0.0,21.0,100.0,186.0,31.0,1.0
679128,0.916037,-1.085807,-2.273113,-0.032319,-0.156881,-0.075661,0.0,21.0,100.0,186.0,31.0,1.0
679129,0.983201,-1.137613,-2.230008,0.15900899999999998,-0.30695700000000004,-0.041321,0.0,21.0,100.0,186.0,31.0,1.0
679130,1.064696,-1.201356,-2.178168,0.212408,-0.33736,-0.08316599999999999,0.0,21.0,100.0,186.0,31.0,1.0
679131,1.164048,-1.269403,-2.107122,0.312675,-0.258742,-0.153772,0.0,21.0,100.0,186.0,31.0,1.0
679132,1.304637,-1.323313,-1.978616,0.5243399999999999,-0.234119,-0.048746,0.0,21.0,100.0,186.0,31.0,1.0
679133,1.447928,-1.350448,-1.816696,0.498823,-0.427848,-0.005059,0.0,21.0,100.0,186.0,31.0,1.0
679134,1.548581,-1.358961,-1.677748,0.384143,-0.997681,-0.198577,0.0,21.0,100.0,186.0,31.0,1.0
679135,1.60607,-1.357567,-1.568917,-0.208295,-0.603238,-1.219804,0.0,21.0,100.0,186.0,31.0,1.0
679136,1.536597,-1.355267,-1.583852,-0.096246,-0.185741,-0.395352,0.0,21.0,100.0,186.0,31.0,1.0
679137,1.569098,-1.350101,-1.502323,0.050823,1.971612,0.813345,0.0,21.0,100.0,186.0,31.0,1.0
679138,1.583518,-1.344267,-1.490313,-0.513,0.33167,-0.8286020000000001,0.0,21.0,100.0,186.0,31.0,1.0
679139,1.586098,-1.334878,-1.505265,-0.522131,0.333822,-0.8293209999999999,0.0,21.0,100.0,186.0,31.0,1.0
679140,1.591472,-1.330552,-1.504443,0.53155,0.43494,-0.138418,0.0,21.0,100.0,186.0,31.0,1.0
679141,1.554946,-1.33281,-1.549186,0.041337,0.124072,0.027982,0.0,21.0,100.0,186.0,31.0,1.0
679142,1.474636,-1.340427,-1.613537,0.080822,0.402028,0.06754600000000001,0.0,21.0,100.0,186.0,31.0,1.0
679143,1.410114,-1.352955,-1.666775,0.27228800000000003,0.204191,-0.338395,0.0,21.0,100.0,186.0,31.0,1.0
679144,1.304857,-1.357112,-1.781048,0.152586,0.0505,-0.5410119999999999,0.0,21.0,100.0,186.0,31.0,1.0
679145,1.175741,-1.339849,-1.931764,0.027972000000000004,0.040725,-0.4920810000000001,0.0,21.0,100.0,186.0,31.0,1.0
679146,1.061422,-1.3000969999999998,-2.0784700000000003,-0.144047,0.000726,-0.4370850000000001,0.0,21.0,100.0,186.0,31.0,1.0
679147,0.954077,-1.240116,-2.213719,-0.422779,-0.07575,0.219153,0.0,21.0,100.0,186.0,31.0,1.0
679148,0.866038,-1.177206,-2.325758,-0.412591,-0.239883,0.51879,0.0,21.0,100.0,186.0,31.0,1.0
679149,0.81161,-1.119873,-2.404084,-0.403524,-0.677221,0.598477,0.0,21.0,100.0,186.0,31.0,1.0
679150,0.795615,-1.080379,-2.438698,-0.273299,-0.321117,0.150802,0.0,21.0,100.0,186.0,31.0,1.0
679151,0.797455,-1.056133,-2.445939,-0.053895000000000005,0.025751,0.185182,0.0,21.0,100.0,186.0,31.0,1.0
679152,0.8138529999999999,-1.041315,-2.439418,0.04603,0.5424180000000001,0.5994649999999999,0.0,21.0,100.0,186.0,31.0,1.0
679153,0.8274600000000001,-1.04051,-2.438951,-0.165283,0.215143,0.442045,0.0,21.0,100.0,186.0,31.0,1.0
679154,0.841202,-1.052149,-2.441681,-0.12623099999999998,0.119241,0.30498200000000003,0.0,21.0,100.0,186.0,31.0,1.0
679155,0.8667239999999999,-1.080794,-2.42729,0.136433,-0.116676,-0.208308,0.0,21.0,100.0,186.0,31.0,1.0
679156,0.909477,-1.127207,-2.384061,0.300216,-0.184894,-0.238568,0.0,21.0,100.0,186.0,31.0,1.0
679157,0.982621,-1.187126,-2.311449,0.358917,-0.219808,-0.21086,0.0,21.0,100.0,186.0,31.0,1.0
679158,1.080813,-1.247617,-2.219159,0.397267,-0.258198,-0.161353,0.0,21.0,100.0,186.0,31.0,1.0
679159,1.212707,-1.296068,-2.077614,0.380026,-0.41657,-0.213577,0.0,21.0,100.0,186.0,31.0,1.0
679160,1.341521,-1.322511,-1.927604,0.16305899999999998,-0.6832020000000001,-0.07852100000000001,0.0,21.0,100.0,186.0,31.0,1.0
679161,1.391827,-1.329207,-1.856872,-0.080734,-0.772732,-0.037643,0.0,21.0,100.0,186.0,31.0,1.0
679162,1.399652,-1.329035,-1.814007,-0.481904,-0.710328,-1.130386,0.0,21.0,100.0,186.0,31.0,1.0
679163,1.308116,-1.337155,-1.844388,-0.483088,-0.472265,-0.741368,0.0,21.0,100.0,186.0,31.0,1.0
679164,1.3536549999999998,-1.346001,-1.780732,-0.01905,1.074965,0.7032470000000001,0.0,21.0,100.0,186.0,31.0,1.0
679165,1.465487,-1.347681,-1.661127,0.264957,1.628623,0.536349,0.0,21.0,100.0,186.0,31.0,1.0
679166,1.510498,-1.328912,-1.634181,0.7578050000000001,0.477155,-0.904069,0.0,21.0,100.0,186.0,31.0,1.0
679167,1.530066,-1.312087,-1.603897,0.456002,0.5087729999999999,0.043223,0.0,21.0,100.0,186.0,31.0,1.0
679168,1.55508,-1.300947,-1.572031,0.29509,0.060893,-0.149039,0.0,21.0,100.0,186.0,31.0,1.0
679169,1.518381,-1.297225,-1.584267,-0.215665,0.007983,-0.003653,0.0,21.0,100.0,186.0,31.0,1.0
679170,1.488469,-1.3087719999999998,-1.585388,-0.133664,0.5418229999999999,0.005981,0.0,21.0,100.0,186.0,31.0,1.0
679171,1.457985,-1.329412,-1.600201,0.05718,0.619736,-0.422509,0.0,21.0,100.0,186.0,31.0,1.0
679172,1.366648,-1.336934,-1.6976349999999998,0.099643,0.224212,-0.548817,0.0,21.0,100.0,186.0,31.0,1.0
679173,1.269211,-1.323097,-1.819455,-0.028849,-0.114331,-0.483789,0.0,21.0,100.0,186.0,31.0,1.0
679174,1.176714,-1.290172,-1.954093,-0.045694,0.010141,-0.6595489999999999,0.0,21.0,100.0,186.0,31.0,1.0
679175,1.069408,-1.240361,-2.097016,-0.227795,-0.026925,-0.033587,0.0,21.0,100.0,186.0,31.0,1.0
679176,0.972428,-1.182209,-2.228217,-0.266706,-0.29541,0.329858,0.0,21.0,100.0,186.0,31.0,1.0
679177,0.9003260000000001,-1.123188,-2.3200990000000004,-0.390171,-0.406963,0.378071,0.0,21.0,100.0,186.0,31.0,1.0
679178,0.8526100000000001,-1.078534,-2.359509,-0.410887,-0.5219520000000001,0.46573,0.0,21.0,100.0,186.0,31.0,1.0
679179,0.8271620000000001,-1.049609,-2.371992,-0.07489900000000001,-0.166286,0.424681,0.0,21.0,100.0,186.0,31.0,1.0
679180,0.818612,-1.033784,-2.376682,-0.228861,0.427228,0.591448,0.0,21.0,100.0,186.0,31.0,1.0
679181,0.809619,-1.033325,-2.391192,-0.357366,0.226245,0.452899,0.0,21.0,100.0,186.0,31.0,1.0
679182,0.808271,-1.045023,-2.401266,-0.302815,-0.003334,0.292975,0.0,21.0,100.0,186.0,31.0,1.0
679183,0.8276479999999999,-1.0736059999999998,-2.393462,0.027996,0.012584,-0.068845,0.0,21.0,100.0,186.0,31.0,1.0
679184,0.8645379999999999,-1.120973,-2.365927,0.048402,-0.009014,-0.109374,0.0,21.0,100.0,186.0,31.0,1.0
679185,0.928588,-1.184894,-2.3119490000000003,0.468726,-0.091529,-0.250739,0.0,21.0,100.0,186.0,31.0,1.0
679186,1.026378,-1.2509629999999998,-2.22726,0.444038,-0.202996,-0.17759,0.0,21.0,100.0,186.0,31.0,1.0
679187,1.153741,-1.307131,-2.108546,0.42474,-0.316897,-0.23933,0.0,21.0,100.0,186.0,31.0,1.0
679188,1.329632,-1.345403,-1.920628,0.340063,-0.585653,0.090711,0.0,21.0,100.0,186.0,31.0,1.0
679189,1.491082,-1.362554,-1.730014,0.216603,-0.873568,0.300107,0.0,21.0,100.0,186.0,31.0,1.0
679190,1.529472,-1.358748,-1.648004,0.017107,-0.908495,-1.277225,0.0,21.0,100.0,186.0,31.0,1.0
679191,1.430156,-1.350914,-1.6895380000000002,-0.355164,0.192763,-0.570426,0.0,21.0,100.0,186.0,31.0,1.0
679192,1.407798,-1.351923,-1.684638,-0.260529,0.68438,0.12753299999999998,0.0,21.0,100.0,186.0,31.0,1.0
679193,1.485835,-1.358074,-1.594699,-0.366469,1.299121,0.8573,0.0,21.0,100.0,186.0,31.0,1.0
679194,1.503413,-1.351344,-1.594071,0.380197,0.427563,-0.484031,0.0,21.0,100.0,186.0,31.0,1.0
679195,1.524,-1.337925,-1.592973,0.569667,0.344451,-0.22805100000000006,0.0,21.0,100.0,186.0,31.0,1.0
679196,1.535699,-1.333531,-1.587964,0.74331,0.077073,-0.178902,0.0,21.0,100.0,186.0,31.0,1.0
679197,1.490124,-1.334715,-1.619688,0.100499,0.472578,0.041186,0.0,21.0,100.0,186.0,31.0,1.0
679198,1.431731,-1.342434,-1.656002,-0.02092,0.624106,-0.018869,0.0,21.0,100.0,186.0,31.0,1.0
679199,1.368607,-1.352215,-1.707863,-0.091532,0.456213,-0.269568,0.0,21.0,100.0,186.0,31.0,1.0
679200,1.254376,-1.347918,-1.837434,-0.140652,0.155014,-0.46452,0.0,21.0,100.0,186.0,31.0,1.0
679201,1.145383,-1.320985,-1.97959,0.011338,-0.049617,-0.398863,0.0,21.0,100.0,186.0,31.0,1.0
679202,1.05736,-1.266547,-2.117369,0.083389,-0.090226,-0.5896319999999999,0.0,21.0,100.0,186.0,31.0,1.0
679203,0.985271,-1.1994280000000002,-2.231189,-0.339452,-0.106911,0.207073,0.0,21.0,100.0,186.0,31.0,1.0
679204,0.923493,-1.13435,-2.321515,-0.392885,-0.31556100000000004,0.479461,0.0,21.0,100.0,186.0,31.0,1.0
679205,0.8759549999999999,-1.081121,-2.380988,-0.378593,-0.414758,0.550375,0.0,21.0,100.0,186.0,31.0,1.0
679206,0.853925,-1.039717,-2.413236,-0.195477,-0.676424,0.377848,0.0,21.0,100.0,186.0,31.0,1.0
679207,0.8427399999999999,-1.009427,-2.427039,-0.002449,0.213562,0.37631,0.0,21.0,100.0,186.0,31.0,1.0
679208,0.8350069999999999,-1.000443,-2.431341,-0.142526,0.617213,0.594881,0.0,21.0,100.0,186.0,31.0,1.0
679209,0.826541,-1.006932,-2.448892,-0.409862,0.393787,0.379293,0.0,21.0,100.0,186.0,31.0,1.0
679210,0.8229420000000001,-1.023636,-2.4632110000000003,-5e-05,0.124388,0.155005,0.0,21.0,100.0,186.0,31.0,1.0
679211,0.842369,-1.059069,-2.4554970000000003,0.042687,-0.038556,-0.085628,0.0,21.0,100.0,186.0,31.0,1.0
679212,0.8890629999999999,-1.118301,-2.415209,0.347439,-0.154791,-0.516447,0.0,21.0,100.0,186.0,31.0,1.0
679213,0.962725,-1.190969,-2.354956,0.518261,-0.139407,-0.411975,0.0,21.0,100.0,186.0,31.0,1.0
679214,1.073298,-1.259782,-2.265776,0.533573,0.0034659999999999995,-0.163929,0.0,21.0,100.0,186.0,31.0,1.0
679215,1.225676,-1.312846,-2.1165580000000004,0.444528,-0.167766,0.043252,0.0,21.0,100.0,186.0,31.0,1.0
679216,1.377936,-1.347521,-1.944634,0.5433180000000001,-0.484821,0.141756,0.0,21.0,100.0,186.0,31.0,1.0
679217,1.483277,-1.358365,-1.816821,0.455669,-0.714216,0.232874,0.0,21.0,100.0,186.0,31.0,1.0
679218,1.531344,-1.358445,-1.732047,-0.419667,-1.077559,-0.820118,0.0,21.0,100.0,186.0,31.0,1.0
679219,1.488304,-1.363531,-1.715698,-0.407457,-0.367864,-0.554365,0.0,21.0,100.0,186.0,31.0,1.0
679220,1.499468,-1.364692,-1.66762,-0.356468,-0.0746,0.028942,0.0,21.0,100.0,186.0,31.0,1.0
679221,1.596148,-1.365883,-1.566682,0.052737,1.981493,0.178009,0.0,21.0,100.0,186.0,31.0,1.0
679222,1.616323,-1.354296,-1.563728,0.4467,0.736205,-0.63238,0.0,21.0,100.0,186.0,31.0,1.0
679223,1.6109209999999998,-1.333205,-1.5816940000000002,0.33970500000000003,0.362245,-0.217754,0.0,21.0,100.0,186.0,31.0,1.0
679224,1.62054,-1.319877,-1.584018,0.148545,-0.094265,-0.077821,0.0,21.0,100.0,186.0,31.0,1.0
679225,1.582565,-1.3184209999999998,-1.619297,-0.020621,0.103974,0.049094,0.0,21.0,100.0,186.0,31.0,1.0
679226,1.553128,-1.334029,-1.6366120000000002,0.145925,0.640814,0.122415,0.0,21.0,100.0,186.0,31.0,1.0
679227,1.540921,-1.354222,-1.641058,0.197767,0.452117,-0.278982,0.0,21.0,100.0,186.0,31.0,1.0
679228,1.476025,-1.366021,-1.715544,-0.032493,0.16159500000000002,-0.264298,0.0,21.0,100.0,186.0,31.0,1.0
679229,1.4026809999999998,-1.361893,-1.814288,0.03431,-0.02518,-0.263871,0.0,21.0,100.0,186.0,31.0,1.0
679230,1.320499,-1.336931,-1.943996,0.328216,-0.160644,-0.8348459999999999,0.0,21.0,100.0,186.0,31.0,1.0
679231,1.185169,-1.286823,-2.116154,-0.002445,0.011135,-0.21717600000000006,0.0,21.0,100.0,186.0,31.0,1.0
679232,1.0654709999999998,-1.223883,-2.255689,-0.124827,-0.004391,-0.014415,0.0,21.0,100.0,186.0,31.0,1.0
679233,0.966676,-1.158473,-2.364748,-0.312316,-0.065698,0.216126,0.0,21.0,100.0,186.0,31.0,1.0
679234,0.8852959999999999,-1.103423,-2.4342330000000003,-0.5194310000000001,-0.619958,0.764724,0.0,21.0,100.0,186.0,31.0,1.0
679235,0.844317,-1.057376,-2.468327,-0.3747,-0.772727,0.840817,0.0,21.0,100.0,186.0,31.0,1.0
679236,0.819687,-1.020717,-2.4927490000000003,-0.167282,-0.100576,0.16836600000000002,0.0,21.0,100.0,186.0,31.0,1.0
679237,0.78413,-1.006584,-2.517792,-0.193286,0.540732,0.5416880000000001,0.0,21.0,100.0,186.0,31.0,1.0
679238,0.741463,-1.011943,-2.558516,-0.31028,0.339835,0.466093,0.0,21.0,100.0,186.0,31.0,1.0
679239,0.716482,-1.026894,-2.5895330000000003,-0.051697,-0.078566,0.124308,0.0,21.0,100.0,186.0,31.0,1.0
679240,0.7266130000000001,-1.057497,-2.5919380000000003,0.098763,-0.113408,-0.18838,0.0,21.0,100.0,186.0,31.0,1.0
679241,0.7668010000000001,-1.108904,-2.565275,0.185521,-0.120064,-0.348103,0.0,21.0,100.0,186.0,31.0,1.0
679242,0.838412,-1.176796,-2.514309,0.454042,-0.066188,-0.130163,0.0,21.0,100.0,186.0,31.0,1.0
679243,0.937334,-1.24607,-2.448277,0.422669,-0.15051199999999998,-0.15528,0.0,21.0,100.0,186.0,31.0,1.0
679244,1.0635,-1.3045129999999998,-2.351657,0.314408,-0.192783,-0.177982,0.0,21.0,100.0,186.0,31.0,1.0
679245,1.2021,-1.345297,-2.216569,0.370747,-0.21806,-0.01685,0.0,21.0,100.0,186.0,31.0,1.0
679246,1.3094629999999998,-1.368169,-2.089922,0.42838,-0.548541,0.203937,0.0,21.0,100.0,186.0,31.0,1.0
679247,1.315509,-1.3713229999999998,-2.058644,0.291976,-0.688896,0.234772,0.0,21.0,100.0,186.0,31.0,1.0
679248,1.26237,-1.372425,-2.081943,-0.8924059999999999,-0.700024,-1.533856,0.0,21.0,100.0,186.0,31.0,1.0
679249,1.074443,-1.382511,-2.218271,-0.689746,-0.048397,0.284821,0.0,21.0,100.0,186.0,31.0,1.0
679250,1.102069,-1.395513,-2.199159,-0.286998,0.791431,1.090793,0.0,21.0,100.0,186.0,31.0,1.0
679251,1.178253,-1.403666,-2.159843,0.918463,1.753436,-0.728348,0.0,21.0,100.0,186.0,31.0,1.0
679252,1.247085,-1.386209,-2.144015,1.396858,0.268376,-0.4621020000000001,0.0,21.0,100.0,186.0,31.0,1.0
679253,1.247802,-1.362645,-2.1613830000000003,1.35703,-0.262533,-0.185969,0.0,21.0,100.0,186.0,31.0,1.0
679254,1.181853,-1.349375,-2.219334,-0.005109000000000001,-0.101853,0.149117,0.0,21.0,100.0,186.0,31.0,1.0
679255,1.110986,-1.353559,-2.262953,-0.1019,0.387746,0.28367600000000004,0.0,21.0,100.0,186.0,31.0,1.0
679256,1.031228,-1.375561,-2.319801,-0.027764,0.581742,0.067235,0.0,21.0,100.0,186.0,31.0,1.0
679257,0.933877,-1.400775,-2.395665,0.164175,0.29631,0.185776,0.0,21.0,100.0,186.0,31.0,1.0
679258,0.8518950000000001,-1.4229690000000002,-2.4755130000000003,0.445804,0.061947,0.0473,0.0,21.0,100.0,186.0,31.0,1.0
679259,0.762042,-1.441936,-2.570151,0.467773,-0.094416,-0.127699,0.0,21.0,100.0,186.0,31.0,1.0
679260,0.6653060000000001,-1.45484,-2.6769540000000003,0.305859,0.020876,-0.306983,0.0,21.0,100.0,186.0,31.0,1.0
679261,0.524856,-1.457602,-2.821806,0.492536,-0.047754000000000005,-0.349592,0.0,21.0,100.0,186.0,31.0,1.0
679262,0.369841,-1.446555,-2.970371,0.674898,-0.22630100000000006,-0.278879,0.0,21.0,100.0,186.0,31.0,1.0
679263,0.270878,-1.424935,-3.055488,0.633464,-0.304002,-0.199778,0.0,21.0,100.0,186.0,31.0,1.0
679264,0.211655,-1.3968,-3.089976,0.397565,-0.384376,-0.00772,0.0,21.0,100.0,186.0,31.0,1.0
679265,0.199298,-1.36465,-3.077792,0.218222,-0.26576900000000003,0.25798000000000004,0.0,21.0,100.0,186.0,31.0,1.0
679266,0.232799,-1.331261,-3.0222130000000003,0.074495,0.184649,0.431538,0.0,21.0,100.0,186.0,31.0,1.0
679267,0.293791,-1.29866,-2.946687,0.278764,0.558682,0.382415,0.0,21.0,100.0,186.0,31.0,1.0
679268,0.385942,-1.273011,-2.829811,0.246155,0.565893,0.396966,0.0,21.0,100.0,186.0,31.0,1.0
679269,0.5089279999999999,-1.254291,-2.679448,-0.028785,0.472858,0.157202,0.0,21.0,100.0,186.0,31.0,1.0
679270,0.643636,-1.2390290000000002,-2.522103,0.111578,0.993359,0.001948,0.0,21.0,100.0,186.0,31.0,1.0
679271,0.769306,-1.226898,-2.37637,0.19265,1.035893,0.114049,0.0,21.0,100.0,186.0,31.0,1.0
679272,0.8920100000000001,-1.218458,-2.237568,0.318796,0.525528,0.095201,0.0,21.0,100.0,186.0,31.0,1.0
679273,1.015356,-1.205973,-2.092832,0.387396,0.259462,-0.12577,0.0,21.0,100.0,186.0,31.0,1.0
679274,1.106371,-1.18613,-1.959023,0.202041,0.275713,-0.105775,0.0,21.0,100.0,186.0,31.0,1.0
679275,1.151504,-1.169865,-1.856111,-0.155504,0.210528,0.134027,0.0,21.0,100.0,186.0,31.0,1.0
679276,1.189071,-1.158203,-1.763363,-0.262865,-0.06575700000000001,0.189809,0.0,21.0,100.0,186.0,31.0,1.0
679277,1.215577,-1.149367,-1.6782,-0.274266,-0.062179,0.182704,0.0,21.0,100.0,186.0,31.0,1.0
679278,1.234033,-1.144283,-1.594965,-0.30093000000000003,-0.266127,0.244699,0.0,21.0,100.0,186.0,31.0,1.0
679279,1.243087,-1.146224,-1.514679,-0.459154,-0.416556,0.335713,0.0,21.0,100.0,186.0,31.0,1.0
679280,1.237783,-1.157363,-1.449445,-0.553535,-0.423819,0.348674,0.0,21.0,100.0,186.0,31.0,1.0
679281,1.22426,-1.177337,-1.398788,-0.511741,-0.192937,-0.121529,0.0,21.0,100.0,186.0,31.0,1.0
679282,1.177121,-1.199254,-1.373852,-0.010138,-0.005469,-0.358758,0.0,21.0,100.0,186.0,31.0,1.0
679283,1.111579,-1.211252,-1.362287,0.26913000000000004,0.030129000000000006,-0.24692600000000006,0.0,21.0,100.0,186.0,31.0,1.0
679284,1.084292,-1.210337,-1.340268,0.5373180000000001,0.07471699999999999,-0.142795,0.0,21.0,100.0,186.0,31.0,1.0
679285,1.103802,-1.199381,-1.305974,0.195786,0.068368,-0.103729,0.0,21.0,100.0,186.0,31.0,1.0
679286,1.108008,-1.187558,-1.285057,-0.133292,0.001542,-0.016049,0.0,21.0,100.0,186.0,31.0,1.0
679287,1.098608,-1.180064,-1.270736,-0.354548,-0.401635,0.205241,0.0,21.0,100.0,186.0,31.0,1.0
679288,1.097664,-1.1784,-1.259068,-0.018549,-0.520126,0.5926140000000001,0.0,21.0,100.0,186.0,31.0,1.0
679289,1.147455,-1.189746,-1.204311,0.055779,0.002573,0.638584,0.0,21.0,100.0,186.0,31.0,1.0
679290,1.230189,-1.214167,-1.103767,0.468143,1.431283,-0.928192,0.0,21.0,100.0,186.0,31.0,1.0
679291,1.205123,-1.222187,-1.097144,0.546573,1.489778,-0.655095,0.0,21.0,100.0,186.0,31.0,1.0
679292,1.1441,-1.214244,-1.118099,0.368462,0.791593,0.152633,0.0,21.0,100.0,186.0,31.0,1.0
679293,1.10906,-1.218695,-1.120736,-0.870332,-0.466086,0.254589,0.0,21.0,100.0,186.0,31.0,1.0
679294,1.101723,-1.240493,-1.118534,-0.727431,-0.360434,0.5118010000000001,0.0,21.0,100.0,186.0,31.0,1.0
679295,1.092524,-1.272721,-1.111636,-0.572912,-0.346635,0.623731,0.0,21.0,100.0,186.0,31.0,1.0
679296,1.037144,-1.306506,-1.121707,0.200737,0.429268,0.565933,0.0,21.0,100.0,186.0,31.0,1.0
679297,0.977974,-1.337314,-1.127325,0.654514,0.644382,0.096421,0.0,21.0,100.0,186.0,31.0,1.0
679298,0.962968,-1.357265,-1.125788,-0.06489,0.020499,-0.199056,0.0,21.0,100.0,186.0,31.0,1.0
679299,0.928607,-1.371016,-1.115284,-0.27520900000000004,-0.049538,0.328647,0.0,21.0,100.0,186.0,31.0,1.0
679300,0.925366,-1.378219,-1.077992,-0.30235100000000004,-0.020653,0.38732,0.0,21.0,100.0,186.0,31.0,1.0
679301,0.987663,-1.392088,-0.994594,-0.291693,-0.003453,0.275194,0.0,21.0,100.0,186.0,31.0,1.0
679302,1.069548,-1.412441,-0.89771,0.038358,-0.019425,-0.019999,0.0,21.0,100.0,186.0,31.0,1.0
679303,1.12858,-1.435071,-0.8184739999999999,0.024426,-0.120656,0.031131,0.0,21.0,100.0,186.0,31.0,1.0
679304,1.20346,-1.45968,-0.723182,0.043234,-0.123685,0.013049000000000002,0.0,21.0,100.0,186.0,31.0,1.0
679305,1.282733,-1.483224,-0.621499,0.00413,-0.077986,-0.133382,0.0,21.0,100.0,186.0,31.0,1.0
679306,1.343028,-1.503308,-0.531906,0.172312,-0.108563,-0.025921,0.0,21.0,100.0,186.0,31.0,1.0
679307,1.425187,-1.518651,-0.421091,0.186451,-0.109481,-0.033584,0.0,21.0,100.0,186.0,31.0,1.0
679308,1.591399,-1.530307,-0.228687,0.038864,-0.088399,0.047111,0.0,21.0,100.0,186.0,31.0,1.0
679309,1.909418,-1.539031,0.111791,0.008986,-0.053084000000000006,0.099163,0.0,21.0,100.0,186.0,31.0,1.0
679310,2.449439,-1.542618,0.667738,0.020938,-0.053192,0.088074,0.0,21.0,100.0,186.0,31.0,1.0
679311,3.031713,-1.536991,1.259619,0.103741,0.094566,-0.026273,0.0,21.0,100.0,186.0,31.0,1.0
679312,-2.890151,-1.524034,1.62512,0.155596,0.129847,-0.035371,0.0,21.0,100.0,186.0,31.0,1.0
679313,-2.7322740000000003,-1.508787,1.787513,0.163958,0.083465,-0.035662,0.0,21.0,100.0,186.0,31.0,1.0
679314,-2.692288,-1.494773,1.836363,0.048063,0.096593,-0.16663,0.0,21.0,100.0,186.0,31.0,1.0
679315,-2.658434,-1.483595,1.882535,0.226312,0.168656,-0.19518,0.0,21.0,100.0,186.0,31.0,1.0
679316,-2.598859,-1.475005,1.958891,0.308081,0.131736,-0.171551,0.0,21.0,100.0,186.0,31.0,1.0
679317,-2.515173,-1.470504,2.061791,0.484844,0.092305,-0.045966,0.0,21.0,100.0,186.0,31.0,1.0
679318,-2.425741,-1.469478,2.171529,0.509079,0.106233,0.071484,0.0,21.0,100.0,186.0,31.0,1.0
679319,-2.341988,-1.4737,2.273143,0.530725,0.261531,0.019836000000000003,0.0,21.0,100.0,186.0,31.0,1.0
679320,-2.259568,-1.488352,2.374719,0.606934,0.20025,-0.042343,0.0,21.0,100.0,186.0,31.0,1.0
679321,-2.091709,-1.518065,2.570559,0.54063,0.28586,-0.216243,0.0,21.0,100.0,186.0,31.0,1.0
679322,-1.15493,-1.550375,-2.7376810000000003,0.345774,0.27021300000000004,-0.257939,0.0,21.0,100.0,186.0,31.0,1.0
679323,0.28823000000000004,-1.513785,-1.251824,0.038821,0.120567,-0.022142,0.0,21.0,100.0,186.0,31.0,1.0
679324,0.486803,-1.447901,-1.015657,-0.026516,0.023274,0.110879,0.0,21.0,100.0,186.0,31.0,1.0
679325,0.60017,-1.381927,-0.8753850000000001,-0.045545,0.240119,0.239646,0.0,21.0,100.0,186.0,31.0,1.0
679326,0.693408,-1.323873,-0.763397,0.08845399999999999,0.394101,0.395858,0.0,21.0,100.0,186.0,31.0,1.0
679327,0.772729,-1.279224,-0.664237,0.0074,0.303331,0.412529,0.0,21.0,100.0,186.0,31.0,1.0
679328,0.8411620000000001,-1.239945,-0.5726640000000001,-0.014437,0.308033,0.358935,0.0,21.0,100.0,186.0,31.0,1.0
679329,0.890374,-1.205009,-0.49093,0.137988,0.228984,0.239337,0.0,21.0,100.0,186.0,31.0,1.0
679330,0.944832,-1.176105,-0.401639,0.10399,0.15829100000000002,0.220399,0.0,21.0,100.0,186.0,31.0,1.0
679331,0.998208,-1.141225,-0.303693,0.057986,0.163198,0.246632,0.0,21.0,100.0,186.0,31.0,1.0
679332,1.022602,-1.102056,-0.217958,-0.112215,0.16276300000000002,0.340932,0.0,21.0,100.0,186.0,31.0,1.0
679333,1.027772,-1.067777,-0.144406,-0.158527,0.142759,0.34994400000000003,0.0,21.0,100.0,186.0,31.0,1.0
679334,1.024833,-1.041558,-0.077943,-0.23911,0.056928,0.362523,0.0,21.0,100.0,186.0,31.0,1.0
679335,1.0126389999999998,-1.021135,-0.018051,-0.347654,-0.152811,0.459138,0.0,21.0,100.0,186.0,31.0,1.0
679336,0.994696,-1.007479,0.034288,-0.438966,-0.103911,0.453554,0.0,21.0,100.0,186.0,31.0,1.0
679337,0.978693,-1.001207,0.08311,-0.45897,-0.080221,0.432265,0.0,21.0,100.0,186.0,31.0,1.0
679338,0.967701,-1.00085,0.13204100000000002,-0.49615,-0.044414,0.384479,0.0,21.0,100.0,186.0,31.0,1.0
679339,0.958747,-1.006478,0.181991,-0.475118,-0.124067,0.363441,0.0,21.0,100.0,186.0,31.0,1.0
679340,0.948723,-1.018215,0.230479,-0.458265,-0.133658,0.334669,0.0,21.0,100.0,186.0,31.0,1.0
679341,0.940453,-1.035235,0.273897,-0.405124,-0.010831,0.06648,0.0,21.0,100.0,186.0,31.0,1.0
679342,0.934555,-1.05664,0.30995900000000004,-0.253006,0.015202,-0.159126,0.0,21.0,100.0,186.0,31.0,1.0
679343,0.913388,-1.07545,0.33186,0.055225,0.096255,-0.354559,0.0,21.0,100.0,186.0,31.0,1.0
679344,0.890861,-1.079006,0.342396,0.959013,0.197841,-0.200635,0.0,21.0,100.0,186.0,31.0,1.0
679345,0.877102,-1.069107,0.359129,0.14960199999999998,0.144957,0.001756,0.0,21.0,100.0,186.0,31.0,1.0
679346,0.8627969999999999,-1.064061,0.38345,-0.061217,0.076701,0.074142,0.0,21.0,100.0,186.0,31.0,1.0
679347,0.866281,-1.062343,0.418148,-0.17391600000000002,-0.189005,0.191732,0.0,21.0,100.0,186.0,31.0,1.0
679348,0.881497,-1.062155,0.450563,-0.180278,-0.30295700000000003,0.487411,0.0,21.0,100.0,186.0,31.0,1.0
679349,0.90876,-1.065313,0.479901,-0.186404,-0.304491,0.475355,0.0,21.0,100.0,186.0,31.0,1.0
679350,0.972377,-1.085656,0.547819,0.04618,0.723697,0.090413,0.0,21.0,100.0,186.0,31.0,1.0
679351,1.015127,-1.106817,0.609155,0.55125,1.432198,-1.13181,0.0,21.0,100.0,186.0,31.0,1.0
679352,0.97446,-1.096908,0.605635,0.553847,1.436677,-1.111583,0.0,21.0,100.0,186.0,31.0,1.0
679353,0.936321,-1.089919,0.609218,-0.918461,-0.265969,0.262401,0.0,21.0,100.0,186.0,31.0,1.0
679354,0.914458,-1.099279,0.614352,-0.953105,-0.105343,0.538718,0.0,21.0,100.0,186.0,31.0,1.0
679355,0.920892,-1.125873,0.626413,-0.935894,-0.117106,0.5219659999999999,0.0,21.0,100.0,186.0,31.0,1.0
679356,0.9191,-1.160194,0.633134,-0.459503,0.050771,0.477607,0.0,21.0,100.0,186.0,31.0,1.0
679357,0.887706,-1.191106,0.631251,0.599449,0.418572,0.177816,0.0,21.0,100.0,186.0,31.0,1.0
679358,0.862742,-1.207717,0.628548,0.617136,0.412544,0.174852,0.0,21.0,100.0,186.0,31.0,1.0
679359,0.844384,-1.220383,0.638646,-0.043931,0.020257,0.238136,0.0,21.0,100.0,186.0,31.0,1.0
679360,0.8353299999999999,-1.233166,0.657391,-0.28120900000000004,0.061859,0.323486,0.0,21.0,100.0,186.0,31.0,1.0
679361,0.8350129999999999,-1.246825,0.677791,-0.22957,0.002034,0.27622800000000003,0.0,21.0,100.0,186.0,31.0,1.0
679362,0.848909,-1.261405,0.703198,-0.08558099999999999,-0.012669,0.190973,0.0,21.0,100.0,186.0,31.0,1.0
679363,0.875424,-1.276782,0.738542,-0.022234,-0.013073,0.121711,0.0,21.0,100.0,186.0,31.0,1.0
679364,0.906049,-1.291929,0.774899,-0.030019,-0.029712,0.051129,0.0,21.0,100.0,186.0,31.0,1.0
679365,0.9312,-1.306069,0.804226,-0.023582,-0.052505,-0.000559,0.0,21.0,100.0,186.0,31.0,1.0
679366,0.944383,-1.320248,0.824572,0.116574,-0.13250399999999998,0.033453,0.0,21.0,100.0,186.0,31.0,1.0
679367,0.95249,-1.333379,0.8407290000000001,0.204155,-0.15021700000000002,-0.014339,0.0,21.0,100.0,186.0,31.0,1.0
679368,0.955195,-1.341757,0.84746,0.12978399999999998,-0.230889,-0.120777,0.0,21.0,100.0,186.0,31.0,1.0
679369,0.946405,-1.344007,0.842532,0.023194,-0.202665,-0.046963,0.0,21.0,100.0,186.0,31.0,1.0
679370,0.922996,-1.3399219999999998,0.8253780000000001,-0.008575,-0.179582,-0.050079000000000005,0.0,21.0,100.0,186.0,31.0,1.0
679371,0.8937620000000001,-1.331775,0.802675,-0.03148,-0.197721,0.011521,0.0,21.0,100.0,186.0,31.0,1.0
679372,0.865994,-1.322071,0.779456,-0.110865,-0.137211,0.092253,0.0,21.0,100.0,186.0,31.0,1.0
679373,0.8434729999999999,-1.313119,0.7563449999999999,-0.12699000000000002,-0.125554,0.077753,0.0,21.0,100.0,186.0,31.0,1.0
679374,0.819943,-1.305528,0.7295729999999999,-0.068285,-0.104762,0.013121,0.0,21.0,100.0,186.0,31.0,1.0
679375,0.7925369999999999,-1.297398,0.697839,-0.031631,-0.160384,0.129415,0.0,21.0,100.0,186.0,31.0,1.0
679376,0.759642,-1.287133,0.663929,0.126754,-0.13977,0.158402,0.0,21.0,100.0,186.0,31.0,1.0
679377,0.735719,-1.2711059999999998,0.634406,0.171823,-0.060897,0.100191,0.0,21.0,100.0,186.0,31.0,1.0
679378,0.725792,-1.246468,0.611499,0.202433,0.00645,0.028622,0.0,21.0,100.0,186.0,31.0,1.0
679379,0.722129,-1.211473,0.5970310000000001,0.258695,0.035377,-0.010578,0.0,21.0,100.0,186.0,31.0,1.0
679380,0.712163,-1.164772,0.587465,0.324443,0.292331,0.001964,0.0,21.0,100.0,186.0,31.0,1.0
679381,0.707864,-1.106658,0.590062,0.160365,0.49863,0.033949,0.0,21.0,100.0,186.0,31.0,1.0
679382,0.70992,-1.04079,0.599901,0.056538,0.672184,0.101773,0.0,21.0,100.0,186.0,31.0,1.0
679383,0.708357,-0.976853,0.607496,-0.33621,0.518641,0.394773,0.0,21.0,100.0,186.0,31.0,1.0
679384,0.714719,-0.924276,0.617475,-0.315629,0.499361,0.307251,0.0,21.0,100.0,186.0,31.0,1.0
679385,0.727435,-0.891109,0.628632,-0.319583,0.458696,0.294692,0.0,21.0,100.0,186.0,31.0,1.0
679386,0.7520640000000001,-0.872181,0.64448,-0.144646,0.226485,0.119647,0.0,21.0,100.0,186.0,31.0,1.0
679387,0.780465,-0.865624,0.6645340000000001,-0.10034,0.164159,0.08151599999999999,0.0,21.0,100.0,186.0,31.0,1.0
679388,0.808948,-0.870108,0.687341,-0.103778,0.071859,0.106446,0.0,21.0,100.0,186.0,31.0,1.0
679389,0.8375540000000001,-0.885042,0.711752,-0.31408,-0.035447,0.278486,0.0,21.0,100.0,186.0,31.0,1.0
679390,0.8646590000000001,-0.909617,0.737038,-0.362658,-0.13536900000000002,0.227494,0.0,21.0,100.0,186.0,31.0,1.0
679391,0.88259,-0.94043,0.758283,-0.364347,-0.23212800000000006,0.155755,0.0,21.0,100.0,186.0,31.0,1.0
679392,0.885824,-0.978442,0.769737,-0.318425,-0.430382,0.077293,0.0,21.0,100.0,186.0,31.0,1.0
679393,0.882526,-1.025021,0.774676,-0.16581500000000002,-0.5187729999999999,0.091529,0.0,21.0,100.0,186.0,31.0,1.0
679394,0.888691,-1.080797,0.7837390000000001,-0.130226,-0.546381,0.058503,0.0,21.0,100.0,186.0,31.0,1.0
679395,0.90401,-1.140714,0.799237,0.13797,-0.150402,-0.097942,0.0,21.0,100.0,186.0,31.0,1.0
679396,0.910559,-1.19197,0.8158270000000001,0.5300239999999999,0.310372,0.027092,0.0,21.0,100.0,186.0,31.0,1.0
679397,0.917401,-1.223603,0.8376809999999999,0.438617,-0.094155,0.034578,0.0,21.0,100.0,186.0,31.0,1.0
679398,0.932341,-1.238902,0.870625,0.208845,-0.15346500000000002,-0.06467200000000001,0.0,21.0,100.0,186.0,31.0,1.0
679399,0.968584,-1.24998,0.926144,-0.002568,-0.017078,-0.058312,0.0,21.0,100.0,186.0,31.0,1.0
679400,1.011202,-1.257702,0.98196,-0.104202,-0.057739,-0.068803,0.0,21.0,100.0,186.0,31.0,1.0
679401,1.042685,-1.259015,1.010066,-0.587571,-0.064154,-0.473024,0.0,21.0,100.0,186.0,31.0,1.0
679402,1.036523,-1.260816,1.013675,-0.480295,-0.15667,0.19857,0.0,21.0,100.0,186.0,31.0,1.0
679403,1.015752,-1.271918,1.019951,-0.46801,-0.159998,0.198407,0.0,21.0,100.0,186.0,31.0,1.0
679404,0.981727,-1.272388,1.010672,0.5355439999999999,0.384252,0.716163,0.0,21.0,100.0,186.0,31.0,1.0
679405,0.998474,-1.259096,1.0290979999999998,0.233091,0.359222,-0.516911,0.0,21.0,100.0,186.0,31.0,1.0
679406,1.00843,-1.247854,1.038417,-0.086042,-0.011996,0.016742,0.0,21.0,100.0,186.0,31.0,1.0
679407,1.040864,-1.248848,1.07944,-0.189726,0.276034,-0.069617,0.0,21.0,100.0,186.0,31.0,1.0
679408,1.046635,-1.238835,1.075719,0.694806,0.350173,0.009585,0.0,21.0,100.0,186.0,31.0,1.0
679409,1.041156,-1.217359,1.067942,0.155894,-0.198656,0.365754,0.0,21.0,100.0,186.0,31.0,1.0
679410,1.037788,-1.205693,1.077857,-0.192902,0.23228,0.347818,0.0,21.0,100.0,186.0,31.0,1.0
679411,1.037894,-1.210554,1.088303,-0.32970900000000003,0.407984,0.469226,0.0,21.0,100.0,186.0,31.0,1.0
679412,1.037881,-1.223329,1.089795,-0.07947,0.34208,-0.105997,0.0,21.0,100.0,186.0,31.0,1.0
679413,1.018299,-1.233694,1.082114,0.13074000000000002,0.136437,0.055676,0.0,21.0,100.0,186.0,31.0,1.0
679414,1.009996,-1.243261,1.078801,0.132938,0.018158,0.071782,0.0,21.0,100.0,186.0,31.0,1.0
679415,1.014918,-1.24998,1.075353,-0.039691,-0.033710000000000004,-0.08100800000000001,0.0,21.0,100.0,186.0,31.0,1.0
679416,1.017032,-1.253859,1.057091,-0.27567800000000003,0.12236099999999997,-0.307817,0.0,21.0,100.0,186.0,31.0,1.0
679417,0.987217,-1.251326,1.010068,0.027459,-0.033203,-0.124483,0.0,21.0,100.0,186.0,31.0,1.0
679418,0.934823,-1.24075,0.942001,0.154717,-0.100904,-0.015106,0.0,21.0,100.0,186.0,31.0,1.0
679419,0.896976,-1.2150450000000002,0.873289,0.190007,-0.18676,-0.297097,0.0,21.0,100.0,186.0,31.0,1.0
679420,0.869584,-1.169324,0.814474,0.074614,-0.123749,-0.144474,0.0,21.0,100.0,186.0,31.0,1.0
679421,0.855504,-1.106938,0.772179,0.012921,0.008789,-0.024634,0.0,21.0,100.0,186.0,31.0,1.0
679422,0.847799,-1.034283,0.743368,-0.062952,0.361009,0.213187,0.0,21.0,100.0,186.0,31.0,1.0
679423,0.832383,-0.964777,0.726262,-0.029392,0.409401,0.477795,0.0,21.0,100.0,186.0,31.0,1.0
679424,0.8036310000000001,-0.908576,0.714371,-0.05695,0.323187,0.566563,0.0,21.0,100.0,186.0,31.0,1.0
679425,0.770575,-0.868352,0.707307,-0.22467,-0.00675,0.556649,0.0,21.0,100.0,186.0,31.0,1.0
679426,0.744479,-0.843403,0.694829,-0.5155310000000001,0.166694,0.373686,0.0,21.0,100.0,186.0,31.0,1.0
679427,0.7313109999999999,-0.8337600000000001,0.681455,-0.435611,0.225128,0.317317,0.0,21.0,100.0,186.0,31.0,1.0
679428,0.738793,-0.8319989999999999,0.6826369999999999,-0.217333,0.207209,0.249646,0.0,21.0,100.0,186.0,31.0,1.0
679429,0.756422,-0.8445360000000001,0.699344,-0.230872,0.011385,0.23690100000000006,0.0,21.0,100.0,186.0,31.0,1.0
679430,0.785299,-0.872732,0.728805,-0.226668,-0.109075,0.205533,0.0,21.0,100.0,186.0,31.0,1.0
679431,0.82586,-0.91651,0.763217,-0.190268,-0.249247,0.108654,0.0,21.0,100.0,186.0,31.0,1.0
679432,0.8746079999999999,-0.9752,0.7951699999999999,-0.154999,-0.333719,-0.017796,0.0,21.0,100.0,186.0,31.0,1.0
679433,0.929194,-1.044816,0.823498,-0.060344000000000016,-0.397517,-0.091985,0.0,21.0,100.0,186.0,31.0,1.0
679434,0.981987,-1.118529,0.8523809999999999,0.303566,-0.063704,-0.107369,0.0,21.0,100.0,186.0,31.0,1.0
679435,1.016981,-1.179554,0.8903530000000001,0.525644,0.468814,0.19369,0.0,21.0,100.0,186.0,31.0,1.0
679436,1.038194,-1.214323,0.940485,0.482207,0.226487,0.203808,0.0,21.0,100.0,186.0,31.0,1.0
679437,1.066138,-1.2296129999999998,0.991405,0.106163,-0.407188,-0.329981,0.0,21.0,100.0,186.0,31.0,1.0
679438,1.09128,-1.229291,1.0282639999999998,-0.218653,-0.505652,-0.0032700000000000003,0.0,21.0,100.0,186.0,31.0,1.0
679439,1.101876,-1.232981,1.079937,-0.684897,-0.7919,-0.280918,0.0,21.0,100.0,186.0,31.0,1.0
679440,1.044102,-1.241161,1.066024,-0.850928,-0.259774,-0.378044,0.0,21.0,100.0,186.0,31.0,1.0
679441,0.986897,-1.2423879999999998,1.020239,-0.323444,0.497687,0.986947,0.0,21.0,100.0,186.0,31.0,1.0
679442,1.021359,-1.251387,1.04118,-0.054648,1.129742,0.6860970000000001,0.0,21.0,100.0,186.0,31.0,1.0
679443,1.080856,-1.246264,1.070927,0.65005,0.394012,-0.559442,0.0,21.0,100.0,186.0,31.0,1.0
679444,1.114087,-1.231717,1.08668,0.6179520000000001,0.275322,0.205564,0.0,21.0,100.0,186.0,31.0,1.0
679445,1.119743,-1.21063,1.101157,0.555933,0.142989,0.238067,0.0,21.0,100.0,186.0,31.0,1.0
679446,1.101047,-1.192746,1.102105,-0.156025,0.136639,0.197977,0.0,21.0,100.0,186.0,31.0,1.0
679447,1.079317,-1.189715,1.102249,-0.500792,0.230428,0.386624,0.0,21.0,100.0,186.0,31.0,1.0
679448,1.071319,-1.203494,1.104795,-0.435354,0.22382,0.243572,0.0,21.0,100.0,186.0,31.0,1.0
679449,1.060034,-1.217261,1.098288,-0.222189,0.375536,-0.050897000000000005,0.0,21.0,100.0,186.0,31.0,1.0
679450,1.054777,-1.228789,1.088382,0.032333999999999995,0.095774,-0.0311,0.0,21.0,100.0,186.0,31.0,1.0
679451,1.0582790000000002,-1.235267,1.075295,0.037081,0.093621,-0.035119,0.0,21.0,100.0,186.0,31.0,1.0
679452,1.060928,-1.236592,1.046666,-0.139042,0.027664,-0.306113,0.0,21.0,100.0,186.0,31.0,1.0
679453,1.031754,-1.232521,0.989622,0.149927,-0.013122,-0.118245,0.0,21.0,100.0,186.0,31.0,1.0
679454,0.981658,-1.217328,0.911796,0.272693,-0.095587,-0.109042,0.0,21.0,100.0,186.0,31.0,1.0
679455,0.939893,-1.182307,0.831125,0.200679,-0.19924,-0.31056100000000003,0.0,21.0,100.0,186.0,31.0,1.0
679456,0.8942260000000001,-1.130315,0.758134,0.11776,-0.212164,-0.127374,0.0,21.0,100.0,186.0,31.0,1.0
679457,0.864634,-1.066599,0.704843,-0.052049,0.035341000000000004,0.021836,0.0,21.0,100.0,186.0,31.0,1.0
679458,0.8445469999999999,-0.997546,0.669215,-0.015386000000000004,0.45687,0.308134,0.0,21.0,100.0,186.0,31.0,1.0
679459,0.82027,-0.933221,0.651172,-0.049045,0.39995,0.5703550000000001,0.0,21.0,100.0,186.0,31.0,1.0
679460,0.788484,-0.880933,0.639107,-0.057276,0.31607,0.694284,0.0,21.0,100.0,186.0,31.0,1.0
679461,0.76027,-0.84746,0.6277149999999999,-0.462313,0.202089,0.4108350000000001,0.0,21.0,100.0,186.0,31.0,1.0
679462,0.737796,-0.8312809999999999,0.606299,-0.360687,0.081944,0.19475,0.0,21.0,100.0,186.0,31.0,1.0
679463,0.737029,-0.821984,0.5975590000000001,-0.184573,0.103501,0.18501,0.0,21.0,100.0,186.0,31.0,1.0
679464,0.753501,-0.8262209999999999,0.606859,-0.183072,-0.014535,0.196882,0.0,21.0,100.0,186.0,31.0,1.0
679465,0.78269,-0.8441700000000001,0.631061,-0.257677,-0.100783,0.224653,0.0,21.0,100.0,186.0,31.0,1.0
679466,0.823651,-0.87566,0.662874,-0.296848,-0.18035,0.19638,0.0,21.0,100.0,186.0,31.0,1.0
679467,0.8714620000000001,-0.919213,0.694823,-0.310163,-0.354878,0.082053,0.0,21.0,100.0,186.0,31.0,1.0
679468,0.916541,-0.974186,0.7216560000000001,-0.192218,-0.344396,-0.008791,0.0,21.0,100.0,186.0,31.0,1.0
679469,0.950835,-1.03961,0.74297,-0.067237,-0.34539200000000003,-0.042483,0.0,21.0,100.0,186.0,31.0,1.0
679470,0.975493,-1.109796,0.7645029999999999,0.55812,0.37551,-0.028582,0.0,21.0,100.0,186.0,31.0,1.0
679471,1.012105,-1.166854,0.812027,0.751316,0.519004,0.121382,0.0,21.0,100.0,186.0,31.0,1.0
679472,1.060165,-1.198743,0.875218,0.514468,0.009854,-0.12301,0.0,21.0,100.0,186.0,31.0,1.0
679473,1.108208,-1.2114,0.935731,-0.065106,-0.259336,-0.14276,0.0,21.0,100.0,186.0,31.0,1.0
679474,1.144931,-1.215366,0.991167,-0.348065,-0.41409,0.199787,0.0,21.0,100.0,186.0,31.0,1.0
679475,1.166209,-1.223225,1.058557,-0.467118,-0.600359,0.018203,0.0,21.0,100.0,186.0,31.0,1.0
679476,1.153985,-1.237965,1.090714,-0.8437870000000001,-0.442924,-0.202432,0.0,21.0,100.0,186.0,31.0,1.0
679477,1.08544,-1.249866,1.047699,-0.558264,0.170381,0.274329,0.0,21.0,100.0,186.0,31.0,1.0
679478,1.056224,-1.257563,1.024285,0.044286,1.648725,0.184808,0.0,21.0,100.0,186.0,31.0,1.0
679479,1.087266,-1.256672,1.03405,0.559512,0.297559,-0.06178300000000001,0.0,21.0,100.0,186.0,31.0,1.0
679480,1.125824,-1.250556,1.057673,0.377592,0.461851,-0.106554,0.0,21.0,100.0,186.0,31.0,1.0
679481,1.1527120000000002,-1.241449,1.071964,0.366164,0.464757,-0.11073800000000003,0.0,21.0,100.0,186.0,31.0,1.0
679482,1.150817,-1.224881,1.079292,0.519666,0.08248899999999999,0.152849,0.0,21.0,100.0,186.0,31.0,1.0
679483,1.120747,-1.210135,1.066569,-0.314759,0.256262,0.278251,0.0,21.0,100.0,186.0,31.0,1.0
679484,1.097782,-1.208852,1.060861,-0.312218,0.256715,0.286053,0.0,21.0,100.0,186.0,31.0,1.0
679485,1.0961530000000002,-1.220975,1.062018,-0.418242,0.259037,0.060609,0.0,21.0,100.0,186.0,31.0,1.0
679486,1.086091,-1.235103,1.048467,-0.018982,0.21132,-0.051541,0.0,21.0,100.0,186.0,31.0,1.0
679487,1.078477,-1.247675,1.0308,-0.007321999999999999,0.207254,-0.054949,0.0,21.0,100.0,186.0,31.0,1.0
679488,1.07085,-1.254184,1.001467,0.081865,0.001731,-0.310526,0.0,21.0,100.0,186.0,31.0,1.0
679489,1.052721,-1.251434,0.955439,0.179088,0.030651,-0.292723,0.0,21.0,100.0,186.0,31.0,1.0
679490,1.009664,-1.237151,0.8887139999999999,0.248812,-0.014145,-0.21538,0.0,21.0,100.0,186.0,31.0,1.0
679491,0.954669,-1.206336,0.808381,0.307979,-0.168737,-0.230438,0.0,21.0,100.0,186.0,31.0,1.0
679492,0.905448,-1.157409,0.733535,6.1e-05,-0.220972,-0.171766,0.0,21.0,100.0,186.0,31.0,1.0
679493,0.870174,-1.094371,0.67711,-0.099506,-0.131163,-0.099301,0.0,21.0,100.0,186.0,31.0,1.0
679494,0.84239,-1.0216040000000002,0.634784,-0.146063,0.162618,0.255243,0.0,21.0,100.0,186.0,31.0,1.0
679495,0.8241040000000001,-0.950235,0.611041,-0.17806,0.391739,0.486646,0.0,21.0,100.0,186.0,31.0,1.0
679496,0.8085720000000001,-0.889817,0.600337,-0.14821199999999998,0.425299,0.547732,0.0,21.0,100.0,186.0,31.0,1.0
679497,0.785604,-0.845295,0.592989,-0.137954,0.239565,0.535176,0.0,21.0,100.0,186.0,31.0,1.0
679498,0.767304,-0.8170029999999999,0.5831069999999999,-0.301973,0.275999,0.323879,0.0,21.0,100.0,186.0,31.0,1.0
679499,0.758231,-0.801024,0.5741609999999999,-0.36061,0.26185,0.33687,0.0,21.0,100.0,186.0,31.0,1.0
679500,0.768463,-0.7941050000000001,0.579069,-0.375071,0.08255499999999999,0.319149,0.0,21.0,100.0,186.0,31.0,1.0
679501,0.791295,-0.7997770000000001,0.596945,-0.30882600000000004,-0.031623000000000005,0.265448,0.0,21.0,100.0,186.0,31.0,1.0
679502,0.821924,-0.820728,0.623937,-0.260247,-0.121992,0.236532,0.0,21.0,100.0,186.0,31.0,1.0
679503,0.860418,-0.859808,0.654964,-0.18307,-0.307125,0.106317,0.0,21.0,100.0,186.0,31.0,1.0
679504,0.907884,-0.917669,0.6886899999999999,-0.08884600000000001,-0.364607,-0.005563,0.0,21.0,100.0,186.0,31.0,1.0
679505,0.963289,-0.991207,0.725112,0.000253,-0.405078,-0.08076,0.0,21.0,100.0,186.0,31.0,1.0
679506,1.019327,-1.070159,0.763656,0.311344,0.067883,-0.048263,0.0,21.0,100.0,186.0,31.0,1.0
679507,1.072589,-1.139012,0.813824,0.278976,0.821623,0.057244,0.0,21.0,100.0,186.0,31.0,1.0
679508,1.113228,-1.186837,0.879389,0.094244,0.511029,0.048354,0.0,21.0,100.0,186.0,31.0,1.0
679509,1.143956,-1.219388,0.939856,0.13357,-0.394318,-0.201247,0.0,21.0,100.0,186.0,31.0,1.0
679510,1.201183,-1.233475,1.008597,-0.002495,-0.425807,0.032964999999999994,0.0,21.0,100.0,186.0,31.0,1.0
679511,1.22709,-1.232464,1.051065,-0.165902,-0.535015,-0.118196,0.0,21.0,100.0,186.0,31.0,1.0
679512,1.217464,-1.234743,1.079124,-0.952374,-0.25516,-0.923448,0.0,21.0,100.0,186.0,31.0,1.0
679513,1.114156,-1.231629,1.002234,-0.276617,0.081443,0.643995,0.0,21.0,100.0,186.0,31.0,1.0
679514,1.109068,-1.229293,0.995423,0.347848,1.257791,0.567209,0.0,21.0,100.0,186.0,31.0,1.0
679515,1.153553,-1.21953,1.016776,0.730224,0.403698,-0.581695,0.0,21.0,100.0,186.0,31.0,1.0
679516,1.1870120000000002,-1.202678,1.036641,0.044484,0.050896,0.142812,0.0,21.0,100.0,186.0,31.0,1.0
679517,1.197223,-1.189028,1.049854,0.225543,0.325777,0.190024,0.0,21.0,100.0,186.0,31.0,1.0
679518,1.190335,-1.174748,1.054312,0.245454,0.175689,0.09992,0.0,21.0,100.0,186.0,31.0,1.0
679519,1.15846,-1.163917,1.04417,-0.158423,0.141637,0.073128,0.0,21.0,100.0,186.0,31.0,1.0
679520,1.133852,-1.168407,1.04371,-0.285605,0.287865,0.225351,0.0,21.0,100.0,186.0,31.0,1.0
679521,1.114148,-1.182929,1.038145,-0.117607,0.316577,0.027638,0.0,21.0,100.0,186.0,31.0,1.0
679522,1.099911,-1.197142,1.026471,0.01181,0.263916,0.016503999999999998,0.0,21.0,100.0,186.0,31.0,1.0
679523,1.098939,-1.210993,1.020326,-0.044016,0.080498,0.005739,0.0,21.0,100.0,186.0,31.0,1.0
679524,1.114214,-1.223669,1.02091,-0.04408,-0.113618,-0.100154,0.0,21.0,100.0,186.0,31.0,1.0
679525,1.115348,-1.232248,1.008623,-0.037941,-6.1e-05,-0.17132999999999998,0.0,21.0,100.0,186.0,31.0,1.0
679526,1.079275,-1.234283,0.963407,-0.000313,0.045163,-0.082763,0.0,21.0,100.0,186.0,31.0,1.0
679527,1.021767,-1.2255049999999998,0.893166,0.099267,-0.153227,0.039285,0.0,21.0,100.0,186.0,31.0,1.0
679528,0.975574,-1.198726,0.818178,0.275612,-0.256925,-0.169947,0.0,21.0,100.0,186.0,31.0,1.0
679529,0.949757,-1.150739,0.753939,0.320243,-0.16775,-0.263835,0.0,21.0,100.0,186.0,31.0,1.0
679530,0.922823,-1.086538,0.705284,0.07470800000000001,0.227788,-0.118637,0.0,21.0,100.0,186.0,31.0,1.0
679531,0.8933989999999999,-1.01834,0.671144,0.013745,0.324909,0.24888,0.0,21.0,100.0,186.0,31.0,1.0
679532,0.863722,-0.954168,0.65063,-0.088987,0.289453,0.438603,0.0,21.0,100.0,186.0,31.0,1.0
679533,0.8297899999999999,-0.8983690000000001,0.635916,-0.271294,0.14571199999999998,0.544153,0.0,21.0,100.0,186.0,31.0,1.0
679534,0.799067,-0.86215,0.627758,-0.509007,0.165195,0.453062,0.0,21.0,100.0,186.0,31.0,1.0
679535,0.776656,-0.8458479999999999,0.614001,-0.536493,0.276476,0.355879,0.0,21.0,100.0,186.0,31.0,1.0
679536,0.7723899999999999,-0.839609,0.601486,-0.320543,0.25090300000000004,0.171709,0.0,21.0,100.0,186.0,31.0,1.0
679537,0.788868,-0.8412850000000001,0.605817,-0.220419,0.134017,0.093003,0.0,21.0,100.0,186.0,31.0,1.0
679538,0.8197969999999999,-0.8567040000000001,0.629572,-0.226255,0.123829,0.070256,0.0,21.0,100.0,186.0,31.0,1.0
679539,0.8618309999999999,-0.8858959999999999,0.664834,-0.228681,-0.006568000000000001,0.141402,0.0,21.0,100.0,186.0,31.0,1.0
679540,0.904574,-0.924606,0.6964359999999999,-0.268062,-0.33468400000000004,0.112159,0.0,21.0,100.0,186.0,31.0,1.0
679541,0.939475,-0.971428,0.718457,-0.232146,-0.413949,0.074709,0.0,21.0,100.0,186.0,31.0,1.0
679542,0.962396,-1.029373,0.733942,-0.031857,-0.4486810000000001,0.021954,0.0,21.0,100.0,186.0,31.0,1.0
679543,0.975227,-1.099185,0.7480720000000001,0.128451,-0.3235,0.011561,0.0,21.0,100.0,186.0,31.0,1.0
679544,0.984345,-1.1697620000000002,0.77191,0.64996,0.613384,-0.091083,0.0,21.0,100.0,186.0,31.0,1.0
679545,1.003065,-1.216312,0.815902,0.4194350000000001,-0.148168,-0.601032,0.0,21.0,100.0,186.0,31.0,1.0
679546,1.009533,-1.231647,0.852305,0.159935,-0.261382,-0.446863,0.0,21.0,100.0,186.0,31.0,1.0
679547,1.0283129999999998,-1.231129,0.8986799999999999,0.109992,-0.339136,-0.139156,0.0,21.0,100.0,186.0,31.0,1.0
679548,1.051576,-1.222764,0.946804,-0.387403,-0.746549,0.032339,0.0,21.0,100.0,186.0,31.0,1.0
679549,1.064411,-1.225386,1.007673,-0.8199649999999999,-0.617405,0.129349,0.0,21.0,100.0,186.0,31.0,1.0
679550,1.023168,-1.2328059999999998,1.009058,-0.83505,-0.576281,0.183783,0.0,21.0,100.0,186.0,31.0,1.0
679551,0.987428,-1.235906,1.003291,0.336385,1.7693139999999998,-0.357231,0.0,21.0,100.0,186.0,31.0,1.0
679552,1.031869,-1.237763,1.029784,0.994242,1.611219,-0.514097,0.0,21.0,100.0,186.0,31.0,1.0
679553,1.084661,-1.229622,1.06946,0.624786,0.217458,0.017376,0.0,21.0,100.0,186.0,31.0,1.0
679554,1.114357,-1.222067,1.112371,0.347764,0.711712,-0.019149,0.0,21.0,100.0,186.0,31.0,1.0
679555,1.151999,-1.219658,1.154788,0.376744,0.939833,0.102903,0.0,21.0,100.0,186.0,31.0,1.0
679556,1.161969,-1.211319,1.174744,0.188778,0.540924,0.001904,0.0,21.0,100.0,186.0,31.0,1.0
679557,1.141942,-1.207162,1.178872,-0.225543,0.320761,0.196618,0.0,21.0,100.0,186.0,31.0,1.0
679558,1.1266770000000002,-1.213434,1.180759,-0.265174,0.249304,0.242748,0.0,21.0,100.0,186.0,31.0,1.0
679559,1.116068,-1.228684,1.178577,-0.231084,0.242614,0.11193,0.0,21.0,100.0,186.0,31.0,1.0
679560,1.104152,-1.244676,1.168159,-0.108789,0.33028,-0.12499,0.0,21.0,100.0,186.0,31.0,1.0
679561,1.097735,-1.255914,1.151266,-0.034444,0.114002,-0.138439,0.0,21.0,100.0,186.0,31.0,1.0
679562,1.085542,-1.2592709999999998,1.1196620000000002,0.039793,0.010871,-0.171245,0.0,21.0,100.0,186.0,31.0,1.0
679563,1.065567,-1.251067,1.070414,0.0826,0.033223,-0.435353,0.0,21.0,100.0,186.0,31.0,1.0
679564,1.022249,-1.229595,0.996438,0.003298,-0.050187,-0.340333,0.0,21.0,100.0,186.0,31.0,1.0
679565,0.960602,-1.19271,0.904946,-0.034012,-0.06790700000000001,-0.29335700000000003,0.0,21.0,100.0,186.0,31.0,1.0
679566,0.8996940000000001,-1.140741,0.812242,-0.213969,-0.160224,-0.023135,0.0,21.0,100.0,186.0,31.0,1.0
679567,0.856433,-1.07774,0.7341979999999999,-0.26268600000000003,-0.010941,0.12756099999999998,0.0,21.0,100.0,186.0,31.0,1.0
679568,0.820799,-1.0124959999999998,0.674712,-0.24239,0.016878999999999998,0.30091100000000004,0.0,21.0,100.0,186.0,31.0,1.0
679569,0.789442,-0.955873,0.636595,-0.165476,0.046082,0.617698,0.0,21.0,100.0,186.0,31.0,1.0
679570,0.760889,-0.911159,0.6136229999999999,-0.053429,0.151894,0.663383,0.0,21.0,100.0,186.0,31.0,1.0
679571,0.7371260000000001,-0.878151,0.5913579999999999,-0.092997,0.253344,0.484551,0.0,21.0,100.0,186.0,31.0,1.0
679572,0.715072,-0.8548959999999999,0.5660189999999999,-0.14840799999999998,0.235396,0.397175,0.0,21.0,100.0,186.0,31.0,1.0
679573,0.6972649999999999,-0.838731,0.550181,-0.419387,0.105905,0.4149270000000001,0.0,21.0,100.0,186.0,31.0,1.0
679574,0.693498,-0.8356959999999999,0.549573,-0.459346,0.029599,0.34983800000000004,0.0,21.0,100.0,186.0,31.0,1.0
679575,0.699639,-0.8505969999999999,0.55902,-0.115847,-0.166454,0.171782,0.0,21.0,100.0,186.0,31.0,1.0
679576,0.721241,-0.88912,0.578425,0.010712,-0.211912,0.035920999999999995,0.0,21.0,100.0,186.0,31.0,1.0
679577,0.7541329999999999,-0.95299,0.599816,0.127875,-0.26794,-0.070346,0.0,21.0,100.0,186.0,31.0,1.0
679578,0.790644,-1.0285540000000002,0.611107,0.211295,-0.380479,-0.05251,0.0,21.0,100.0,186.0,31.0,1.0
679579,0.8279110000000001,-1.107533,0.618289,0.349692,-0.189155,-0.100382,0.0,21.0,100.0,186.0,31.0,1.0
679580,0.872986,-1.1798540000000002,0.652468,0.479089,0.520854,-0.091705,0.0,21.0,100.0,186.0,31.0,1.0
679581,0.915073,-1.226225,0.7119770000000001,0.151396,0.115313,-0.29588600000000004,0.0,21.0,100.0,186.0,31.0,1.0
679582,0.923799,-1.245689,0.746958,0.309938,-0.480224,-0.113313,0.0,21.0,100.0,186.0,31.0,1.0
679583,0.902623,-1.237052,0.741934,0.035317,-0.5163399999999999,-0.111075,0.0,21.0,100.0,186.0,31.0,1.0
679584,0.876727,-1.235631,0.753147,-0.952348,-0.382222,-0.397312,0.0,21.0,100.0,186.0,31.0,1.0
679585,0.8032159999999999,-1.23448,0.7133149999999999,-0.5522279999999999,0.482293,0.901381,0.0,21.0,100.0,186.0,31.0,1.0
679586,0.77836,-1.231863,0.6822779999999999,-0.548193,0.48316,0.90897,0.0,21.0,100.0,186.0,31.0,1.0
679587,0.817576,-1.230587,0.680072,0.7959069999999999,0.973102,-0.300789,0.0,21.0,100.0,186.0,31.0,1.0
679588,0.8709950000000001,-1.225877,0.7053,0.359135,-0.094682,0.14567,0.0,21.0,100.0,186.0,31.0,1.0
679589,0.895969,-1.220721,0.713827,0.23491,0.424041,0.061316,0.0,21.0,100.0,186.0,31.0,1.0
679590,0.886948,-1.213585,0.7007260000000001,0.4327,0.6885359999999999,-0.186442,0.0,21.0,100.0,186.0,31.0,1.0
679591,0.853167,-1.212137,0.677022,-0.105461,0.187716,0.386863,0.0,21.0,100.0,186.0,31.0,1.0
679592,0.813932,-1.219898,0.649409,-0.121065,0.14308900000000002,0.328005,0.0,21.0,100.0,186.0,31.0,1.0
679593,0.762439,-1.233537,0.604521,0.016738,0.165878,0.070863,0.0,21.0,100.0,186.0,31.0,1.0
679594,0.707865,-1.249191,0.555959,0.229917,0.06039600000000001,0.153919,0.0,21.0,100.0,186.0,31.0,1.0
679595,0.648291,-1.265251,0.5049779999999999,0.33495,0.063834,0.131793,0.0,21.0,100.0,186.0,31.0,1.0
679596,0.587338,-1.28008,0.447969,0.251334,0.047393,0.008939,0.0,21.0,100.0,186.0,31.0,1.0
679597,0.525111,-1.292138,0.381873,0.257205,0.019074,-0.087132,0.0,21.0,100.0,186.0,31.0,1.0
679598,0.4498,-1.298742,0.302835,0.357673,0.00202,-0.150706,0.0,21.0,100.0,186.0,31.0,1.0
679599,0.367513,-1.296195,0.22460500000000005,0.5286569999999999,-0.198282,-0.087418,0.0,21.0,100.0,186.0,31.0,1.0
679600,0.298212,-1.281407,0.16483299999999998,0.486424,-0.271529,-0.090467,0.0,21.0,100.0,186.0,31.0,1.0
679601,0.248243,-1.254624,0.127972,0.414541,-0.245644,-0.03065,0.0,21.0,100.0,186.0,31.0,1.0
679602,0.22296,-1.21943,0.119434,0.314552,-0.300979,0.23936,0.0,21.0,100.0,186.0,31.0,1.0
679603,0.241947,-1.176342,0.15322,0.41302,0.207623,0.334427,0.0,21.0,100.0,186.0,31.0,1.0
679604,0.28880900000000004,-1.132671,0.223559,0.360572,0.355102,0.356605,0.0,21.0,100.0,186.0,31.0,1.0
679605,0.349241,-1.094638,0.32018800000000003,-0.240098,0.7427229999999999,0.672517,0.0,21.0,100.0,186.0,31.0,1.0
679606,0.417021,-1.065617,0.422941,-0.26102600000000004,0.768055,0.23840100000000006,0.0,21.0,100.0,186.0,31.0,1.0
679607,0.493845,-1.050042,0.518396,-0.008726000000000001,0.866183,0.136984,0.0,21.0,100.0,186.0,31.0,1.0
679608,0.5727949999999999,-1.040757,0.625167,0.621881,0.806372,0.436224,0.0,21.0,100.0,186.0,31.0,1.0
679609,0.677125,-1.03596,0.754174,0.514432,0.5967100000000001,0.384399,0.0,21.0,100.0,186.0,31.0,1.0
679610,0.800337,-1.031281,0.8909469999999999,0.4658479999999999,0.5711649999999999,0.131819,0.0,21.0,100.0,186.0,31.0,1.0
679611,0.873959,-1.017736,1.019645,0.081847,0.430558,0.365221,0.0,21.0,100.0,186.0,31.0,1.0
679612,0.888287,-1.002158,1.125325,-0.180554,0.289735,0.27983,0.0,21.0,100.0,186.0,31.0,1.0
679613,0.895159,-0.991944,1.216195,-0.305142,0.201163,0.228909,0.0,21.0,100.0,186.0,31.0,1.0
679614,0.907263,-0.988761,1.304144,-0.4258810000000001,-0.143466,0.417206,0.0,21.0,100.0,186.0,31.0,1.0
679615,0.912467,-0.99231,1.385563,-0.409237,-0.177669,0.506789,0.0,21.0,100.0,186.0,31.0,1.0
679616,0.908969,-1.003112,1.45537,-0.4486189999999999,-0.268945,0.490393,0.0,21.0,100.0,186.0,31.0,1.0
679617,0.8912399999999999,-1.0199,1.508777,-0.655517,-0.301092,0.44955,0.0,21.0,100.0,186.0,31.0,1.0
679618,0.8634729999999999,-1.042257,1.547442,-0.6928989999999999,-0.3176,0.340493,0.0,21.0,100.0,186.0,31.0,1.0
679619,0.827192,-1.06913,1.574157,-0.608342,-0.276212,0.238344,0.0,21.0,100.0,186.0,31.0,1.0
679620,0.7709229999999999,-1.093256,1.584443,-0.07370800000000001,-0.011282,-0.12654,0.0,21.0,100.0,186.0,31.0,1.0
679621,0.698853,-1.111413,1.582328,0.488124,0.009008,-0.029795,0.0,21.0,100.0,186.0,31.0,1.0
679622,0.65249,-1.121569,1.588955,0.90837,-0.033397,0.13499,0.0,21.0,100.0,186.0,31.0,1.0
679623,0.667424,-1.128632,1.625676,0.427058,-0.076252,0.206025,0.0,21.0,100.0,186.0,31.0,1.0
679624,0.690048,-1.135111,1.6653080000000002,0.150018,-0.049113,0.314703,0.0,21.0,100.0,186.0,31.0,1.0
679625,0.6996439999999999,-1.136489,1.6968759999999998,0.045905,-0.056576,0.186001,0.0,21.0,100.0,186.0,31.0,1.0
679626,0.703109,-1.133448,1.720093,0.229288,-0.356379,0.169447,0.0,21.0,100.0,186.0,31.0,1.0
679627,0.722858,-1.135145,1.753423,0.480754,0.5794279999999999,0.847424,0.0,21.0,100.0,186.0,31.0,1.0
679628,0.7818390000000001,-1.159827,1.825487,0.636628,1.242888,0.190227,0.0,21.0,100.0,186.0,31.0,1.0
679629,0.782676,-1.177726,1.868058,0.387218,1.755462,-1.036913,0.0,21.0,100.0,186.0,31.0,1.0
679630,0.711654,-1.158125,1.854255,-0.8675299999999999,-0.504844,0.647813,0.0,21.0,100.0,186.0,31.0,1.0
679631,0.638668,-1.140465,1.82567,-0.924727,-0.6650229999999999,0.863643,0.0,21.0,100.0,186.0,31.0,1.0
679632,0.597619,-1.152374,1.797254,-0.6527729999999999,-0.470936,0.8974469999999999,0.0,21.0,100.0,186.0,31.0,1.0
679633,0.585082,-1.179057,1.769955,-0.527777,-0.185568,0.88085,0.0,21.0,100.0,186.0,31.0,1.0
679634,0.5411630000000001,-1.204453,1.730314,-0.345669,0.184811,0.759166,0.0,21.0,100.0,186.0,31.0,1.0
679635,0.43893,-1.225574,1.6673490000000002,0.67882,0.773706,0.234654,0.0,21.0,100.0,186.0,31.0,1.0
679636,0.378809,-1.23829,1.62874,0.323732,0.172296,0.156067,0.0,21.0,100.0,186.0,31.0,1.0
679637,0.327376,-1.252702,1.61005,0.032427,-0.002049,0.399917,0.0,21.0,100.0,186.0,31.0,1.0
679638,0.296892,-1.265754,1.609697,-0.167451,0.101891,0.458836,0.0,21.0,100.0,186.0,31.0,1.0
679639,0.270545,-1.287848,1.60802,-0.109434,0.050216,0.11206,0.0,21.0,100.0,186.0,31.0,1.0
679640,0.224658,-1.314464,1.584693,0.017616999999999997,0.008458,0.150036,0.0,21.0,100.0,186.0,31.0,1.0
679641,0.162216,-1.340339,1.542691,0.066946,-0.14884,0.273574,0.0,21.0,100.0,186.0,31.0,1.0
679642,0.077609,-1.366155,1.476129,0.013115,-0.169594,0.113148,0.0,21.0,100.0,186.0,31.0,1.0
679643,-0.045252,-1.390069,1.370755,0.03285,-0.127115,0.076494,0.0,21.0,100.0,186.0,31.0,1.0
679644,-0.205078,-1.4109040000000002,1.229776,0.144969,-0.037873,0.128445,0.0,21.0,100.0,186.0,31.0,1.0
679645,-0.385654,-1.42745,1.065474,0.188025,-0.137906,0.078365,0.0,21.0,100.0,186.0,31.0,1.0
679646,-0.569807,-1.439035,0.8922120000000001,0.205161,-0.139495,0.056626,0.0,21.0,100.0,186.0,31.0,1.0
679647,-0.757133,-1.445766,0.715518,0.17356400000000002,-0.033057,0.08257,0.0,21.0,100.0,186.0,31.0,1.0
679648,-0.934004,-1.444842,0.551825,0.238594,0.10863,0.079999,0.0,21.0,100.0,186.0,31.0,1.0
679649,-1.079577,-1.43834,0.4164310000000001,0.250459,0.07670700000000001,0.087224,0.0,21.0,100.0,186.0,31.0,1.0
679650,-1.201681,-1.429546,0.298094,0.270326,0.105388,0.12651700000000002,0.0,21.0,100.0,186.0,31.0,1.0
679651,-1.3014709999999998,-1.420034,0.19792,0.281561,0.055884,0.134625,0.0,21.0,100.0,186.0,31.0,1.0
679652,-1.384165,-1.411158,0.115213,0.30011,0.046666,0.089185,0.0,21.0,100.0,186.0,31.0,1.0
679653,-1.457379,-1.402034,0.047342,0.529406,0.082139,-0.023503,0.0,21.0,100.0,186.0,31.0,1.0
679654,-1.51534,-1.391738,0.005357,0.625269,0.109067,0.024398,0.0,21.0,100.0,186.0,31.0,1.0
679655,-1.560835,-1.380816,-0.011963,0.618386,0.094011,0.16406700000000002,0.0,21.0,100.0,186.0,31.0,1.0
679656,-1.58769,-1.370271,-0.007977,0.470433,0.228671,0.069435,0.0,21.0,100.0,186.0,31.0,1.0
679657,-1.582623,-1.363736,0.019414,0.487315,0.24362,-0.024434,0.0,21.0,100.0,186.0,31.0,1.0
679658,-1.542027,-1.363504,0.082673,0.555905,0.222397,-0.008027,0.0,21.0,100.0,186.0,31.0,1.0
679659,-1.445094,-1.371159,0.208504,0.627054,0.224131,-0.117884,0.0,21.0,100.0,186.0,31.0,1.0
679660,-1.276426,-1.384514,0.410004,0.35553,0.202771,-0.169106,0.0,21.0,100.0,186.0,31.0,1.0
679661,-1.022285,-1.395265,0.699998,0.208408,0.199891,-0.07824500000000001,0.0,21.0,100.0,186.0,31.0,1.0
679662,-0.687837,-1.392287,1.067027,0.110496,0.0065980000000000006,0.07392,0.0,21.0,100.0,186.0,31.0,1.0
679663,-0.354572,-1.375008,1.425717,0.086201,0.050386,0.165037,0.0,21.0,100.0,186.0,31.0,1.0
679664,-0.064312,-1.350773,1.735758,0.069004,0.425521,0.362052,0.0,21.0,100.0,186.0,31.0,1.0
679665,0.136053,-1.33265,1.959125,0.227862,0.271082,0.342771,0.0,21.0,100.0,186.0,31.0,1.0
679666,0.292299,-1.316753,2.141159,0.260209,0.261817,0.306419,0.0,21.0,100.0,186.0,31.0,1.0
679667,0.424433,-1.296414,2.300903,0.31927,0.240639,0.199772,0.0,21.0,100.0,186.0,31.0,1.0
679668,0.554443,-1.271019,2.461277,0.256824,0.134915,0.154507,0.0,21.0,100.0,186.0,31.0,1.0
679669,0.669325,-1.240433,2.61498,0.133879,0.196684,0.30409200000000003,0.0,21.0,100.0,186.0,31.0,1.0
679670,0.741015,-1.208491,2.742289,0.005835,0.25069400000000003,0.369355,0.0,21.0,100.0,186.0,31.0,1.0
679671,0.784399,-1.178502,2.84458,-0.100963,0.07169299999999999,0.303499,0.0,21.0,100.0,186.0,31.0,1.0
679672,0.8104210000000001,-1.153091,2.931019,-0.213718,-0.078527,0.352013,0.0,21.0,100.0,186.0,31.0,1.0
679673,0.8255110000000001,-1.1332870000000002,3.006097,-0.281851,-0.116518,0.354319,0.0,21.0,100.0,186.0,31.0,1.0
679674,0.8332440000000001,-1.119364,3.071111,-0.336565,-0.228009,0.357122,0.0,21.0,100.0,186.0,31.0,1.0
679675,0.8381139999999999,-1.111967,3.128892,-0.333331,-0.194362,0.305668,0.0,21.0,100.0,186.0,31.0,1.0
679676,0.839231,-1.111669,-3.101658,-0.322904,-0.197587,0.285856,0.0,21.0,100.0,186.0,31.0,1.0
679677,0.8353870000000001,-1.117468,-3.053675,-0.356005,-0.254723,0.261808,0.0,21.0,100.0,186.0,31.0,1.0
679678,0.827558,-1.130485,-3.012868,-0.34467,-0.27310300000000004,0.12029,0.0,21.0,100.0,186.0,31.0,1.0
679679,0.818969,-1.151199,-2.980246,-0.328428,-0.281738,0.110116,0.0,21.0,100.0,186.0,31.0,1.0
679680,0.807635,-1.177797,-2.95961,0.493716,-0.020734,-0.256735,0.0,21.0,100.0,186.0,31.0,1.0
679681,0.792959,-1.201233,-2.950239,1.006567,0.165461,-0.26755500000000004,0.0,21.0,100.0,186.0,31.0,1.0
679682,0.7912710000000001,-1.210135,-2.93499,1.142335,0.284521,-0.278689,0.0,21.0,100.0,186.0,31.0,1.0
679683,0.7959510000000001,-1.210279,-2.904821,0.188728,0.217667,-0.332435,0.0,21.0,100.0,186.0,31.0,1.0
679684,0.7755920000000001,-1.209321,-2.883903,-0.077652,0.164187,-0.12526900000000002,0.0,21.0,100.0,186.0,31.0,1.0
679685,0.764476,-1.199294,-2.859588,0.093099,-0.380346,0.316033,0.0,21.0,100.0,186.0,31.0,1.0
679686,0.8178989999999999,-1.189382,-2.805017,-0.423337,-0.498146,0.931256,0.0,21.0,100.0,186.0,31.0,1.0
679687,0.904397,-1.2098209999999998,-2.709564,-0.589707,0.633905,-0.388733,0.0,21.0,100.0,186.0,31.0,1.0
679688,0.904012,-1.221856,-2.692761,0.32016999999999995,0.834023,-0.478033,0.0,21.0,100.0,186.0,31.0,1.0
679689,0.9003329999999999,-1.222903,-2.687924,0.15517,0.385606,0.077304,0.0,21.0,100.0,186.0,31.0,1.0
679690,0.87365,-1.225509,-2.695667,-0.254074,-0.063552,0.423083,0.0,21.0,100.0,186.0,31.0,1.0
679691,0.8631120000000001,-1.241625,-2.686281,-0.296976,-0.06540499999999999,0.324672,0.0,21.0,100.0,186.0,31.0,1.0
679692,0.853082,-1.26431,-2.672915,-0.073362,-0.067489,0.421153,0.0,21.0,100.0,186.0,31.0,1.0
679693,0.829849,-1.289995,-2.667896,0.26053000000000004,0.130368,0.270547,0.0,21.0,100.0,186.0,31.0,1.0
679694,0.8084680000000001,-1.3116290000000002,-2.6635,0.28165500000000004,0.144343,0.05549,0.0,21.0,100.0,186.0,31.0,1.0
679695,0.801281,-1.326424,-2.644925,-0.040366,0.049928,0.088551,0.0,21.0,100.0,186.0,31.0,1.0
679696,0.8007,-1.339766,-2.621412,-0.157073,0.050266000000000005,0.18024,0.0,21.0,100.0,186.0,31.0,1.0
679697,0.812189,-1.35546,-2.596009,-0.154056,0.031945999999999995,0.1833,0.0,21.0,100.0,186.0,31.0,1.0
679698,0.842858,-1.373719,-2.559802,-0.057074,-0.034247,0.106052,0.0,21.0,100.0,186.0,31.0,1.0
679699,0.8865379999999999,-1.393794,-2.513566,0.114329,0.005492,0.051494000000000005,0.0,21.0,100.0,186.0,31.0,1.0
679700,0.941529,-1.413569,-2.458437,0.176873,0.009268,0.011124,0.0,21.0,100.0,186.0,31.0,1.0
679701,0.997769,-1.431864,-2.400184,0.177609,-0.063836,0.016040000000000002,0.0,21.0,100.0,186.0,31.0,1.0
679702,1.045715,-1.448825,-2.346319,0.195533,-0.102037,-0.034523000000000005,0.0,21.0,100.0,186.0,31.0,1.0
679703,1.082409,-1.465373,-2.30099,0.210801,-0.120242,-0.056653,0.0,21.0,100.0,186.0,31.0,1.0
679704,1.116636,-1.479792,-2.256263,0.23093,-0.160169,-0.031598,0.0,21.0,100.0,186.0,31.0,1.0
679705,1.150064,-1.489105,-2.2114540000000003,0.197164,-0.161124,-0.063394,0.0,21.0,100.0,186.0,31.0,1.0
679706,1.168718,-1.494879,-2.184105,0.199537,-0.150898,-0.119121,0.0,21.0,100.0,186.0,31.0,1.0
679707,1.181418,-1.49185,-2.168804,0.221286,-0.153212,-0.178188,0.0,21.0,100.0,186.0,31.0,1.0
679708,1.194636,-1.491254,-2.156952,0.217645,-0.202572,-0.185696,0.0,21.0,100.0,186.0,31.0,1.0
679709,1.190035,-1.485883,-2.160517,0.203498,-0.27131500000000003,-0.220979,0.0,21.0,100.0,186.0,31.0,1.0
679710,1.172873,-1.477424,-2.172974,0.12920299999999998,-0.297493,-0.141232,0.0,21.0,100.0,186.0,31.0,1.0
679711,1.156188,-1.469248,-2.182564,0.130793,-0.296011,-0.110861,0.0,21.0,100.0,186.0,31.0,1.0
679712,1.1244299999999998,-1.462161,-2.205934,0.143448,-0.274851,-0.110447,0.0,21.0,100.0,186.0,31.0,1.0
679713,1.071578,-1.456373,-2.2478130000000003,0.092316,-0.190894,0.010367,0.0,21.0,100.0,186.0,31.0,1.0
679714,1.017796,-1.4525709999999998,-2.288085,0.092886,-0.155327,0.096304,0.0,21.0,100.0,186.0,31.0,1.0
679715,0.972848,-1.449343,-2.319792,0.093121,-0.154941,0.102555,0.0,21.0,100.0,186.0,31.0,1.0
679716,0.945952,-1.445459,-2.33757,0.125142,-0.042769,0.12788,0.0,21.0,100.0,186.0,31.0,1.0
679717,0.940507,-1.4415950000000002,-2.337401,0.19201,0.004764,0.03514,0.0,21.0,100.0,186.0,31.0,1.0
679718,0.953953,-1.438275,-2.324587,0.205783,0.070414,-0.028967000000000007,0.0,21.0,100.0,186.0,31.0,1.0
679719,0.955757,-1.433828,-2.324593,0.228656,0.13808900000000002,-0.152793,0.0,21.0,100.0,186.0,31.0,1.0
679720,0.931117,-1.423514,-2.349911,0.276043,-0.035164,-0.190117,0.0,21.0,100.0,186.0,31.0,1.0
679721,0.8827790000000001,-1.40125,-2.40403,0.27742,-0.083577,-0.199744,0.0,21.0,100.0,186.0,31.0,1.0
679722,0.8311440000000001,-1.362956,-2.460033,0.351345,0.487082,-0.354405,0.0,21.0,100.0,186.0,31.0,1.0
679723,0.814338,-1.309842,-2.4817400000000003,0.15542899999999998,0.7467010000000001,-0.324022,0.0,21.0,100.0,186.0,31.0,1.0
679724,0.814246,-1.243488,-2.479832,-0.06477000000000001,0.622898,-0.041194,0.0,21.0,100.0,186.0,31.0,1.0
679725,0.8108350000000001,-1.174175,-2.4726,-0.235688,0.512443,0.13883099999999998,0.0,21.0,100.0,186.0,31.0,1.0
679726,0.8315370000000001,-1.115485,-2.455906,-0.053255,0.407784,0.049444,0.0,21.0,100.0,186.0,31.0,1.0
679727,0.849258,-1.070732,-2.442943,-0.088291,0.428357,0.06989,0.0,21.0,100.0,186.0,31.0,1.0
679728,0.8621280000000001,-1.040257,-2.432175,0.094669,0.085082,0.258818,0.0,21.0,100.0,186.0,31.0,1.0
679729,0.873339,-1.023954,-2.424473,-0.092455,-0.042266000000000005,0.17301,0.0,21.0,100.0,186.0,31.0,1.0
679730,0.8796700000000001,-1.018704,-2.41988,-0.318851,-0.138492,0.204752,0.0,21.0,100.0,186.0,31.0,1.0
679731,0.8899879999999999,-1.022617,-2.408639,-0.427018,-0.170018,0.224435,0.0,21.0,100.0,186.0,31.0,1.0
679732,0.905999,-1.035674,-2.388557,-0.4365189999999999,-0.260398,0.216668,0.0,21.0,100.0,186.0,31.0,1.0
679733,0.925444,-1.057659,-2.362886,-0.382676,-0.461449,0.158813,0.0,21.0,100.0,186.0,31.0,1.0
679734,0.946517,-1.088223,-2.333657,-0.316791,-0.573792,0.063529,0.0,21.0,100.0,186.0,31.0,1.0
679735,0.966619,-1.129876,-2.305639,-0.180028,-0.534746,0.030877,0.0,21.0,100.0,186.0,31.0,1.0
679736,0.989044,-1.183115,-2.27713,-0.155344,-0.52407,0.041010000000000005,0.0,21.0,100.0,186.0,31.0,1.0
679737,1.022714,-1.247371,-2.23988,0.062405,-0.018678,-0.124276,0.0,21.0,100.0,186.0,31.0,1.0
679738,1.058079,-1.313364,-2.19219,0.321024,0.52366,-0.047139,0.0,21.0,100.0,186.0,31.0,1.0
679739,1.051309,-1.360449,-2.177016,0.307388,0.281044,-0.038363,0.0,21.0,100.0,186.0,31.0,1.0
679740,1.064848,-1.390593,-2.141759,0.347341,-0.322232,-0.084516,0.0,21.0,100.0,186.0,31.0,1.0
679741,1.219287,-1.410321,-1.974734,0.099203,-0.381332,-0.020854,0.0,21.0,100.0,186.0,31.0,1.0
679742,1.398944,-1.41233,-1.790761,-0.12809,-0.411497,-0.5424899999999999,0.0,21.0,100.0,186.0,31.0,1.0
679743,1.420087,-1.412988,-1.7475009999999995,-0.922325,-0.236582,-0.411847,0.0,21.0,100.0,186.0,31.0,1.0
679744,1.340444,-1.429234,-1.7963810000000002,-0.328827,-0.053382000000000006,0.283598,0.0,21.0,100.0,186.0,31.0,1.0
679745,1.183346,-1.438491,-1.937614,0.670451,0.801586,0.399566,0.0,21.0,100.0,186.0,31.0,1.0
679746,1.197188,-1.434769,-1.9290080000000005,1.206423,0.636709,-0.280546,0.0,21.0,100.0,186.0,31.0,1.0
679747,1.279539,-1.417038,-1.86314,0.529235,0.095278,-0.50397,0.0,21.0,100.0,186.0,31.0,1.0
679748,1.321509,-1.3918,-1.82865,0.64869,0.6979989999999999,-0.07999500000000001,0.0,21.0,100.0,186.0,31.0,1.0
679749,1.311993,-1.3596469999999998,-1.834785,0.381775,0.134224,0.113952,0.0,21.0,100.0,186.0,31.0,1.0
679750,1.275556,-1.332149,-1.856303,-0.239303,0.077337,0.093574,0.0,21.0,100.0,186.0,31.0,1.0
679751,1.253176,-1.323457,-1.861699,-0.354183,0.06536,0.312862,0.0,21.0,100.0,186.0,31.0,1.0
679752,1.256913,-1.338415,-1.849898,0.037239,0.002984,-0.261083,0.0,21.0,100.0,186.0,31.0,1.0
679753,1.246324,-1.358114,-1.855172,0.252535,0.183146,-0.226486,0.0,21.0,100.0,186.0,31.0,1.0
679754,1.248232,-1.371658,-1.84632,0.5234810000000001,0.159457,0.03698,0.0,21.0,100.0,186.0,31.0,1.0
679755,1.261285,-1.378726,-1.830993,0.168169,-0.110334,-0.126919,0.0,21.0,100.0,186.0,31.0,1.0
679756,1.295837,-1.383139,-1.806686,-0.037368,0.10592,-0.400143,0.0,21.0,100.0,186.0,31.0,1.0
679757,1.321527,-1.385836,-1.797495,-0.084839,0.210935,-0.440933,0.0,21.0,100.0,186.0,31.0,1.0
679758,1.278637,-1.380756,-1.848945,0.260299,-0.06209,-0.310726,0.0,21.0,100.0,186.0,31.0,1.0
679759,1.178934,-1.360672,-1.963512,0.329489,-0.150811,-0.378826,0.0,21.0,100.0,186.0,31.0,1.0
679760,1.081285,-1.3199040000000002,-2.084699,0.294034,-0.197771,-0.378769,0.0,21.0,100.0,186.0,31.0,1.0
679761,0.995201,-1.2568780000000002,-2.189363,-0.098351,0.231334,-0.199504,0.0,21.0,100.0,186.0,31.0,1.0
679762,0.954077,-1.178686,-2.25946,-0.072465,0.49275,0.050434,0.0,21.0,100.0,186.0,31.0,1.0
679763,0.933247,-1.100285,-2.296208,-0.112681,0.484365,0.216007,0.0,21.0,100.0,186.0,31.0,1.0
679764,0.91084,-1.032959,-2.315642,-0.056716,0.06649,0.566036,0.0,21.0,100.0,186.0,31.0,1.0
679765,0.8858469999999999,-0.984294,-2.322159,-0.386779,0.185917,0.238268,0.0,21.0,100.0,186.0,31.0,1.0
679766,0.87485,-0.955185,-2.327602,-0.337865,0.229646,0.242436,0.0,21.0,100.0,186.0,31.0,1.0
679767,0.87313,-0.939475,-2.333977,-0.222032,0.08442899999999999,0.268085,0.0,21.0,100.0,186.0,31.0,1.0
679768,0.878401,-0.936677,-2.330122,-0.369545,-0.168753,0.259522,0.0,21.0,100.0,186.0,31.0,1.0
679769,0.893808,-0.948643,-2.315898,-0.367772,-0.175785,0.246386,0.0,21.0,100.0,186.0,31.0,1.0
679770,0.918605,-0.976224,-2.297469,-0.306115,-0.358722,0.140281,0.0,21.0,100.0,186.0,31.0,1.0
679771,0.958359,-1.02112,-2.2698810000000003,-0.075379,-0.485857,-0.075175,0.0,21.0,100.0,186.0,31.0,1.0
679772,1.017616,-1.082957,-2.225247,0.051844000000000015,-0.52089,-0.175477,0.0,21.0,100.0,186.0,31.0,1.0
679773,1.091612,-1.157365,-2.161443,0.198492,-0.48339,-0.261762,0.0,21.0,100.0,186.0,31.0,1.0
679774,1.172613,-1.235234,-2.079195,0.519724,0.375309,-0.348301,0.0,21.0,100.0,186.0,31.0,1.0
679775,1.2400790000000002,-1.29713,-1.991982,0.363789,0.292188,-0.213512,0.0,21.0,100.0,186.0,31.0,1.0
679776,1.30641,-1.332267,-1.884874,0.193819,-0.027046,-0.029813,0.0,21.0,100.0,186.0,31.0,1.0
679777,1.390517,-1.344851,-1.768521,0.124689,-0.72411,0.061606,0.0,21.0,100.0,186.0,31.0,1.0
679778,1.442586,-1.341229,-1.704545,-0.7985399999999999,-0.463221,-1.6688580000000002,0.0,21.0,100.0,186.0,31.0,1.0
679779,1.437229,-1.347423,-1.67323,-0.93725,-0.020902,-1.155774,0.0,21.0,100.0,186.0,31.0,1.0
679780,1.337568,-1.35782,-1.744185,0.086142,0.340312,1.020834,0.0,21.0,100.0,186.0,31.0,1.0
679781,1.377708,-1.360182,-1.703948,0.407063,0.73302,0.48265,0.0,21.0,100.0,186.0,31.0,1.0
679782,1.434204,-1.34961,-1.686107,1.434811,0.65481,-0.490742,0.0,21.0,100.0,186.0,31.0,1.0
679783,1.438998,-1.318438,-1.698102,0.189559,-0.477848,0.337744,0.0,21.0,100.0,186.0,31.0,1.0
679784,1.387277,-1.293512,-1.72885,-0.138587,-0.382594,0.261716,0.0,21.0,100.0,186.0,31.0,1.0
679785,1.355009,-1.283264,-1.7347240000000002,-0.331875,0.298103,0.507329,0.0,21.0,100.0,186.0,31.0,1.0
679786,1.361548,-1.291288,-1.716782,-0.27725900000000003,0.352163,0.186869,0.0,21.0,100.0,186.0,31.0,1.0
679787,1.376553,-1.306007,-1.685848,0.020291,0.389863,-0.056984,0.0,21.0,100.0,186.0,31.0,1.0
679788,1.393589,-1.317936,-1.657779,0.092541,0.206161,-0.14694000000000002,0.0,21.0,100.0,186.0,31.0,1.0
679789,1.425118,-1.325409,-1.628399,0.00324,0.177341,-0.291854,0.0,21.0,100.0,186.0,31.0,1.0
679790,1.447588,-1.331894,-1.620642,-0.09546,0.187047,-0.460696,0.0,21.0,100.0,186.0,31.0,1.0
679791,1.429091,-1.33681,-1.664094,-0.051713,-0.039385,-0.444719,0.0,21.0,100.0,186.0,31.0,1.0
679792,1.346704,-1.33495,-1.772097,0.31401,-0.10722,-0.486483,0.0,21.0,100.0,186.0,31.0,1.0
679793,1.211401,-1.3159040000000002,-1.938937,0.364561,-0.12951,-0.438453,0.0,21.0,100.0,186.0,31.0,1.0
679794,1.075263,-1.273697,-2.1015900000000003,0.120034,-0.234342,-0.20005,0.0,21.0,100.0,186.0,31.0,1.0
679795,0.965023,-1.210832,-2.227767,-0.152246,-0.124187,0.003297,0.0,21.0,100.0,186.0,31.0,1.0
679796,0.8991809999999999,-1.1397469999999998,-2.308999,-0.25603200000000004,0.003063,0.237117,0.0,21.0,100.0,186.0,31.0,1.0
679797,0.8694709999999999,-1.08071,-2.346191,-0.151722,0.002367,0.649626,0.0,21.0,100.0,186.0,31.0,1.0
679798,0.848715,-1.034805,-2.36724,0.116945,-0.081549,0.508529,0.0,21.0,100.0,186.0,31.0,1.0
679799,0.813094,-0.997893,-2.386491,0.099013,-0.072478,0.5145390000000001,0.0,21.0,100.0,186.0,31.0,1.0
679800,0.783237,-0.975938,-2.403341,-0.263317,0.219273,0.237503,0.0,21.0,100.0,186.0,31.0,1.0
679801,0.7580520000000001,-0.967762,-2.413586,-0.281699,0.038610000000000005,0.259821,0.0,21.0,100.0,186.0,31.0,1.0
679802,0.759947,-0.969399,-2.400782,-0.271799,-0.039741000000000005,0.17473,0.0,21.0,100.0,186.0,31.0,1.0
679803,0.78774,-0.986757,-2.365044,-0.310912,-0.15161,0.064274,0.0,21.0,100.0,186.0,31.0,1.0
679804,0.8447020000000001,-1.021532,-2.312943,-0.199279,-0.141605,-0.083646,0.0,21.0,100.0,186.0,31.0,1.0
679805,0.922924,-1.075619,-2.253947,-0.136649,-0.143297,-0.141347,0.0,21.0,100.0,186.0,31.0,1.0
679806,1.005318,-1.140008,-2.201309,0.07901699999999999,-0.350669,-0.146277,0.0,21.0,100.0,186.0,31.0,1.0
679807,1.079358,-1.205683,-2.151237,0.336345,-0.112275,-0.113005,0.0,21.0,100.0,186.0,31.0,1.0
679808,1.153278,-1.263509,-2.083193,0.489584,0.198454,-0.097017,0.0,21.0,100.0,186.0,31.0,1.0
679809,1.2295,-1.306219,-1.995187,0.448995,0.061117999999999985,-0.396943,0.0,21.0,100.0,186.0,31.0,1.0
679810,1.281299,-1.326033,-1.931023,0.255271,-0.5385850000000001,-0.234506,0.0,21.0,100.0,186.0,31.0,1.0
679811,1.333856,-1.332071,-1.864477,0.058162,-0.585928,0.010871,0.0,21.0,100.0,186.0,31.0,1.0
679812,1.383377,-1.3352959999999998,-1.775355,-0.5579529999999999,-0.7617649999999999,-0.130294,0.0,21.0,100.0,186.0,31.0,1.0
679813,1.381194,-1.339839,-1.734335,-0.268314,-0.201368,-0.416317,0.0,21.0,100.0,186.0,31.0,1.0
679814,1.300296,-1.33608,-1.786339,-0.032632999999999995,0.186584,0.143517,0.0,21.0,100.0,186.0,31.0,1.0
679815,1.3446209999999998,-1.331281,-1.7486970000000002,0.340111,0.959943,-0.640101,0.0,21.0,100.0,186.0,31.0,1.0
679816,1.388558,-1.324412,-1.722175,0.740512,0.4335810000000001,-0.16305999999999998,0.0,21.0,100.0,186.0,31.0,1.0
679817,1.393843,-1.305325,-1.728875,0.767103,0.135632,-0.141226,0.0,21.0,100.0,186.0,31.0,1.0
679818,1.361947,-1.283787,-1.757424,0.324882,-0.128849,0.057242,0.0,21.0,100.0,186.0,31.0,1.0
679819,1.329582,-1.2734379999999998,-1.775502,-0.029956,0.272951,0.177075,0.0,21.0,100.0,186.0,31.0,1.0
679820,1.316516,-1.282085,-1.774227,0.090155,0.551215,0.083459,0.0,21.0,100.0,186.0,31.0,1.0
679821,1.316827,-1.300936,-1.766368,0.199455,0.618467,-0.053901,0.0,21.0,100.0,186.0,31.0,1.0
679822,1.317676,-1.31739,-1.758568,0.21648,0.077789,-0.052333000000000005,0.0,21.0,100.0,186.0,31.0,1.0
679823,1.315327,-1.329487,-1.755709,0.127695,0.037107,-0.053842,0.0,21.0,100.0,186.0,31.0,1.0
679824,1.323186,-1.33819,-1.756818,-0.079291,0.004836,-0.423686,0.0,21.0,100.0,186.0,31.0,1.0
679825,1.309953,-1.340244,-1.7931259999999998,0.002998,0.019563,-0.5553739999999999,0.0,21.0,100.0,186.0,31.0,1.0
679826,1.224783,-1.331434,-1.902275,0.194673,-0.056511,-0.31756100000000004,0.0,21.0,100.0,186.0,31.0,1.0
679827,1.103506,-1.302176,-2.046616,0.349333,-0.146206,-0.392183,0.0,21.0,100.0,186.0,31.0,1.0
679828,0.999377,-1.247922,-2.174003,0.188487,-0.09945,-0.269977,0.0,21.0,100.0,186.0,31.0,1.0
679829,0.930703,-1.180675,-2.256994,-0.172764,-0.026944,0.054516,0.0,21.0,100.0,186.0,31.0,1.0
679830,0.888094,-1.11386,-2.303012,-0.368632,0.111182,0.5083880000000001,0.0,21.0,100.0,186.0,31.0,1.0
679831,0.864667,-1.05988,-2.320906,-0.174463,-0.051145,0.572678,0.0,21.0,100.0,186.0,31.0,1.0
679832,0.838778,-1.021973,-2.33291,-0.05671,-0.222951,0.537321,0.0,21.0,100.0,186.0,31.0,1.0
679833,0.8171039999999999,-0.996283,-2.347177,-0.470694,0.293844,0.18652,0.0,21.0,100.0,186.0,31.0,1.0
679834,0.808138,-0.988456,-2.361014,-0.239493,0.21365100000000006,0.21320100000000006,0.0,21.0,100.0,186.0,31.0,1.0
679835,0.808542,-0.989438,-2.364877,-0.118096,0.107688,0.166682,0.0,21.0,100.0,186.0,31.0,1.0
679836,0.823358,-1.003273,-2.351092,-0.11329000000000003,-0.135471,0.058515,0.0,21.0,100.0,186.0,31.0,1.0
679837,0.8559049999999999,-1.0343129999999998,-2.32226,-0.039432,-0.147552,-0.07310499999999999,0.0,21.0,100.0,186.0,31.0,1.0
679838,0.902202,-1.084158,-2.285578,-0.012609,-0.163436,-0.172848,0.0,21.0,100.0,186.0,31.0,1.0
679839,0.95293,-1.149012,-2.247451,0.147384,-0.354865,-0.253156,0.0,21.0,100.0,186.0,31.0,1.0
679840,1.007857,-1.217575,-2.20392,0.203923,-0.263123,-0.261042,0.0,21.0,100.0,186.0,31.0,1.0
679841,1.087189,-1.280752,-2.1274450000000003,0.24192600000000006,-0.02157,-0.25394,0.0,21.0,100.0,186.0,31.0,1.0
679842,1.217034,-1.326646,-1.99466,0.299995,-0.094443,-0.011628,0.0,21.0,100.0,186.0,31.0,1.0
679843,1.346549,-1.347827,-1.847366,0.495435,-0.584529,-0.109842,0.0,21.0,100.0,186.0,31.0,1.0
679844,1.437412,-1.349224,-1.741211,0.459003,-0.735639,0.035511,0.0,21.0,100.0,186.0,31.0,1.0
679845,1.473718,-1.338992,-1.68237,-0.508655,-0.449328,-0.7365229999999999,0.0,21.0,100.0,186.0,31.0,1.0
679846,1.418797,-1.334048,-1.684865,-0.232789,-0.21408,-0.075435,0.0,21.0,100.0,186.0,31.0,1.0
679847,1.336534,-1.325376,-1.728282,0.022028,0.385372,0.434707,0.0,21.0,100.0,186.0,31.0,1.0
679848,1.367737,-1.314187,-1.704311,0.335862,0.635893,-0.70187,0.0,21.0,100.0,186.0,31.0,1.0
679849,1.392462,-1.298443,-1.700337,-0.114486,-0.098806,0.215181,0.0,21.0,100.0,186.0,31.0,1.0
679850,1.408395,-1.284547,-1.6755919999999995,0.205635,0.181529,0.15191500000000002,0.0,21.0,100.0,186.0,31.0,1.0
679851,1.4379540000000002,-1.276509,-1.656586,0.098324,0.379096,-0.137257,0.0,21.0,100.0,186.0,31.0,1.0
679852,1.392582,-1.276034,-1.679157,0.101944,0.385963,0.035552999999999994,0.0,21.0,100.0,186.0,31.0,1.0
679853,1.351998,-1.285528,-1.6943130000000002,0.164388,0.485635,0.01619,0.0,21.0,100.0,186.0,31.0,1.0
679854,1.320916,-1.298616,-1.710768,-0.088281,0.339166,-0.11588,0.0,21.0,100.0,186.0,31.0,1.0
679855,1.293247,-1.310665,-1.737216,-0.145261,0.226729,-0.320366,0.0,21.0,100.0,186.0,31.0,1.0
679856,1.25987,-1.314381,-1.790193,-0.113746,0.129771,-0.46123,0.0,21.0,100.0,186.0,31.0,1.0
679857,1.210073,-1.30505,-1.87376,0.179283,-0.207222,-0.4157,0.0,21.0,100.0,186.0,31.0,1.0
679858,1.13808,-1.276992,-1.988338,0.204113,-0.147426,-0.537424,0.0,21.0,100.0,186.0,31.0,1.0
679859,1.049659,-1.232453,-2.111584,0.078734,-0.082832,-0.198762,0.0,21.0,100.0,186.0,31.0,1.0
679860,0.95903,-1.176916,-2.2158830000000003,-0.159123,-0.212764,0.22902600000000006,0.0,21.0,100.0,186.0,31.0,1.0
679861,0.898048,-1.11761,-2.27569,-0.351358,-0.315728,0.589555,0.0,21.0,100.0,186.0,31.0,1.0
679862,0.870705,-1.069263,-2.302125,-0.415123,-0.299622,0.603103,0.0,21.0,100.0,186.0,31.0,1.0
679863,0.851348,-1.034725,-2.3134740000000003,-0.175728,-0.012584,0.545377,0.0,21.0,100.0,186.0,31.0,1.0
679864,0.832448,-1.013205,-2.3284580000000004,-0.165025,0.202783,0.278084,0.0,21.0,100.0,186.0,31.0,1.0
679865,0.821832,-1.006739,-2.340092,-0.199137,0.311508,0.192807,0.0,21.0,100.0,186.0,31.0,1.0
679866,0.819672,-1.010691,-2.340403,-0.084562,0.152022,0.160165,0.0,21.0,100.0,186.0,31.0,1.0
679867,0.837456,-1.026349,-2.3182970000000003,-0.115133,-0.084143,-0.050056,0.0,21.0,100.0,186.0,31.0,1.0
679868,0.878956,-1.05902,-2.275988,-0.067385,-0.081425,-0.14463900000000002,0.0,21.0,100.0,186.0,31.0,1.0
679869,0.940981,-1.110633,-2.2211540000000003,0.157791,-0.126388,-0.245191,0.0,21.0,100.0,186.0,31.0,1.0
679870,1.004498,-1.171381,-2.175494,0.158479,-0.247628,-0.25524600000000003,0.0,21.0,100.0,186.0,31.0,1.0
679871,1.0712270000000002,-1.230518,-2.126105,0.177028,-0.245564,-0.247377,0.0,21.0,100.0,186.0,31.0,1.0
679872,1.189599,-1.281411,-2.021119,0.276095,0.107758,0.018806,0.0,21.0,100.0,186.0,31.0,1.0
679873,1.3255629999999998,-1.3149,-1.887967,0.384975,-0.181655,-0.131574,0.0,21.0,100.0,186.0,31.0,1.0
679874,1.444609,-1.3305049999999998,-1.76243,0.213849,-0.5446479999999999,-0.065127,0.0,21.0,100.0,186.0,31.0,1.0
679875,1.515634,-1.3353549999999998,-1.684655,-0.225098,-0.7721399999999999,-0.33331500000000003,0.0,21.0,100.0,186.0,31.0,1.0
679876,1.541599,-1.340769,-1.621283,-0.78837,-0.691403,-0.405011,0.0,21.0,100.0,186.0,31.0,1.0
679877,1.459019,-1.350602,-1.640439,-0.073556,-0.113306,0.021357,0.0,21.0,100.0,186.0,31.0,1.0
679878,1.395982,-1.3556860000000002,-1.6791080000000005,0.242335,1.342536,0.8543540000000001,0.0,21.0,100.0,186.0,31.0,1.0
679879,1.477785,-1.353315,-1.612981,0.8357680000000001,1.643261,-1.484996,0.0,21.0,100.0,186.0,31.0,1.0
679880,1.542377,-1.333322,-1.592007,0.8521629999999999,0.726093,-1.039077,0.0,21.0,100.0,186.0,31.0,1.0
679881,1.518988,-1.3048540000000002,-1.620725,-0.052713,-0.22014,0.213469,0.0,21.0,100.0,186.0,31.0,1.0
679882,1.481293,-1.289053,-1.650662,-0.210018,-0.059586,0.198679,0.0,21.0,100.0,186.0,31.0,1.0
679883,1.453462,-1.292519,-1.668473,-0.118418,0.046466,0.272025,0.0,21.0,100.0,186.0,31.0,1.0
679884,1.446061,-1.31205,-1.6612810000000002,0.150498,0.492822,0.06763,0.0,21.0,100.0,186.0,31.0,1.0
679885,1.452142,-1.332173,-1.6488,0.171034,0.315659,-0.475515,0.0,21.0,100.0,186.0,31.0,1.0
679886,1.438385,-1.343333,-1.666152,0.189071,0.250429,-0.386641,0.0,21.0,100.0,186.0,31.0,1.0
679887,1.428342,-1.349018,-1.686661,0.049588,0.031862,-0.5341859999999999,0.0,21.0,100.0,186.0,31.0,1.0
679888,1.392726,-1.346541,-1.748941,0.062788,-0.001754,-0.492578,0.0,21.0,100.0,186.0,31.0,1.0
679889,1.294834,-1.332225,-1.878728,0.229633,-0.081113,-0.496098,0.0,21.0,100.0,186.0,31.0,1.0
679890,1.164307,-1.298443,-2.042137,0.355144,-0.203772,-0.410428,0.0,21.0,100.0,186.0,31.0,1.0
679891,1.043935,-1.239326,-2.187847,-0.07850900000000001,-0.193337,-0.117922,0.0,21.0,100.0,186.0,31.0,1.0
679892,0.954628,-1.170695,-2.2863860000000003,-0.241462,-0.17537,0.063191,0.0,21.0,100.0,186.0,31.0,1.0
679893,0.897857,-1.110604,-2.342393,-0.418037,-0.35341,0.577091,0.0,21.0,100.0,186.0,31.0,1.0
679894,0.8687219999999999,-1.0649,-2.364385,-0.307167,-0.291885,0.637001,0.0,21.0,100.0,186.0,31.0,1.0
679895,0.8486290000000001,-1.037681,-2.374142,-0.031332,-0.153342,0.513733,0.0,21.0,100.0,186.0,31.0,1.0
679896,0.833383,-1.020717,-2.384231,-0.137909,0.496287,0.429886,0.0,21.0,100.0,186.0,31.0,1.0
679897,0.825944,-1.019161,-2.387961,-0.232617,0.092179,0.331099,0.0,21.0,100.0,186.0,31.0,1.0
679898,0.819311,-1.0265879999999998,-2.387196,-0.22562,0.08831,0.32931900000000003,0.0,21.0,100.0,186.0,31.0,1.0
679899,0.832224,-1.04797,-2.365401,-0.103137,-0.023851,0.000792,0.0,21.0,100.0,186.0,31.0,1.0
679900,0.876425,-1.091547,-2.315143,0.230938,-0.016597999999999998,-0.257912,0.0,21.0,100.0,186.0,31.0,1.0
679901,0.950493,-1.158705,-2.241645,0.364904,-0.054011,-0.322099,0.0,21.0,100.0,186.0,31.0,1.0
679902,1.031514,-1.22941,-2.16963,0.424319,-0.068222,-0.308533,0.0,21.0,100.0,186.0,31.0,1.0
679903,1.127405,-1.291285,-2.078408,0.302296,-0.018365,-0.187676,0.0,21.0,100.0,186.0,31.0,1.0
679904,1.241125,-1.338869,-1.946442,0.305054,-0.098042,-0.229791,0.0,21.0,100.0,186.0,31.0,1.0
679905,1.344748,-1.363857,-1.801739,0.361415,-0.5190239999999999,-0.302004,0.0,21.0,100.0,186.0,31.0,1.0
679906,1.389027,-1.365403,-1.732908,0.199059,-0.726158,0.115496,0.0,21.0,100.0,186.0,31.0,1.0
679907,1.389311,-1.359348,-1.716506,-0.562912,-0.898749,-0.440301,0.0,21.0,100.0,186.0,31.0,1.0
679908,1.397088,-1.3669790000000002,-1.6598669999999998,-0.934722,-0.8349530000000001,-0.300589,0.0,21.0,100.0,186.0,31.0,1.0
679909,1.298823,-1.3745459999999998,-1.716662,-0.133863,0.030563,0.71455,0.0,21.0,100.0,186.0,31.0,1.0
679910,1.361722,-1.376877,-1.6470490000000002,0.7737649999999999,1.781439,0.240175,0.0,21.0,100.0,186.0,31.0,1.0
679911,1.463643,-1.370751,-1.571224,-0.083429,-0.364548,0.207134,0.0,21.0,100.0,186.0,31.0,1.0
679912,1.542585,-1.366131,-1.477588,0.8946290000000001,1.026456,-0.387441,0.0,21.0,100.0,186.0,31.0,1.0
679913,1.608402,-1.363626,-1.408514,1.249282,1.248266,-0.447278,0.0,21.0,100.0,186.0,31.0,1.0
679914,1.554599,-1.358183,-1.444711,-0.094979,-0.049092,0.010345,0.0,21.0,100.0,186.0,31.0,1.0
679915,1.482497,-1.359451,-1.481896,-0.030679,0.5259739999999999,0.127949,0.0,21.0,100.0,186.0,31.0,1.0
679916,1.465662,-1.37684,-1.476171,-0.06500399999999999,0.514997,0.058861,0.0,21.0,100.0,186.0,31.0,1.0
679917,1.447517,-1.403176,-1.494344,-0.061677,0.197609,-0.545053,0.0,21.0,100.0,186.0,31.0,1.0
679918,1.366419,-1.416689,-1.5920379999999998,0.384529,-0.15401199999999998,-0.5335770000000001,0.0,21.0,100.0,186.0,31.0,1.0
679919,1.230345,-1.409633,-1.7501950000000002,0.530686,-0.29735900000000004,-0.49377,0.0,21.0,100.0,186.0,31.0,1.0
679920,1.067924,-1.37589,-1.938198,0.34076300000000004,-0.118364,-0.364245,0.0,21.0,100.0,186.0,31.0,1.0
679921,0.915887,-1.322243,-2.100326,-0.007156999999999998,-0.241166,0.045478,0.0,21.0,100.0,186.0,31.0,1.0
679922,0.812832,-1.259523,-2.199278,-0.232981,-0.421045,0.4542390000000001,0.0,21.0,100.0,186.0,31.0,1.0
679923,0.7588779999999999,-1.198171,-2.244304,-0.256218,-0.49215,0.675205,0.0,21.0,100.0,186.0,31.0,1.0
679924,0.751624,-1.149614,-2.238271,-0.316517,-0.011651,0.387814,0.0,21.0,100.0,186.0,31.0,1.0
679925,0.762476,-1.122331,-2.214662,-0.301692,0.256616,0.201061,0.0,21.0,100.0,186.0,31.0,1.0
679926,0.7728,-1.101331,-2.192391,0.185377,0.356969,0.386724,0.0,21.0,100.0,186.0,31.0,1.0
679927,0.795416,-1.0858370000000002,-2.161087,-0.162873,0.440211,0.084079,0.0,21.0,100.0,186.0,31.0,1.0
679928,0.8257389999999999,-1.080891,-2.120006,-0.316862,0.369881,0.03177,0.0,21.0,100.0,186.0,31.0,1.0
679929,0.87071,-1.087923,-2.066581,-0.16708900000000002,0.091356,-0.094598,0.0,21.0,100.0,186.0,31.0,1.0
679930,0.92774,-1.1062809999999998,-2.006584,-0.06108400000000001,-0.068828,-0.151793,0.0,21.0,100.0,186.0,31.0,1.0
679931,0.974652,-1.128195,-1.956432,-0.042659,-0.105102,-0.148115,0.0,21.0,100.0,186.0,31.0,1.0
679932,0.99573,-1.15207,-1.926507,-0.085016,-0.18352,-0.129047,0.0,21.0,100.0,186.0,31.0,1.0
679933,0.999171,-1.180242,-1.906672,-0.038604,-0.285584,-0.323783,0.0,21.0,100.0,186.0,31.0,1.0
679934,1.00171,-1.210064,-1.88122,-0.015757,-0.29652399999999995,-0.339545,0.0,21.0,100.0,186.0,31.0,1.0
679935,1.000964,-1.240712,-1.86105,0.293364,-0.17840599999999998,-0.362129,0.0,21.0,100.0,186.0,31.0,1.0
679936,0.988944,-1.268025,-1.850098,0.490587,0.007339,-0.319033,0.0,21.0,100.0,186.0,31.0,1.0
679937,0.979701,-1.28574,-1.844958,0.4734,0.048258,-0.451813,0.0,21.0,100.0,186.0,31.0,1.0
679938,0.97143,-1.28821,-1.854105,0.346291,-0.110698,-0.685905,0.0,21.0,100.0,186.0,31.0,1.0
679939,0.978391,-1.2770290000000002,-1.855431,-0.036265,0.191552,0.245415,0.0,21.0,100.0,186.0,31.0,1.0
679940,1.000191,-1.267187,-1.835847,-0.047649,0.194448,0.245221,0.0,21.0,100.0,186.0,31.0,1.0
679941,0.972249,-1.267643,-1.843544,-0.351396,0.127326,0.637181,0.0,21.0,100.0,186.0,31.0,1.0
679942,0.961845,-1.275667,-1.846736,-0.370657,0.710014,0.499824,0.0,21.0,100.0,186.0,31.0,1.0
679943,0.977913,-1.286898,-1.826919,-0.10491,0.8991600000000001,0.330561,0.0,21.0,100.0,186.0,31.0,1.0
679944,1.014842,-1.298302,-1.7825349999999998,0.65588,0.530702,-0.1712,0.0,21.0,100.0,186.0,31.0,1.0
679945,1.025898,-1.305504,-1.756836,0.035399,0.5680350000000001,0.043613,0.0,21.0,100.0,186.0,31.0,1.0
679946,1.00536,-1.311018,-1.749325,-0.308555,0.598571,0.429125,0.0,21.0,100.0,186.0,31.0,1.0
679947,0.99047,-1.322833,-1.7371869999999998,-0.6076159999999999,0.366523,0.608013,0.0,21.0,100.0,186.0,31.0,1.0
679948,1.013973,-1.346027,-1.705275,0.000997,0.234871,-0.027996,0.0,21.0,100.0,186.0,31.0,1.0
679949,1.048245,-1.377722,-1.6703560000000002,0.02394,0.228298,-0.050024,0.0,21.0,100.0,186.0,31.0,1.0
679950,1.090399,-1.409452,-1.62041,0.208717,0.050036,0.106139,0.0,21.0,100.0,186.0,31.0,1.0
679951,1.164611,-1.441505,-1.539917,0.18628,-0.170761,0.08541900000000001,0.0,21.0,100.0,186.0,31.0,1.0
679952,1.295508,-1.472646,-1.399583,0.21042600000000006,-0.174295,0.061114,0.0,21.0,100.0,186.0,31.0,1.0
679953,1.532106,-1.500424,-1.148351,0.120877,-0.247616,0.101427,0.0,21.0,100.0,186.0,31.0,1.0
679954,1.9957080000000005,-1.518958,-0.6731189999999999,0.029104,-0.267196,-0.040885000000000005,0.0,21.0,100.0,186.0,31.0,1.0
679955,2.607259,-1.519259,-0.051988,0.008306000000000001,-0.183304,-0.051432000000000005,0.0,21.0,100.0,186.0,31.0,1.0
679956,3.05558,-1.504436,0.406292,0.071546,-0.043301,-0.115713,0.0,21.0,100.0,186.0,31.0,1.0
679957,-2.952269,-1.48293,0.685068,0.083603,-0.007144,-0.241036,0.0,21.0,100.0,186.0,31.0,1.0
679958,-2.786621,-1.461645,0.847793,0.110608,0.031143,-0.307415,0.0,21.0,100.0,186.0,31.0,1.0
679959,-2.665245,-1.446649,0.963754,0.463998,0.111471,-0.325541,0.0,21.0,100.0,186.0,31.0,1.0
679960,-2.547636,-1.439557,1.077493,0.745514,-0.035865,-0.26615,0.0,21.0,100.0,186.0,31.0,1.0
679961,-2.447263,-1.43902,1.183359,0.827442,-0.116055,-0.212808,0.0,21.0,100.0,186.0,31.0,1.0
679962,-2.3779060000000003,-1.4449,1.269075,0.8034859999999999,0.07545,-0.194746,0.0,21.0,100.0,186.0,31.0,1.0
679963,-2.283145,-1.463931,1.374667,0.700231,0.439848,-0.346527,0.0,21.0,100.0,186.0,31.0,1.0
679964,-2.071207,-1.500741,1.60047,0.720841,0.409557,-0.325667,0.0,21.0,100.0,186.0,31.0,1.0
679965,-1.147674,-1.53925,2.554872,0.479826,0.215158,-0.094696,0.0,21.0,100.0,186.0,31.0,1.0
679966,0.21456,-1.495503,-2.331202,0.30601100000000003,0.597392,0.02713,0.0,21.0,100.0,186.0,31.0,1.0
679967,0.456576,-1.416956,-2.056528,0.132414,0.667999,0.146728,0.0,21.0,100.0,186.0,31.0,1.0
679968,0.560897,-1.345753,-1.924383,-0.119599,0.479668,0.5684520000000001,0.0,21.0,100.0,186.0,31.0,1.0
679969,0.641981,-1.291706,-1.828305,0.085874,0.278196,0.413197,0.0,21.0,100.0,186.0,31.0,1.0
679970,0.719511,-1.253583,-1.740041,0.30337,0.27531,0.295894,0.0,21.0,100.0,186.0,31.0,1.0
679971,0.803521,-1.225828,-1.635744,0.432615,0.25308200000000003,0.155704,0.0,21.0,100.0,186.0,31.0,1.0
679972,0.880229,-1.198307,-1.527001,0.40001,0.13753,0.264498,0.0,21.0,100.0,186.0,31.0,1.0
679973,0.939811,-1.165082,-1.419412,0.241567,0.123599,0.388502,0.0,21.0,100.0,186.0,31.0,1.0
679974,0.977866,-1.128513,-1.319161,-0.088219,0.175401,0.540067,0.0,21.0,100.0,186.0,31.0,1.0
679975,1.00178,-1.095717,-1.222298,-0.105715,0.150554,0.519843,0.0,21.0,100.0,186.0,31.0,1.0
679976,1.014552,-1.069234,-1.126608,-0.212508,0.05908,0.483305,0.0,21.0,100.0,186.0,31.0,1.0
679977,1.017053,-1.048006,-1.035763,-0.388441,-0.063649,0.546898,0.0,21.0,100.0,186.0,31.0,1.0
679978,1.022544,-1.035655,-0.945574,-0.421529,-0.195448,0.545421,0.0,21.0,100.0,186.0,31.0,1.0
679979,1.0241209999999998,-1.0328959999999998,-0.8610760000000001,-0.4834520000000001,-0.190543,0.530098,0.0,21.0,100.0,186.0,31.0,1.0
679980,1.023658,-1.039246,-0.7830010000000001,-0.5501050000000001,-0.15313,0.393943,0.0,21.0,100.0,186.0,31.0,1.0
679981,1.015693,-1.052196,-0.713729,-0.679016,-0.089675,0.363706,0.0,21.0,100.0,186.0,31.0,1.0
679982,0.999772,-1.070166,-0.654292,-0.730103,-0.021735,0.242013,0.0,21.0,100.0,186.0,31.0,1.0
679983,0.978559,-1.0916629999999998,-0.605221,-0.621995,0.061107,0.109514,0.0,21.0,100.0,186.0,31.0,1.0
679984,0.958544,-1.116119,-0.566729,-0.268788,0.26300500000000004,-0.226792,0.0,21.0,100.0,186.0,31.0,1.0
679985,0.943122,-1.139881,-0.536522,-0.247475,0.252824,-0.233889,0.0,21.0,100.0,186.0,31.0,1.0
679986,0.914906,-1.148559,-0.5260640000000001,0.685763,0.217098,-0.451725,0.0,21.0,100.0,186.0,31.0,1.0
679987,0.89794,-1.138772,-0.5265489999999999,0.254448,0.034995,-0.09939,0.0,21.0,100.0,186.0,31.0,1.0
679988,0.901881,-1.1273,-0.517387,0.147752,-0.014295,0.035872,0.0,21.0,100.0,186.0,31.0,1.0
679989,0.917488,-1.117372,-0.492757,0.083375,-0.048778,0.182524,0.0,21.0,100.0,186.0,31.0,1.0
679990,0.939576,-1.112889,-0.452988,0.328755,-0.468162,0.643705,0.0,21.0,100.0,186.0,31.0,1.0
679991,0.981078,-1.113997,-0.400387,0.5056039999999999,-0.516274,0.900626,0.0,21.0,100.0,186.0,31.0,1.0
679992,1.065362,-1.125853,-0.304506,0.443514,-0.405427,0.992299,0.0,21.0,100.0,186.0,31.0,1.0
679993,1.126634,-1.146664,-0.209449,0.136723,1.444881,-1.095751,0.0,21.0,100.0,186.0,31.0,1.0
679994,1.070125,-1.1568,-0.194436,-0.073425,1.146476,-0.621162,0.0,21.0,100.0,186.0,31.0,1.0
679995,0.994902,-1.154527,-0.207525,-0.81671,0.256081,0.101242,0.0,21.0,100.0,186.0,31.0,1.0
679996,0.943335,-1.1631,-0.223813,-0.8762479999999999,-0.401145,0.57773,0.0,21.0,100.0,186.0,31.0,1.0
679997,0.951372,-1.187551,-0.214681,-0.8681139999999999,-0.374722,0.531617,0.0,21.0,100.0,186.0,31.0,1.0
679998,0.975179,-1.217876,-0.198114,-0.7644770000000001,-0.338377,0.474393,0.0,21.0,100.0,186.0,31.0,1.0
679999,0.96345,-1.251018,-0.184374,0.353686,0.471624,0.424008,0.0,21.0,100.0,186.0,31.0,1.0
680000,0.923421,-1.285822,-0.176932,0.761872,0.455233,0.279819,0.0,21.0,100.0,186.0,31.0,1.0
680001,0.911487,-1.30539,-0.165442,0.989597,0.238963,0.039364,0.0,21.0,100.0,186.0,31.0,1.0
680002,0.8842409999999999,-1.3190879999999998,-0.155133,-0.286219,0.096178,0.26782,0.0,21.0,100.0,186.0,31.0,1.0
680003,0.8714959999999999,-1.327982,-0.13606400000000002,-0.37923,0.06504,0.255448,0.0,21.0,100.0,186.0,31.0,1.0
680004,0.8836149999999999,-1.343436,-0.102224,-0.31326,-0.027426,0.158102,0.0,21.0,100.0,186.0,31.0,1.0
680005,0.902557,-1.363068,-0.067011,-0.148241,-0.0056170000000000005,0.112869,0.0,21.0,100.0,186.0,31.0,1.0
680006,0.920078,-1.385844,-0.036134,0.005855,-0.032292,0.077941,0.0,21.0,100.0,186.0,31.0,1.0
680007,0.929202,-1.408837,-0.013376,0.082484,-0.07973200000000001,0.079679,0.0,21.0,100.0,186.0,31.0,1.0
680008,0.937353,-1.431575,0.010379,0.109406,-0.045012,0.079459,0.0,21.0,100.0,186.0,31.0,1.0
680009,0.92875,-1.45416,0.019959,0.143015,-0.061504,0.077468,0.0,21.0,100.0,186.0,31.0,1.0
680010,0.907197,-1.475479,0.017024,0.092714,-0.08228300000000001,0.069573,0.0,21.0,100.0,186.0,31.0,1.0
680011,0.905187,-1.495698,0.032126,0.014965,-0.007237,0.161296,0.0,21.0,100.0,186.0,31.0,1.0
680012,0.919434,-1.5154219999999998,0.06023600000000001,0.048119,0.004554,0.166545,0.0,21.0,100.0,186.0,31.0,1.0
680013,0.926093,-1.536138,0.077804,0.220842,0.063497,0.014341,0.0,21.0,100.0,186.0,31.0,1.0
680014,1.107948,-1.557195,0.270988,0.225677,0.059129,-0.018421,0.0,21.0,100.0,186.0,31.0,1.0
680015,-3.104426,-1.559236,2.3533150000000003,0.197914,0.070425,-0.052305,0.0,21.0,100.0,186.0,31.0,1.0
680016,-2.786455,-1.543079,2.679243,0.118895,0.068652,-0.111082,0.0,21.0,100.0,186.0,31.0,1.0
680017,-2.67586,-1.529937,2.800575,0.285246,-0.04279,-0.109425,0.0,21.0,100.0,186.0,31.0,1.0
680018,-2.5617520000000003,-1.52025,2.93878,0.407895,0.011104,-0.07535399999999999,0.0,21.0,100.0,186.0,31.0,1.0
680019,-2.466442,-1.515875,3.063261,0.367127,0.231885,0.05853,0.0,21.0,100.0,186.0,31.0,1.0
680020,-2.409826,-1.519868,-3.139176,0.241448,0.307128,0.05322,0.0,21.0,100.0,186.0,31.0,1.0
680021,-2.404593,-1.535594,-3.110973,0.289219,0.266809,0.029164,0.0,21.0,100.0,186.0,31.0,1.0
680022,-2.704354,-1.567524,2.8987380000000003,0.504939,0.449819,-0.220224,0.0,21.0,100.0,186.0,31.0,1.0
680023,0.762021,-1.521729,0.110071,0.076546,0.14918299999999998,-0.37348,0.0,21.0,100.0,186.0,31.0,1.0
