,attitude.roll,attitude.pitch,attitude.yaw,userAcceleration.x,userAcceleration.y,userAcceleration.z,act,id,weight,height,age,gender
102161,-1.388134,-1.4093209999999998,-1.900903,0.567829,-0.103217,-0.462287,0.0,3.0,90.0,176.0,31.0,1.0
102162,-1.278818,-1.406745,-1.83168,0.555547,-0.160448,-0.514323,0.0,3.0,90.0,176.0,31.0,1.0
102163,-1.131389,-1.406811,-1.7216169999999995,0.30595,-0.33276100000000003,-0.218132,0.0,3.0,90.0,176.0,31.0,1.0
102164,-0.959996,-1.397211,-1.555533,0.305359,-0.343737,-0.158772,0.0,3.0,90.0,176.0,31.0,1.0
102165,-0.813195,-1.377542,-1.390822,0.241497,-0.124222,-0.273558,0.0,3.0,90.0,176.0,31.0,1.0
102166,-0.707842,-1.349285,-1.23956,0.23648200000000005,0.007664,0.052408,0.0,3.0,90.0,176.0,31.0,1.0
102167,-0.652668,-1.309723,-1.121139,0.355508,-0.15806900000000002,0.30298400000000003,0.0,3.0,90.0,176.0,31.0,1.0
102168,-0.611993,-1.25715,-1.020258,0.246198,-0.093381,0.018834,0.0,3.0,90.0,176.0,31.0,1.0
102169,-0.557946,-1.205494,-0.926928,0.183148,0.5634359999999999,-0.010949,0.0,3.0,90.0,176.0,31.0,1.0
102170,-0.497834,-1.145871,-0.832417,0.153705,1.026461,0.217995,0.0,3.0,90.0,176.0,31.0,1.0
102171,-0.4694350000000001,-1.075141,-0.741252,0.11115,1.170377,0.28629,0.0,3.0,90.0,176.0,31.0,1.0
102172,-0.472304,-1.009912,-0.657798,0.141394,0.975145,1.110826,0.0,3.0,90.0,176.0,31.0,1.0
102173,-0.44278,-0.962605,-0.579609,0.183133,0.65028,1.390347,0.0,3.0,90.0,176.0,31.0,1.0
102174,-0.380529,-0.951197,-0.498913,-0.212298,0.618613,0.899228,0.0,3.0,90.0,176.0,31.0,1.0
102175,-0.292872,-0.967437,-0.422534,-0.07019700000000001,0.798331,0.019687,0.0,3.0,90.0,176.0,31.0,1.0
102176,-0.201728,-0.966155,-0.344658,-0.106744,0.8206959999999999,-0.092036,0.0,3.0,90.0,176.0,31.0,1.0
102177,-0.186414,-0.946886,-0.302456,-0.6625840000000001,0.096801,0.503287,0.0,3.0,90.0,176.0,31.0,1.0
102178,-0.201155,-0.927734,-0.278468,-0.543474,-0.443116,0.674773,0.0,3.0,90.0,176.0,31.0,1.0
102179,-0.211272,-0.924281,-0.269895,-0.370378,-0.496201,0.665167,0.0,3.0,90.0,176.0,31.0,1.0
102180,-0.228247,-0.93424,-0.279758,-0.23644,-0.466715,0.642837,0.0,3.0,90.0,176.0,31.0,1.0
102181,-0.262243,-0.946762,-0.298181,0.0028,-0.379231,0.607378,0.0,3.0,90.0,176.0,31.0,1.0
102182,-0.296258,-0.959912,-0.31508600000000003,0.036153,-0.39162,0.5168159999999999,0.0,3.0,90.0,176.0,31.0,1.0
102183,-0.327966,-0.976664,-0.333664,0.049595,-0.357596,0.422038,0.0,3.0,90.0,176.0,31.0,1.0
102184,-0.363602,-0.996378,-0.361044,-0.044969,-0.463837,0.236503,0.0,3.0,90.0,176.0,31.0,1.0
102185,-0.402966,-1.015001,-0.39951,-0.050208,-0.495798,0.162294,0.0,3.0,90.0,176.0,31.0,1.0
102186,-0.448517,-1.03016,-0.448662,0.067661,-0.424673,0.06663,0.0,3.0,90.0,176.0,31.0,1.0
102187,-0.503548,-1.043259,-0.499118,0.216603,-0.106573,0.00505,0.0,3.0,90.0,176.0,31.0,1.0
102188,-0.563026,-1.058825,-0.543668,0.390537,0.28244,-0.181354,0.0,3.0,90.0,176.0,31.0,1.0
102189,-0.5978399999999999,-1.074058,-0.567181,0.473357,0.651147,-0.5909810000000001,0.0,3.0,90.0,176.0,31.0,1.0
102190,-0.597179,-1.079932,-0.560087,0.465229,0.7519399999999999,-0.908069,0.0,3.0,90.0,176.0,31.0,1.0
102191,-0.5922189999999999,-1.078614,-0.5423640000000001,0.171842,0.394499,-0.540912,0.0,3.0,90.0,176.0,31.0,1.0
102192,-0.5732229999999999,-1.072601,-0.5148659999999999,0.01855,-0.098783,0.033308,0.0,3.0,90.0,176.0,31.0,1.0
102193,-0.555415,-1.061118,-0.487526,0.000778,-0.200248,0.045823,0.0,3.0,90.0,176.0,31.0,1.0
102194,-0.542713,-1.054539,-0.471484,-0.052619000000000006,-0.263716,-0.086063,0.0,3.0,90.0,176.0,31.0,1.0
102195,-0.5386479999999999,-1.058384,-0.475863,-1.007182,1.354098,-1.586927,0.0,3.0,90.0,176.0,31.0,1.0
102196,-0.564971,-1.05072,-0.492152,-1.142038,1.72603,-1.101002,0.0,3.0,90.0,176.0,31.0,1.0
102197,-0.6423,-1.056705,-0.536243,0.010848,0.436786,3.01612,0.0,3.0,90.0,176.0,31.0,1.0
102198,-0.6182380000000001,-1.062995,-0.56312,-0.062467,0.17814100000000002,0.885368,0.0,3.0,90.0,176.0,31.0,1.0
102199,-0.615029,-1.084648,-0.614646,0.07315,0.015565,0.8512850000000001,0.0,3.0,90.0,176.0,31.0,1.0
102200,-0.593591,-1.1005790000000002,-0.649436,0.144506,0.673288,1.081747,0.0,3.0,90.0,176.0,31.0,1.0
102201,-0.598036,-1.10705,-0.69463,0.174612,0.726772,0.7151689999999999,0.0,3.0,90.0,176.0,31.0,1.0
102202,-0.6722100000000001,-1.1159629999999998,-0.75157,0.362537,0.5253869999999999,0.659881,0.0,3.0,90.0,176.0,31.0,1.0
102203,-0.788489,-1.1269049999999998,-0.816696,0.8917010000000001,0.5132180000000001,0.452385,0.0,3.0,90.0,176.0,31.0,1.0
102204,-0.919746,-1.138613,-0.8903469999999999,0.818858,0.234342,0.299408,0.0,3.0,90.0,176.0,31.0,1.0
102205,-1.013595,-1.15661,-0.951135,0.440898,0.065345,0.378478,0.0,3.0,90.0,176.0,31.0,1.0
102206,-1.083977,-1.188375,-0.996937,0.204013,0.01407,0.419,0.0,3.0,90.0,176.0,31.0,1.0
102207,-1.169207,-1.229818,-1.071251,9.9e-05,-0.196761,0.346377,0.0,3.0,90.0,176.0,31.0,1.0
102208,-1.290824,-1.276293,-1.205643,-0.143689,-0.342444,0.334599,0.0,3.0,90.0,176.0,31.0,1.0
102209,-1.46999,-1.312107,-1.420339,-0.21780700000000006,-0.376425,0.17372200000000002,0.0,3.0,90.0,176.0,31.0,1.0
102210,-1.683859,-1.317223,-1.6507470000000002,-0.408853,-0.28662600000000005,-0.381374,0.0,3.0,90.0,176.0,31.0,1.0
102211,-1.799465,-1.2910549999999998,-1.7333029999999998,-0.406223,-0.182974,-0.369667,0.0,3.0,90.0,176.0,31.0,1.0
102212,-1.801445,-1.266139,-1.69018,-0.091889,0.314758,-0.54315,0.0,3.0,90.0,176.0,31.0,1.0
102213,-1.81349,-1.244858,-1.700231,0.214501,0.267859,-0.015650999999999998,0.0,3.0,90.0,176.0,31.0,1.0
102214,-1.821676,-1.226517,-1.738084,0.259157,0.228771,0.129454,0.0,3.0,90.0,176.0,31.0,1.0
102215,-1.805159,-1.220472,-1.743887,0.341954,0.278466,0.011796,0.0,3.0,90.0,176.0,31.0,1.0
102216,-1.813545,-1.215594,-1.7561189999999998,0.425612,0.276382,-0.149892,0.0,3.0,90.0,176.0,31.0,1.0
102217,-1.887252,-1.204343,-1.816833,0.940995,0.38683,-0.32372,0.0,3.0,90.0,176.0,31.0,1.0
102218,-1.894513,-1.193308,-1.831761,0.949923,0.390841,-0.329459,0.0,3.0,90.0,176.0,31.0,1.0
102219,-1.833092,-1.187655,-1.775363,0.45555,0.305049,-0.212715,0.0,3.0,90.0,176.0,31.0,1.0
102220,-1.803357,-1.180764,-1.72154,0.345677,0.784362,-0.33617600000000003,0.0,3.0,90.0,176.0,31.0,1.0
102221,-1.727369,-1.1700700000000002,-1.605135,0.6269399999999999,0.742583,-0.307285,0.0,3.0,90.0,176.0,31.0,1.0
102222,-1.59417,-1.157866,-1.43028,0.770421,0.75321,-0.207224,0.0,3.0,90.0,176.0,31.0,1.0
102223,-1.450342,-1.140834,-1.23059,0.675234,0.466125,-0.119423,0.0,3.0,90.0,176.0,31.0,1.0
102224,-1.3114059999999998,-1.118244,-1.011449,0.634524,0.150669,0.07533200000000001,0.0,3.0,90.0,176.0,31.0,1.0
102225,-1.187924,-1.082869,-0.809851,0.5541689999999999,0.396723,0.539116,0.0,3.0,90.0,176.0,31.0,1.0
102226,-1.081023,-1.05,-0.6436729999999999,0.691954,0.725228,1.10777,0.0,3.0,90.0,176.0,31.0,1.0
102227,-0.979369,-1.018417,-0.495967,0.541403,0.819544,1.2055280000000002,0.0,3.0,90.0,176.0,31.0,1.0
102228,-0.8789600000000001,-0.989695,-0.373809,0.309855,0.729007,0.964073,0.0,3.0,90.0,176.0,31.0,1.0
102229,-0.7989,-0.975209,-0.284458,0.389823,0.631486,0.468512,0.0,3.0,90.0,176.0,31.0,1.0
102230,-0.783766,-0.985189,-0.227604,0.720669,0.545514,0.48641,0.0,3.0,90.0,176.0,31.0,1.0
102231,-0.772713,-0.99652,-0.159004,0.99054,0.426833,0.546748,0.0,3.0,90.0,176.0,31.0,1.0
102232,-0.730392,-0.995471,-0.057993,0.80145,0.405873,0.759312,0.0,3.0,90.0,176.0,31.0,1.0
102233,-0.703854,-0.987198,0.047338,0.579807,0.214572,1.085069,0.0,3.0,90.0,176.0,31.0,1.0
102234,-0.68428,-0.977915,0.149311,0.308606,0.081829,1.057882,0.0,3.0,90.0,176.0,31.0,1.0
102235,-0.672132,-0.972045,0.246839,0.1981,0.052195000000000005,0.917338,0.0,3.0,90.0,176.0,31.0,1.0
102236,-0.691041,-0.964741,0.33069,-0.035088,-0.111696,0.925606,0.0,3.0,90.0,176.0,31.0,1.0
102237,-0.7332770000000001,-0.95319,0.401417,-0.025213,-0.40125,1.16035,0.0,3.0,90.0,176.0,31.0,1.0
102238,-0.7760699999999999,-0.948991,0.45645,-0.028343,-0.415672,1.114656,0.0,3.0,90.0,176.0,31.0,1.0
102239,-0.816994,-0.954896,0.49329,-0.025529,-0.341141,1.053765,0.0,3.0,90.0,176.0,31.0,1.0
102240,-0.85714,-0.969482,0.508599,-0.157306,-0.498512,0.833899,0.0,3.0,90.0,176.0,31.0,1.0
102241,-0.900489,-0.992382,0.495979,-0.207827,-0.48528,0.605823,0.0,3.0,90.0,176.0,31.0,1.0
102242,-0.963603,-1.026143,0.443053,-0.252415,-0.284522,0.374597,0.0,3.0,90.0,176.0,31.0,1.0
102243,-1.069593,-1.066749,0.338744,-0.296714,0.197851,0.00946,0.0,3.0,90.0,176.0,31.0,1.0
102244,-1.184918,-1.098209,0.218125,-0.239436,1.503848,-1.520836,0.0,3.0,90.0,176.0,31.0,1.0
102245,-1.1678620000000002,-1.102227,0.2425,-0.085314,1.809582,-2.506162,0.0,3.0,90.0,176.0,31.0,1.0
102246,-1.088267,-1.102047,0.348925,0.992025,0.603807,-1.266111,0.0,3.0,90.0,176.0,31.0,1.0
102247,-1.057188,-1.137953,0.412266,1.464264,-0.323274,-1.073489,0.0,3.0,90.0,176.0,31.0,1.0
102248,-1.10787,-1.169715,0.424497,2.113198,-0.402924,0.823267,0.0,3.0,90.0,176.0,31.0,1.0
102249,-1.1655799999999998,-1.183102,0.368686,0.954926,-0.252718,2.549345,0.0,3.0,90.0,176.0,31.0,1.0
102250,-1.1467459999999998,-1.165271,0.333074,0.078484,0.123021,1.654869,0.0,3.0,90.0,176.0,31.0,1.0
102251,-1.121896,-1.112315,0.345185,-1.326063,1.088977,-0.536738,0.0,3.0,90.0,176.0,31.0,1.0
102252,-1.2184620000000002,-1.087391,0.362379,-0.087202,-0.197032,0.8318260000000001,0.0,3.0,90.0,176.0,31.0,1.0
102253,-1.295542,-1.074245,0.369241,0.282795,-0.457402,0.831139,0.0,3.0,90.0,176.0,31.0,1.0
102254,-1.356661,-1.054201,0.369711,0.441221,-0.594359,0.8643719999999999,0.0,3.0,90.0,176.0,31.0,1.0
102255,-1.429381,-1.054668,0.354177,0.630167,-0.365556,0.864784,0.0,3.0,90.0,176.0,31.0,1.0
102256,-1.525902,-1.073108,0.30087,0.6953189999999999,0.5751689999999999,0.8963180000000001,0.0,3.0,90.0,176.0,31.0,1.0
102257,-1.598068,-1.078236,0.239893,0.763346,0.891336,0.684951,0.0,3.0,90.0,176.0,31.0,1.0
102258,-1.627883,-1.0841,0.218863,0.752626,0.369184,0.10293900000000003,0.0,3.0,90.0,176.0,31.0,1.0
102259,-1.7086580000000002,-1.104608,0.166165,0.468646,-0.147499,-0.38492,0.0,3.0,90.0,176.0,31.0,1.0
102260,-1.908627,-1.122631,-0.006581,0.105417,-0.216872,-0.085386,0.0,3.0,90.0,176.0,31.0,1.0
102261,-2.12663,-1.116054,-0.22560300000000005,-0.16833,-0.001936,-0.40665,0.0,3.0,90.0,176.0,31.0,1.0
102262,-2.221445,-1.094372,-0.32734800000000003,-0.33686900000000003,-0.138854,-0.26625,0.0,3.0,90.0,176.0,31.0,1.0
102263,-2.24249,-1.067859,-0.347738,-0.336169,-0.104244,-0.13616,0.0,3.0,90.0,176.0,31.0,1.0
102264,-2.267182,-1.040168,-0.383149,-0.334666,-0.011491,-0.081496,0.0,3.0,90.0,176.0,31.0,1.0
102265,-2.289409,-1.013672,-0.418893,0.44514,0.262305,-0.486486,0.0,3.0,90.0,176.0,31.0,1.0
102266,-2.31015,-0.99503,-0.438163,0.556758,0.304581,-0.583526,0.0,3.0,90.0,176.0,31.0,1.0
102267,-2.332462,-0.987814,-0.451006,0.636201,0.329924,-0.586858,0.0,3.0,90.0,176.0,31.0,1.0
102268,-2.341218,-0.982941,-0.4487930000000001,0.840792,0.340888,-0.532065,0.0,3.0,90.0,176.0,31.0,1.0
102269,-2.3455310000000003,-0.972305,-0.43444,0.834666,0.4328010000000001,-0.466063,0.0,3.0,90.0,176.0,31.0,1.0
102270,-2.35996,-0.959942,-0.428508,0.759488,0.432123,-0.40715,0.0,3.0,90.0,176.0,31.0,1.0
102271,-2.3803240000000003,-0.954217,-0.437898,0.544642,0.265087,-0.305674,0.0,3.0,90.0,176.0,31.0,1.0
102272,-2.396916,-0.955437,-0.44724,0.20637,0.23304,-0.432001,0.0,3.0,90.0,176.0,31.0,1.0
102273,-2.399624,-0.958469,-0.441399,0.057503,0.20514,-0.515614,0.0,3.0,90.0,176.0,31.0,1.0
102274,-2.373835,-0.962395,-0.400164,0.542017,0.685968,-0.427979,0.0,3.0,90.0,176.0,31.0,1.0
102275,-2.335731,-0.969876,-0.329316,0.724935,0.8762190000000001,-0.396883,0.0,3.0,90.0,176.0,31.0,1.0
102276,-2.295303,-0.992944,-0.239267,0.868965,1.0544209999999998,-0.426541,0.0,3.0,90.0,176.0,31.0,1.0
102277,-2.2521560000000003,-1.035074,-0.139154,0.812934,0.6389560000000001,-0.36002,0.0,3.0,90.0,176.0,31.0,1.0
102278,-2.209052,-1.092775,-0.028901,0.561071,0.344362,-0.312127,0.0,3.0,90.0,176.0,31.0,1.0
102279,-2.143152,-1.153258,0.107212,0.17633800000000002,0.159137,-0.210117,0.0,3.0,90.0,176.0,31.0,1.0
102280,-2.05098,-1.206785,0.267302,0.025757,0.346774,0.389666,0.0,3.0,90.0,176.0,31.0,1.0
102281,-1.91896,-1.241578,0.4542100000000001,-0.03525,0.592492,0.758965,0.0,3.0,90.0,176.0,31.0,1.0
102282,-1.722287,-1.252985,0.678481,-0.202182,0.586242,0.824197,0.0,3.0,90.0,176.0,31.0,1.0
102283,-1.497394,-1.247218,0.8925299999999999,-0.185716,0.31547600000000003,0.521181,0.0,3.0,90.0,176.0,31.0,1.0
102284,-1.318519,-1.24643,1.05195,0.042831,0.098458,-0.038431,0.0,3.0,90.0,176.0,31.0,1.0
102285,-1.282547,-1.259189,1.128375,0.424635,0.170152,-0.227194,0.0,3.0,90.0,176.0,31.0,1.0
102286,-1.173553,-1.27717,1.279755,0.610108,0.233183,0.383178,0.0,3.0,90.0,176.0,31.0,1.0
102287,-0.989191,-1.279466,1.48275,0.314867,0.054970000000000005,0.530116,0.0,3.0,90.0,176.0,31.0,1.0
102288,-0.816157,-1.278143,1.663641,-0.148401,-0.261254,0.5094479999999999,0.0,3.0,90.0,176.0,31.0,1.0
102289,-0.676711,-1.275293,1.818309,-0.242515,-0.338949,0.462741,0.0,3.0,90.0,176.0,31.0,1.0
102290,-0.590286,-1.265109,1.941375,-0.107415,-0.458676,0.423248,0.0,3.0,90.0,176.0,31.0,1.0
102291,-0.54408,-1.259707,2.022004,0.002343,-0.7376149999999999,0.436343,0.0,3.0,90.0,176.0,31.0,1.0
102292,-0.5294909999999999,-1.264206,2.059911,-0.10513,-0.7931199999999999,0.412268,0.0,3.0,90.0,176.0,31.0,1.0
102293,-0.552362,-1.279991,2.050134,-0.226621,-0.860265,0.34783600000000003,0.0,3.0,90.0,176.0,31.0,1.0
102294,-0.629344,-1.300674,1.975416,-0.089257,-0.8977129999999999,0.29227,0.0,3.0,90.0,176.0,31.0,1.0
102295,-0.7719729999999999,-1.321846,1.829039,0.005522999999999999,-0.833536,0.287331,0.0,3.0,90.0,176.0,31.0,1.0
102296,-0.985823,-1.333454,1.614142,-0.063414,-0.445172,0.06565800000000001,0.0,3.0,90.0,176.0,31.0,1.0
102297,-1.237658,-1.327814,1.374142,-0.101866,-0.028593,-0.191559,0.0,3.0,90.0,176.0,31.0,1.0
102298,-1.454481,-1.318356,1.182601,-0.081203,0.111437,-0.326652,0.0,3.0,90.0,176.0,31.0,1.0
102299,-1.597865,-1.316382,1.05188,-0.12211500000000003,0.432076,-0.399619,0.0,3.0,90.0,176.0,31.0,1.0
102300,-1.62703,-1.313309,0.986939,0.08329199999999999,0.215538,-0.579009,0.0,3.0,90.0,176.0,31.0,1.0
102301,-1.676608,-1.307721,0.913006,0.206765,0.111386,-0.579588,0.0,3.0,90.0,176.0,31.0,1.0
102302,-1.811276,-1.301051,0.7929649999999999,0.434708,-0.118822,-0.374958,0.0,3.0,90.0,176.0,31.0,1.0
102303,-1.979821,-1.294721,0.655892,0.391732,-0.324865,0.371103,0.0,3.0,90.0,176.0,31.0,1.0
102304,-2.098169,-1.29705,0.549963,0.338059,-0.198467,0.379091,0.0,3.0,90.0,176.0,31.0,1.0
102305,-2.1577610000000003,-1.304865,0.478107,0.244886,0.161571,0.11799,0.0,3.0,90.0,176.0,31.0,1.0
102306,-2.210488,-1.294608,0.438384,0.314543,0.452342,-0.109582,0.0,3.0,90.0,176.0,31.0,1.0
102307,-2.277142,-1.27139,0.40046,0.164633,1.304025,-0.673351,0.0,3.0,90.0,176.0,31.0,1.0
102308,-2.277896,-1.259072,0.411476,0.056874,1.238273,-0.41368,0.0,3.0,90.0,176.0,31.0,1.0
102309,-2.316875,-1.25841,0.387506,-0.132154,1.917202,-0.79548,0.0,3.0,90.0,176.0,31.0,1.0
102310,-2.365668,-1.260995,0.315029,-0.205904,0.058348,-0.278359,0.0,3.0,90.0,176.0,31.0,1.0
102311,-2.350035,-1.28346,0.271672,-0.224289,-0.431628,-0.012485,0.0,3.0,90.0,176.0,31.0,1.0
102312,-2.3356470000000003,-1.304667,0.254497,-0.18787,-0.809355,-0.046341,0.0,3.0,90.0,176.0,31.0,1.0
102313,-2.314276,-1.319135,0.267589,-0.261364,-0.579554,-0.050646,0.0,3.0,90.0,176.0,31.0,1.0
102314,-2.285838,-1.315293,0.306998,-0.5139239999999999,0.147607,-0.637191,0.0,3.0,90.0,176.0,31.0,1.0
102315,-2.262976,-1.294079,0.365235,0.343538,0.15298699999999998,-0.945668,0.0,3.0,90.0,176.0,31.0,1.0
102316,-2.158393,-1.288033,0.457445,0.622827,0.06379,-0.938418,0.0,3.0,90.0,176.0,31.0,1.0
102317,-2.0520240000000003,-1.294932,0.501475,0.713173,0.083342,-0.7037359999999999,0.0,3.0,90.0,176.0,31.0,1.0
102318,-1.912934,-1.315796,0.571379,-0.21678000000000006,-0.156155,-0.985152,0.0,3.0,90.0,176.0,31.0,1.0
102319,-1.684203,-1.333725,0.760254,-0.406788,-0.500625,-0.390971,0.0,3.0,90.0,176.0,31.0,1.0
102320,-1.383701,-1.338593,1.021855,-0.06175,-0.358233,-0.128631,0.0,3.0,90.0,176.0,31.0,1.0
102321,-1.085775,-1.32226,1.289198,0.5259229999999999,0.053218,0.396051,0.0,3.0,90.0,176.0,31.0,1.0
102322,-0.8543229999999999,-1.287971,1.545818,1.367094,0.5141399999999999,0.6431819999999999,0.0,3.0,90.0,176.0,31.0,1.0
102323,-0.683237,-1.259477,1.76462,1.1062610000000002,0.561192,0.903246,0.0,3.0,90.0,176.0,31.0,1.0
102324,-0.493385,-1.245764,1.965503,0.215677,0.346763,0.746609,0.0,3.0,90.0,176.0,31.0,1.0
102325,-0.313268,-1.236218,2.128454,-0.403462,0.194917,-0.149241,0.0,3.0,90.0,176.0,31.0,1.0
102326,-0.203492,-1.2291379999999998,2.223881,-0.879343,0.611038,-0.224039,0.0,3.0,90.0,176.0,31.0,1.0
102327,-0.117031,-1.242304,2.279717,-0.6120800000000001,0.252247,-0.313783,0.0,3.0,90.0,176.0,31.0,1.0
102328,-0.082703,-1.274228,2.293666,-0.277388,-0.379609,-0.026226,0.0,3.0,90.0,176.0,31.0,1.0
102329,-0.11656,-1.318035,2.2502150000000003,0.067977,-0.694788,0.091816,0.0,3.0,90.0,176.0,31.0,1.0
102330,-0.250656,-1.359802,2.119971,0.264408,-0.72764,0.064996,0.0,3.0,90.0,176.0,31.0,1.0
102331,-0.536193,-1.385127,1.848336,0.290391,-0.660837,-0.005622,0.0,3.0,90.0,176.0,31.0,1.0
102332,-0.921619,-1.3828129999999998,1.481541,0.0665,-0.290916,-0.003857,0.0,3.0,90.0,176.0,31.0,1.0
102333,-1.273348,-1.365709,1.173842,-0.037375,0.486914,0.056173,0.0,3.0,90.0,176.0,31.0,1.0
102334,-1.595622,-1.35232,0.923487,-0.00421,0.538221,-0.077737,0.0,3.0,90.0,176.0,31.0,1.0
102335,-1.926709,-1.335353,0.659245,-0.249331,0.40297,-0.743754,0.0,3.0,90.0,176.0,31.0,1.0
102336,-2.11231,-1.316993,0.514724,-0.157621,0.227073,-1.324678,0.0,3.0,90.0,176.0,31.0,1.0
102337,-2.2761720000000003,-1.311594,0.395569,0.27712,-0.4754600000000001,-0.526879,0.0,3.0,90.0,176.0,31.0,1.0
102338,-2.438243,-1.303201,0.231226,0.203722,-0.710274,-0.313682,0.0,3.0,90.0,176.0,31.0,1.0
102339,-2.493717,-1.3042200000000002,0.121337,0.04404,-0.954028,0.327834,0.0,3.0,90.0,176.0,31.0,1.0
102340,-2.502774,-1.316726,0.093055,-0.172854,-0.348131,0.035263,0.0,3.0,90.0,176.0,31.0,1.0
102341,-2.5034970000000003,-1.312891,0.100017,-0.392713,0.14608,-0.327141,0.0,3.0,90.0,176.0,31.0,1.0
102342,-2.536109,-1.274471,0.098643,-0.231835,0.73969,0.098981,0.0,3.0,90.0,176.0,31.0,1.0
102343,-2.532408,-1.252769,0.11921,-0.017557,1.175771,-0.349237,0.0,3.0,90.0,176.0,31.0,1.0
102344,-2.437059,-1.256009,0.194024,0.426626,3.431432,-2.506686,0.0,3.0,90.0,176.0,31.0,1.0
102345,-2.368057,-1.262846,0.21243,0.335845,-0.82463,0.599439,0.0,3.0,90.0,176.0,31.0,1.0
102346,-2.463726,-1.275515,0.15265399999999998,0.461163,-1.02656,0.25863200000000003,0.0,3.0,90.0,176.0,31.0,1.0
102347,-2.48008,-1.302462,0.146844,0.453844,-0.857768,0.070491,0.0,3.0,90.0,176.0,31.0,1.0
102348,-2.35875,-1.341112,0.226149,0.4743729999999999,0.531434,-0.762366,0.0,3.0,90.0,176.0,31.0,1.0
102349,-2.235273,-1.3488440000000002,0.261819,0.941121,1.20994,-1.368247,0.0,3.0,90.0,176.0,31.0,1.0
102350,-2.178863,-1.351014,0.212116,0.625456,0.485771,-1.859737,0.0,3.0,90.0,176.0,31.0,1.0
102351,-2.010632,-1.386615,0.312429,-0.218863,0.065238,-1.12074,0.0,3.0,90.0,176.0,31.0,1.0
102352,-1.613752,-1.42682,0.697892,-0.631827,-0.113967,-0.094158,0.0,3.0,90.0,176.0,31.0,1.0
102353,-1.036324,-1.435295,1.2739120000000002,-0.399858,-0.375203,0.517544,0.0,3.0,90.0,176.0,31.0,1.0
102354,-0.593536,-1.394607,1.732201,0.018051,-0.5165770000000001,0.911903,0.0,3.0,90.0,176.0,31.0,1.0
102355,-0.436357,-1.344809,1.941875,0.775267,-0.564646,1.0524870000000002,0.0,3.0,90.0,176.0,31.0,1.0
102356,-0.338773,-1.326091,2.08619,0.7738229999999999,-0.43989,0.698901,0.0,3.0,90.0,176.0,31.0,1.0
102357,-0.218567,-1.319289,2.174227,0.037754,0.848097,0.019909,0.0,3.0,90.0,176.0,31.0,1.0
102358,-0.168309,-1.308951,2.19611,-0.527363,0.5611550000000001,0.14940499999999998,0.0,3.0,90.0,176.0,31.0,1.0
102359,-0.160197,-1.297696,2.197168,-0.4701010000000001,0.103635,0.175052,0.0,3.0,90.0,176.0,31.0,1.0
102360,-0.174199,-1.31176,2.171304,-0.435495,-0.09388,0.16952799999999998,0.0,3.0,90.0,176.0,31.0,1.0
102361,-0.24611,-1.350139,2.078646,-0.205758,-0.193695,0.0016300000000000002,0.0,3.0,90.0,176.0,31.0,1.0
102362,-0.443205,-1.3949200000000002,1.862981,0.068922,-0.11406,-0.226687,0.0,3.0,90.0,176.0,31.0,1.0
102363,-0.814629,-1.421991,1.494151,0.115098,-0.052227,-0.221397,0.0,3.0,90.0,176.0,31.0,1.0
102364,-1.275399,-1.421335,1.064913,0.065725,0.055720000000000006,-0.037286,0.0,3.0,90.0,176.0,31.0,1.0
102365,-1.6692169999999995,-1.397151,0.7120529999999999,0.11176300000000003,0.316949,-0.304252,0.0,3.0,90.0,176.0,31.0,1.0
102366,-1.979967,-1.361451,0.436198,0.227235,0.258466,-0.450928,0.0,3.0,90.0,176.0,31.0,1.0
102367,-2.216752,-1.321003,0.231118,0.239146,0.029449,-0.365638,0.0,3.0,90.0,176.0,31.0,1.0
102368,-2.359805,-1.291748,0.119361,0.205264,-0.150374,-0.338751,0.0,3.0,90.0,176.0,31.0,1.0
102369,-2.4410130000000003,-1.278144,0.053620000000000015,-0.047048,-0.550744,-0.563746,0.0,3.0,90.0,176.0,31.0,1.0
102370,-2.461021,-1.2728,0.018507,-0.148133,-0.586923,-1.836336,0.0,3.0,90.0,176.0,31.0,1.0
102371,-2.4425220000000003,-1.276045,0.01712,0.297007,-0.588558,-0.045043,0.0,3.0,90.0,176.0,31.0,1.0
102372,-2.432808,-1.268103,0.025812,0.147756,-0.6846399999999999,0.946398,0.0,3.0,90.0,176.0,31.0,1.0
102373,-2.366765,-1.271364,0.068587,0.17132,-0.13351300000000002,0.609259,0.0,3.0,90.0,176.0,31.0,1.0
102374,-2.255585,-1.262786,0.152445,-0.051571000000000006,0.936817,0.2169,0.0,3.0,90.0,176.0,31.0,1.0
102375,-2.236988,-1.240067,0.184947,0.066079,1.63917,-0.8528969999999999,0.0,3.0,90.0,176.0,31.0,1.0
102376,-2.433088,-1.19021,0.052503,1.160008,3.196126,-1.979933,0.0,3.0,90.0,176.0,31.0,1.0
102377,-2.305967,-1.222545,-0.010526,-0.064599,-0.087478,-0.201745,0.0,3.0,90.0,176.0,31.0,1.0
102378,-2.283601,-1.254478,-0.010365,0.051394,-0.8155600000000001,-0.119647,0.0,3.0,90.0,176.0,31.0,1.0
102379,-2.313005,-1.283315,0.031283,0.183559,-0.892128,0.135724,0.0,3.0,90.0,176.0,31.0,1.0
102380,-2.25113,-1.313538,0.140464,0.14545,-0.471486,0.125788,0.0,3.0,90.0,176.0,31.0,1.0
102381,-2.173042,-1.317373,0.22285,-0.178978,0.39365,-0.364052,0.0,3.0,90.0,176.0,31.0,1.0
102382,-2.200275,-1.299786,0.178814,0.346479,0.536652,-0.365054,0.0,3.0,90.0,176.0,31.0,1.0
102383,-2.157477,-1.302551,0.153452,0.8724559999999999,0.204525,-0.834324,0.0,3.0,90.0,176.0,31.0,1.0
102384,-2.056474,-1.327289,0.159565,0.578979,0.557425,-1.5841459999999998,0.0,3.0,90.0,176.0,31.0,1.0
102385,-1.89861,-1.375894,0.254228,0.152376,0.5136390000000001,-1.4997120000000002,0.0,3.0,90.0,176.0,31.0,1.0
102386,-1.485991,-1.421081,0.6782590000000001,-0.147519,0.385271,-0.282916,0.0,3.0,90.0,176.0,31.0,1.0
102387,-0.874138,-1.411831,1.328855,0.224941,0.191625,0.927394,0.0,3.0,90.0,176.0,31.0,1.0
102388,-0.521727,-1.362993,1.733365,0.35054,0.186156,1.344561,0.0,3.0,90.0,176.0,31.0,1.0
102389,-0.331046,-1.320293,1.949437,0.295489,-0.316185,0.5090939999999999,0.0,3.0,90.0,176.0,31.0,1.0
102390,-0.169735,-1.276536,2.125352,-0.181753,0.164855,-0.089649,0.0,3.0,90.0,176.0,31.0,1.0
102391,-0.03951,-1.239281,2.247823,-0.241722,0.392737,0.054706,0.0,3.0,90.0,176.0,31.0,1.0
102392,0.044842,-1.216909,2.327541,-0.742097,-0.145995,0.339996,0.0,3.0,90.0,176.0,31.0,1.0
102393,0.115962,-1.212855,2.3723240000000003,-0.649468,-0.37444,0.125971,0.0,3.0,90.0,176.0,31.0,1.0
102394,0.154876,-1.2310020000000002,2.37184,-0.552373,-0.401899,0.06747,0.0,3.0,90.0,176.0,31.0,1.0
102395,0.141816,-1.275161,2.322917,-0.029276,-0.330335,-0.0626,0.0,3.0,90.0,176.0,31.0,1.0
102396,0.020991,-1.338162,2.178714,0.294112,-0.364404,-0.14214300000000002,0.0,3.0,90.0,176.0,31.0,1.0
102397,-0.307972,-1.396301,1.835788,0.282463,-0.165417,0.016008,0.0,3.0,90.0,176.0,31.0,1.0
102398,-0.86065,-1.412223,1.278273,0.102568,0.136692,0.16080899999999998,0.0,3.0,90.0,176.0,31.0,1.0
102399,-1.281388,-1.389599,0.8788860000000001,0.235129,0.107253,0.199859,0.0,3.0,90.0,176.0,31.0,1.0
102400,-1.589549,-1.360935,0.6076550000000001,0.291609,0.173323,0.124634,0.0,3.0,90.0,176.0,31.0,1.0
102401,-1.848478,-1.320753,0.393879,0.26073,0.233598,-0.068742,0.0,3.0,90.0,176.0,31.0,1.0
102402,-2.076987,-1.283193,0.223489,0.148001,0.138715,-0.264718,0.0,3.0,90.0,176.0,31.0,1.0
102403,-2.279523,-1.25404,0.07914,-0.007829000000000001,0.002096,-0.496121,0.0,3.0,90.0,176.0,31.0,1.0
102404,-2.378777,-1.240953,-0.028755000000000006,0.432954,-0.395022,-1.320677,0.0,3.0,90.0,176.0,31.0,1.0
102405,-2.406077,-1.230856,-0.125842,0.295396,-0.622447,0.094041,0.0,3.0,90.0,176.0,31.0,1.0
102406,-2.374148,-1.23581,-0.128386,-0.035063,-0.412066,0.365233,0.0,3.0,90.0,176.0,31.0,1.0
102407,-2.316266,-1.238123,-0.076922,-0.12604,0.577487,-0.26150100000000004,0.0,3.0,90.0,176.0,31.0,1.0
102408,-2.323757,-1.213751,-0.06102000000000001,0.245522,1.82715,-1.104522,0.0,3.0,90.0,176.0,31.0,1.0
102409,-2.307682,-1.211261,-0.027826,0.090122,2.405157,-1.54509,0.0,3.0,90.0,176.0,31.0,1.0
102410,-2.19671,-1.235378,0.047895,0.285274,0.302645,-0.402406,0.0,3.0,90.0,176.0,31.0,1.0
102411,-2.106471,-1.263152,0.118367,0.009374,-0.617265,0.728839,0.0,3.0,90.0,176.0,31.0,1.0
102412,-2.012802,-1.281759,0.202163,0.195944,-0.8207770000000001,0.358738,0.0,3.0,90.0,176.0,31.0,1.0
102413,-1.933308,-1.297716,0.279546,0.393388,-0.716882,0.337883,0.0,3.0,90.0,176.0,31.0,1.0
102414,-1.926817,-1.303492,0.304255,0.59832,-0.36915,0.182221,0.0,3.0,90.0,176.0,31.0,1.0
102415,-1.980313,-1.298474,0.227012,1.175834,0.811235,-0.702851,0.0,3.0,90.0,176.0,31.0,1.0
102416,-1.91148,-1.31853,0.114185,1.221152,0.660435,-1.286167,0.0,3.0,90.0,176.0,31.0,1.0
102417,-1.808117,-1.358593,0.097509,0.572258,0.51503,-2.382258,0.0,3.0,90.0,176.0,31.0,1.0
102418,-1.505062,-1.410057,0.394228,-0.182748,0.428128,-0.182345,0.0,3.0,90.0,176.0,31.0,1.0
102419,-0.928692,-1.429381,1.005209,-0.33176,0.12778,0.22784,0.0,3.0,90.0,176.0,31.0,1.0
102420,-0.4638640000000001,-1.395723,1.526297,0.028191,-0.072131,1.223046,0.0,3.0,90.0,176.0,31.0,1.0
102421,-0.249234,-1.3512030000000002,1.817856,0.35672,-0.250217,1.172007,0.0,3.0,90.0,176.0,31.0,1.0
102422,-0.105983,-1.30793,2.011957,0.113699,-0.371548,0.372711,0.0,3.0,90.0,176.0,31.0,1.0
102423,-0.023299,-1.2779200000000002,2.097635,-0.507572,0.095729,0.075711,0.0,3.0,90.0,176.0,31.0,1.0
102424,0.009278,-1.264622,2.1214060000000003,-0.7492409999999999,0.086881,0.33813200000000004,0.0,3.0,90.0,176.0,31.0,1.0
102425,0.013531,-1.263647,2.115237,-0.501588,-0.30789,0.401104,0.0,3.0,90.0,176.0,31.0,1.0
102426,-0.020635,-1.2861360000000002,2.053412,-0.371922,-0.449442,0.404402,0.0,3.0,90.0,176.0,31.0,1.0
102427,-0.100551,-1.335285,1.929727,-0.019242,-0.194609,0.023757,0.0,3.0,90.0,176.0,31.0,1.0
102428,-0.284408,-1.390883,1.7018349999999998,0.228289,0.006055,-0.110324,0.0,3.0,90.0,176.0,31.0,1.0
102429,-0.666165,-1.428944,1.295813,0.282296,0.348804,-0.285495,0.0,3.0,90.0,176.0,31.0,1.0
102430,-1.146215,-1.42658,0.8272520000000001,0.378364,0.374532,-0.342452,0.0,3.0,90.0,176.0,31.0,1.0
102431,-1.572023,-1.396663,0.452378,0.599587,0.205614,-0.351439,0.0,3.0,90.0,176.0,31.0,1.0
102432,-1.913968,-1.35276,0.18955,0.504154,-0.0138,-0.248496,0.0,3.0,90.0,176.0,31.0,1.0
102433,-2.118767,-1.313238,0.049006,0.269499,-0.145299,-0.481808,0.0,3.0,90.0,176.0,31.0,1.0
102434,-2.1463970000000003,-1.299659,0.028083,0.075209,-0.289013,-1.064051,0.0,3.0,90.0,176.0,31.0,1.0
102435,-2.1332720000000003,-1.298665,0.056176,0.210527,-0.129613,0.383224,0.0,3.0,90.0,176.0,31.0,1.0
102436,-2.104563,-1.296309,0.137748,-0.158744,0.25675,0.49185,0.0,3.0,90.0,176.0,31.0,1.0
102437,-2.107846,-1.277995,0.175469,-0.548615,1.117756,0.015658000000000002,0.0,3.0,90.0,176.0,31.0,1.0
102438,-2.263091,-1.241755,0.071806,-0.548129,2.301404,-1.216853,0.0,3.0,90.0,176.0,31.0,1.0
102439,-2.274437,-1.2267290000000002,0.035638,-0.258679,2.632264,-2.543933,0.0,3.0,90.0,176.0,31.0,1.0
102440,-2.125471,-1.25058,0.108038,0.018785,-0.8475590000000001,0.738678,0.0,3.0,90.0,176.0,31.0,1.0
102441,-2.01186,-1.2732139999999998,0.194986,0.412229,-0.8611540000000001,0.57767,0.0,3.0,90.0,176.0,31.0,1.0
102442,-1.906698,-1.289029,0.289058,0.491716,-0.772654,0.324308,0.0,3.0,90.0,176.0,31.0,1.0
102443,-1.841738,-1.291305,0.35811,0.8332309999999999,-0.1156,-0.395972,0.0,3.0,90.0,176.0,31.0,1.0
102444,-1.913216,-1.27256,0.308775,0.812512,0.645966,-0.103904,0.0,3.0,90.0,176.0,31.0,1.0
102445,-1.991025,-1.262649,0.205211,0.6669970000000001,0.173965,-0.14873699999999998,0.0,3.0,90.0,176.0,31.0,1.0
102446,-2.00441,-1.262233,0.148465,0.527722,0.040744,-0.363323,0.0,3.0,90.0,176.0,31.0,1.0
102447,-1.981459,-1.264158,0.11784,-0.112143,-0.143677,-1.1731120000000002,0.0,3.0,90.0,176.0,31.0,1.0
102448,-1.907688,-1.278478,0.151906,-0.08831699999999999,0.227648,-0.975669,0.0,3.0,90.0,176.0,31.0,1.0
102449,-1.808111,-1.301183,0.256265,0.06751499999999999,0.367166,-0.529503,0.0,3.0,90.0,176.0,31.0,1.0
102450,-1.589376,-1.3208540000000002,0.468036,0.6967949999999999,0.212409,-0.409334,0.0,3.0,90.0,176.0,31.0,1.0
102451,-1.2963049999999998,-1.32612,0.764839,0.8233959999999999,0.6237779999999999,-0.6281,0.0,3.0,90.0,176.0,31.0,1.0
102452,-0.99829,-1.308922,1.107795,0.404578,0.937811,0.134201,0.0,3.0,90.0,176.0,31.0,1.0
102453,-0.766862,-1.268527,1.416325,0.102104,0.907825,1.118543,0.0,3.0,90.0,176.0,31.0,1.0
102454,-0.618325,-1.2178,1.616386,-0.459763,-0.113741,0.805422,0.0,3.0,90.0,176.0,31.0,1.0
102455,-0.515926,-1.180965,1.759581,-0.755253,-0.69365,0.410011,0.0,3.0,90.0,176.0,31.0,1.0
102456,-0.460055,-1.152583,1.828987,-0.7575649999999999,-0.701246,0.164646,0.0,3.0,90.0,176.0,31.0,1.0
102457,-0.449531,-1.13505,1.835582,-0.183791,0.072448,0.288838,0.0,3.0,90.0,176.0,31.0,1.0
102458,-0.443848,-1.136667,1.823221,-0.066482,-0.289835,0.354849,0.0,3.0,90.0,176.0,31.0,1.0
102459,-0.456255,-1.157438,1.784511,0.028126,-0.375753,0.318095,0.0,3.0,90.0,176.0,31.0,1.0
102460,-0.512323,-1.191984,1.704827,0.33934699999999995,-0.203412,0.263139,0.0,3.0,90.0,176.0,31.0,1.0
102461,-0.624468,-1.234284,1.574834,0.394647,-0.051105000000000005,0.039462,0.0,3.0,90.0,176.0,31.0,1.0
102462,-0.815275,-1.270843,1.376083,0.36807,0.048663,-0.0255,0.0,3.0,90.0,176.0,31.0,1.0
102463,-1.074868,-1.293953,1.121386,0.424627,0.108634,-0.07359299999999999,0.0,3.0,90.0,176.0,31.0,1.0
102464,-1.374507,-1.304354,0.856658,0.488878,0.033257,-0.035825,0.0,3.0,90.0,176.0,31.0,1.0
102465,-1.673296,-1.30286,0.615383,0.491559,-0.059870000000000013,-0.173708,0.0,3.0,90.0,176.0,31.0,1.0
102466,-1.925521,-1.291388,0.435471,0.360846,-0.14292,-0.384585,0.0,3.0,90.0,176.0,31.0,1.0
102467,-2.114924,-1.283442,0.323435,0.39855,-0.008251999999999999,-1.156609,0.0,3.0,90.0,176.0,31.0,1.0
102468,-2.188383,-1.296574,0.32671999999999995,0.332331,-0.443166,-1.280547,0.0,3.0,90.0,176.0,31.0,1.0
102469,-2.175137,-1.315902,0.389831,-0.171671,-1.229928,-0.401576,0.0,3.0,90.0,176.0,31.0,1.0
102470,-2.215657,-1.317078,0.370955,-0.373943,-1.263655,0.35144200000000003,0.0,3.0,90.0,176.0,31.0,1.0
102471,-2.352446,-1.303157,0.237296,-0.410859,-0.6489229999999999,0.502242,0.0,3.0,90.0,176.0,31.0,1.0
102472,-2.419895,-1.284541,0.164959,-0.712029,2.277691,0.150448,0.0,3.0,90.0,176.0,31.0,1.0
102473,-2.398539,-1.255357,0.266033,0.054430999999999986,1.414757,-1.0847209999999998,0.0,3.0,90.0,176.0,31.0,1.0
102474,-2.513491,-1.241829,0.28702300000000003,0.4503680000000001,2.658009,-1.800148,0.0,3.0,90.0,176.0,31.0,1.0
102475,-2.42975,-1.261798,0.344618,-0.117389,1.122709,-0.301772,0.0,3.0,90.0,176.0,31.0,1.0
102476,-2.30795,-1.283658,0.388243,0.028683,-0.5631689999999999,0.5977319999999999,0.0,3.0,90.0,176.0,31.0,1.0
102477,-2.2581900000000004,-1.302773,0.4197520000000001,0.37613,-0.564959,0.370611,0.0,3.0,90.0,176.0,31.0,1.0
102478,-2.224898,-1.3145639999999998,0.47782,0.631132,-0.283636,0.328568,0.0,3.0,90.0,176.0,31.0,1.0
102479,-2.218958,-1.313206,0.543361,0.724826,0.031574,-0.390341,0.0,3.0,90.0,176.0,31.0,1.0
102480,-2.332442,-1.282349,0.5156850000000001,0.623957,0.326561,-0.945458,0.0,3.0,90.0,176.0,31.0,1.0
102481,-2.358381,-1.273652,0.45908,0.30297,0.121704,-1.006711,0.0,3.0,90.0,176.0,31.0,1.0
102482,-2.3456490000000003,-1.284579,0.455463,-0.180643,-0.108718,-0.589866,0.0,3.0,90.0,176.0,31.0,1.0
102483,-2.3542810000000003,-1.28574,0.486198,-0.096626,-0.294866,-0.527536,0.0,3.0,90.0,176.0,31.0,1.0
102484,-2.289055,-1.29022,0.595268,0.087039,-0.207097,-0.463524,0.0,3.0,90.0,176.0,31.0,1.0
102485,-2.143366,-1.300731,0.781099,0.157619,0.388786,-0.685245,0.0,3.0,90.0,176.0,31.0,1.0
102486,-1.923136,-1.3165950000000002,1.047393,0.387857,0.942368,-0.758587,0.0,3.0,90.0,176.0,31.0,1.0
102487,-1.662082,-1.331295,1.355301,0.330614,0.500452,0.199172,0.0,3.0,90.0,176.0,31.0,1.0
102488,-1.387626,-1.34241,1.684943,0.229829,0.29533000000000004,0.866431,0.0,3.0,90.0,176.0,31.0,1.0
102489,-1.083775,-1.347289,1.9994490000000005,0.35899200000000003,0.158022,0.38015,0.0,3.0,90.0,176.0,31.0,1.0
102490,-0.859584,-1.356088,2.2305770000000003,0.235979,0.16926300000000002,0.129313,0.0,3.0,90.0,176.0,31.0,1.0
102491,-0.621942,-1.367592,2.467659,-0.044805000000000005,0.944205,-0.6381680000000001,0.0,3.0,90.0,176.0,31.0,1.0
102492,-0.352006,-1.366594,2.717696,-0.340552,0.561121,-0.309836,0.0,3.0,90.0,176.0,31.0,1.0
102493,-0.18555,-1.358974,2.896431,-0.444386,-0.006443000000000001,0.096613,0.0,3.0,90.0,176.0,31.0,1.0
102494,-0.116952,-1.356169,2.993563,-0.208594,-0.211721,0.34117800000000004,0.0,3.0,90.0,176.0,31.0,1.0
102495,-0.113864,-1.358273,3.029904,0.082312,-0.485848,0.33382399999999995,0.0,3.0,90.0,176.0,31.0,1.0
102496,-0.153802,-1.368126,3.032175,0.005152,-0.6225069999999999,0.439931,0.0,3.0,90.0,176.0,31.0,1.0
102497,-0.19097,-1.386641,3.043401,-0.099677,-0.6058479999999999,0.42958,0.0,3.0,90.0,176.0,31.0,1.0
102498,-0.243283,-1.406923,3.046701,-0.216124,-0.594513,0.254929,0.0,3.0,90.0,176.0,31.0,1.0
102499,-0.325763,-1.431466,3.01085,-0.236326,-0.641493,0.102186,0.0,3.0,90.0,176.0,31.0,1.0
102500,-0.433666,-1.461045,2.925369,-0.219069,-0.580104,-0.121122,0.0,3.0,90.0,176.0,31.0,1.0
102501,-0.626131,-1.48959,2.731951,-0.233036,-0.489457,-0.50131,0.0,3.0,90.0,176.0,31.0,1.0
102502,-1.030189,-1.506487,2.329712,-0.212216,-0.03492,-0.637609,0.0,3.0,90.0,176.0,31.0,1.0
102503,-1.624316,-1.5044620000000002,1.773091,-0.058421,0.209215,-0.722871,0.0,3.0,90.0,176.0,31.0,1.0
102504,-2.119596,-1.495204,1.336792,0.139316,0.520754,-1.020909,0.0,3.0,90.0,176.0,31.0,1.0
102505,-2.081534,-1.50681,1.400509,0.020272,0.4558430000000001,-1.411186,0.0,3.0,90.0,176.0,31.0,1.0
102506,-1.886668,-1.518948,1.620691,0.015585,-0.044356,-0.460949,0.0,3.0,90.0,176.0,31.0,1.0
102507,-1.487812,-1.5295450000000002,2.030538,-0.0726,-0.138203,-0.431103,0.0,3.0,90.0,176.0,31.0,1.0
102508,-0.876984,-1.527665,2.628026,-0.55547,-0.434846,-1.229105,0.0,3.0,90.0,176.0,31.0,1.0
102509,-0.6094189999999999,-1.527061,2.906387,-0.832058,-0.302709,-0.226646,0.0,3.0,90.0,176.0,31.0,1.0
102510,-1.23544,-1.5380120000000002,2.304442,-0.520895,0.099094,2.235812,0.0,3.0,90.0,176.0,31.0,1.0
102511,-1.7156619999999998,-1.50618,1.787219,-0.678805,0.553311,0.905837,0.0,3.0,90.0,176.0,31.0,1.0
102512,-2.022437,-1.465457,1.4511,-0.283285,-0.055965,0.6534439999999999,0.0,3.0,90.0,176.0,31.0,1.0
102513,-2.135084,-1.4428219999999998,1.279372,0.0574,0.201049,0.831931,0.0,3.0,90.0,176.0,31.0,1.0
102514,-2.126673,-1.4301620000000002,1.206357,-0.106616,0.991944,0.524154,0.0,3.0,90.0,176.0,31.0,1.0
102515,-2.194921,-1.41634,1.102523,-0.039025,1.229327,0.1699,0.0,3.0,90.0,176.0,31.0,1.0
102516,-2.382006,-1.378679,0.925673,0.511984,0.463863,-0.140381,0.0,3.0,90.0,176.0,31.0,1.0
102517,-2.542542,-1.326304,0.804546,0.642822,0.266342,-0.09961,0.0,3.0,90.0,176.0,31.0,1.0
102518,-2.570566,-1.295215,0.801395,0.573298,0.049268,-0.08767899999999999,0.0,3.0,90.0,176.0,31.0,1.0
102519,-2.617889,-1.274941,0.7868569999999999,0.338512,0.083593,-0.042957,0.0,3.0,90.0,176.0,31.0,1.0
102520,-2.7351650000000003,-1.243709,0.710104,0.202277,0.0552,-0.022601,0.0,3.0,90.0,176.0,31.0,1.0
102521,-2.854586,-1.203429,0.6041479999999999,-0.005497,-0.017291,0.085773,0.0,3.0,90.0,176.0,31.0,1.0
102522,-2.922591,-1.159803,0.500876,-0.188887,-0.25603400000000004,-0.016225,0.0,3.0,90.0,176.0,31.0,1.0
102523,-2.92191,-1.112197,0.417903,-0.215712,-0.300665,-0.267759,0.0,3.0,90.0,176.0,31.0,1.0
102524,-2.908458,-1.055549,0.362525,-0.400401,-0.152535,-1.434069,0.0,3.0,90.0,176.0,31.0,1.0
102525,-2.979653,-1.009542,0.358261,-0.128893,0.241882,-1.558059,0.0,3.0,90.0,176.0,31.0,1.0
102526,-3.053793,-1.009473,0.404236,-0.058748,0.296637,-0.738812,0.0,3.0,90.0,176.0,31.0,1.0
102527,-3.057478,-0.998417,0.438096,0.14812,0.199272,-0.718978,0.0,3.0,90.0,176.0,31.0,1.0
102528,-3.009503,-0.977482,0.452576,0.290067,0.335779,-0.762447,0.0,3.0,90.0,176.0,31.0,1.0
102529,-2.954205,-0.971846,0.466745,0.395338,0.4299770000000001,-0.85545,0.0,3.0,90.0,176.0,31.0,1.0
102530,-2.911715,-0.982262,0.490963,0.380808,0.310289,-1.112057,0.0,3.0,90.0,176.0,31.0,1.0
102531,-2.879189,-1.002054,0.530205,0.409661,0.619442,-1.057383,0.0,3.0,90.0,176.0,31.0,1.0
102532,-2.847961,-1.039001,0.582531,0.516205,0.8728739999999999,-0.537806,0.0,3.0,90.0,176.0,31.0,1.0
102533,-2.78643,-1.107408,0.676772,0.499361,0.941196,-0.455567,0.0,3.0,90.0,176.0,31.0,1.0
102534,-2.723592,-1.19763,0.796701,0.365587,0.872655,-0.210691,0.0,3.0,90.0,176.0,31.0,1.0
102535,-2.666077,-1.294739,0.909391,0.277798,0.800375,0.215461,0.0,3.0,90.0,176.0,31.0,1.0
102536,-2.595679,-1.386919,1.006866,0.168048,1.051053,0.6955560000000001,0.0,3.0,90.0,176.0,31.0,1.0
102537,-2.477469,-1.464724,1.132076,-0.148845,1.082906,0.651402,0.0,3.0,90.0,176.0,31.0,1.0
102538,-1.901652,-1.525024,1.6959,-0.185555,0.7907810000000001,0.525505,0.0,3.0,90.0,176.0,31.0,1.0
102539,-0.5071359999999999,-1.523059,3.082448,0.001151,0.316828,0.372521,0.0,3.0,90.0,176.0,31.0,1.0
102540,-0.077208,-1.49039,-2.743785,0.320888,0.100292,0.475146,0.0,3.0,90.0,176.0,31.0,1.0
102541,0.063069,-1.463634,-2.517257,0.670157,0.097381,0.596661,0.0,3.0,90.0,176.0,31.0,1.0
102542,0.166878,-1.441648,-2.314935,0.814368,0.097302,0.462432,0.0,3.0,90.0,176.0,31.0,1.0
102543,0.378634,-1.40196,-2.090681,0.475722,0.163023,0.531428,0.0,3.0,90.0,176.0,31.0,1.0
102544,0.50475,-1.356947,-1.920778,0.218304,0.13519,0.785212,0.0,3.0,90.0,176.0,31.0,1.0
102545,0.476108,-1.305583,-1.84163,0.055625,-0.094538,1.082604,0.0,3.0,90.0,176.0,31.0,1.0
102546,0.410982,-1.254715,-1.788748,-0.122059,-0.371939,1.088033,0.0,3.0,90.0,176.0,31.0,1.0
102547,0.350837,-1.218013,-1.738967,-0.33857600000000004,-0.551711,1.062887,0.0,3.0,90.0,176.0,31.0,1.0
102548,0.282537,-1.193364,-1.699496,-0.410649,-0.531604,1.115265,0.0,3.0,90.0,176.0,31.0,1.0
102549,0.223921,-1.179769,-1.658304,-0.528998,-0.4108,1.135713,0.0,3.0,90.0,176.0,31.0,1.0
102550,0.182711,-1.178928,-1.615379,-0.702569,-0.390582,0.948349,0.0,3.0,90.0,176.0,31.0,1.0
102551,0.161037,-1.189532,-1.573945,-0.791945,-0.431399,0.8660030000000001,0.0,3.0,90.0,176.0,31.0,1.0
102552,0.169709,-1.215209,-1.52886,-0.840887,-0.5370520000000001,0.759128,0.0,3.0,90.0,176.0,31.0,1.0
102553,0.219958,-1.263126,-1.467363,-1.03528,-0.32660700000000004,0.4929310000000001,0.0,3.0,90.0,176.0,31.0,1.0
102554,0.293055,-1.326437,-1.395641,-0.950789,0.706542,-0.810804,0.0,3.0,90.0,176.0,31.0,1.0
102555,0.321025,-1.349293,-1.357038,-0.277827,1.152865,-1.634887,0.0,3.0,90.0,176.0,31.0,1.0
102556,0.340594,-1.339079,-1.319152,0.002884,0.525216,-1.6633240000000002,0.0,3.0,90.0,176.0,31.0,1.0
102557,0.359456,-1.3147879999999998,-1.27633,0.5416850000000001,0.362242,-1.172282,0.0,3.0,90.0,176.0,31.0,1.0
102558,0.471146,-1.315605,-1.125898,1.167915,-0.118067,-0.132664,0.0,3.0,90.0,176.0,31.0,1.0
102559,0.555098,-1.341791,-1.03643,1.04387,0.275833,1.7349259999999995,0.0,3.0,90.0,176.0,31.0,1.0
102560,0.551569,-1.374391,-1.08056,-0.242719,0.5957939999999999,1.393157,0.0,3.0,90.0,176.0,31.0,1.0
102561,0.456043,-1.371952,-1.25495,-1.172859,0.36498,-1.745268,0.0,3.0,90.0,176.0,31.0,1.0
102562,0.319281,-1.321424,-1.407915,-0.7898149999999999,-0.523084,0.261631,0.0,3.0,90.0,176.0,31.0,1.0
102563,0.266416,-1.318567,-1.383528,-0.417551,-0.743627,0.942049,0.0,3.0,90.0,176.0,31.0,1.0
102564,0.205152,-1.326678,-1.391423,0.038321,-0.693785,1.060632,0.0,3.0,90.0,176.0,31.0,1.0
102565,0.129246,-1.345549,-1.404233,0.08652699999999999,-0.557976,1.123011,0.0,3.0,90.0,176.0,31.0,1.0
102566,0.092744,-1.378726,-1.387262,0.250192,0.227816,1.084222,0.0,3.0,90.0,176.0,31.0,1.0
102567,-0.003233,-1.39446,-1.448114,0.337908,0.944477,0.609824,0.0,3.0,90.0,176.0,31.0,1.0
102568,-0.154093,-1.386444,-1.553875,0.291528,0.553764,0.363268,0.0,3.0,90.0,176.0,31.0,1.0
102569,-0.23062,-1.400448,-1.569165,0.031830000000000004,-0.217627,-0.240162,0.0,3.0,90.0,176.0,31.0,1.0
102570,-0.258452,-1.470808,-1.529956,-0.282441,-0.228556,0.188457,0.0,3.0,90.0,176.0,31.0,1.0
102571,-0.085982,-1.527889,-1.316371,-0.356147,-0.225932,0.276411,0.0,3.0,90.0,176.0,31.0,1.0
102572,0.873444,-1.548885,-0.365304,-0.35149600000000003,-0.264927,0.200341,0.0,3.0,90.0,176.0,31.0,1.0
102573,2.006457,-1.535412,0.743851,-0.372748,-0.276199,0.195067,0.0,3.0,90.0,176.0,31.0,1.0
102574,2.503823,-1.508418,1.228382,-0.396991,-0.23893000000000006,0.246802,0.0,3.0,90.0,176.0,31.0,1.0
102575,2.790624,-1.478165,1.516927,-0.333259,0.056106,0.097339,0.0,3.0,90.0,176.0,31.0,1.0
102576,2.9806790000000003,-1.454061,1.7393740000000002,-0.009862,0.168396,-0.206047,0.0,3.0,90.0,176.0,31.0,1.0
102577,3.103332,-1.434681,1.926246,0.15834,0.211062,-0.313917,0.0,3.0,90.0,176.0,31.0,1.0
102578,-3.128196,-1.420251,2.044956,0.312037,0.23648400000000006,-0.327236,0.0,3.0,90.0,176.0,31.0,1.0
102579,-3.122636,-1.404334,2.093837,0.154843,0.151686,-0.4181220000000001,0.0,3.0,90.0,176.0,31.0,1.0
102580,3.128045,-1.386685,2.08157,-0.106911,0.170663,-0.279831,0.0,3.0,90.0,176.0,31.0,1.0
102581,3.109776,-1.384761,2.063768,-0.191124,0.14686300000000002,-0.26364,0.0,3.0,90.0,176.0,31.0,1.0
102582,3.128135,-1.397871,2.085216,-0.353252,0.277137,-0.497215,0.0,3.0,90.0,176.0,31.0,1.0
102583,-3.084204,-1.424734,2.178772,0.066466,0.680814,-0.460606,0.0,3.0,90.0,176.0,31.0,1.0
102584,-2.860787,-1.47006,2.423192,0.387271,0.904774,-0.40404,0.0,3.0,90.0,176.0,31.0,1.0
102585,-2.034256,-1.521433,-3.021138,0.577471,0.999799,-0.299452,0.0,3.0,90.0,176.0,31.0,1.0
102586,-0.6741779999999999,-1.490811,-1.63442,0.198849,0.078347,0.06851,0.0,3.0,90.0,176.0,31.0,1.0
102587,-0.34875300000000004,-1.414049,-1.240429,0.046254,0.106849,0.402352,0.0,3.0,90.0,176.0,31.0,1.0
102588,-0.248891,-1.32762,-1.063983,-0.103794,0.27965100000000004,1.13003,0.0,3.0,90.0,176.0,31.0,1.0
102589,-0.189449,-1.250326,-0.963768,-0.220358,0.770319,1.18415,0.0,3.0,90.0,176.0,31.0,1.0
102590,-0.139076,-1.184586,-0.914066,-0.354719,0.922839,1.21564,0.0,3.0,90.0,176.0,31.0,1.0
102591,-0.08238999999999999,-1.126576,-0.89579,-0.405597,0.329201,0.698078,0.0,3.0,90.0,176.0,31.0,1.0
102592,-0.004854,-1.087361,-0.856449,0.199598,0.166415,0.256375,0.0,3.0,90.0,176.0,31.0,1.0
102593,0.037577,-1.072282,-0.8010109999999999,0.386137,0.204287,0.447778,0.0,3.0,90.0,176.0,31.0,1.0
102594,0.072203,-1.04386,-0.743494,0.358482,0.205915,0.652054,0.0,3.0,90.0,176.0,31.0,1.0
102595,0.099865,-0.999669,-0.687905,-0.216096,-0.09085,0.894739,0.0,3.0,90.0,176.0,31.0,1.0
102596,0.13011099999999998,-0.958293,-0.638479,-0.390372,-0.157124,0.8341069999999999,0.0,3.0,90.0,176.0,31.0,1.0
102597,0.156049,-0.927075,-0.592075,-0.497406,-0.165179,0.765379,0.0,3.0,90.0,176.0,31.0,1.0
102598,0.132892,-0.8968809999999999,-0.559825,-0.137771,-0.231793,0.8377209999999999,0.0,3.0,90.0,176.0,31.0,1.0
102599,0.094525,-0.8744290000000001,-0.536669,-0.239145,-0.5667840000000001,0.8586450000000001,0.0,3.0,90.0,176.0,31.0,1.0
102600,0.068189,-0.8649100000000001,-0.524512,-0.297207,-0.635365,0.864361,0.0,3.0,90.0,176.0,31.0,1.0
102601,0.054412,-0.868721,-0.521837,-0.4457060000000001,-0.663162,0.7717510000000001,0.0,3.0,90.0,176.0,31.0,1.0
102602,0.047552,-0.884359,-0.528345,-0.380056,-0.701427,0.7935270000000001,0.0,3.0,90.0,176.0,31.0,1.0
102603,0.042771,-0.914104,-0.54127,-0.31158,-0.6309899999999999,0.767302,0.0,3.0,90.0,176.0,31.0,1.0
102604,0.034809,-0.95788,-0.56237,-0.319214,-0.441082,0.644162,0.0,3.0,90.0,176.0,31.0,1.0
102605,0.0084,-1.013825,-0.596698,-0.230011,-0.227156,0.569395,0.0,3.0,90.0,176.0,31.0,1.0
102606,-0.030275,-1.076362,-0.64307,-0.176096,0.5040399999999999,0.233495,0.0,3.0,90.0,176.0,31.0,1.0
102607,-0.038289,-1.125978,-0.678191,-0.176308,0.7074189999999999,0.06804600000000001,0.0,3.0,90.0,176.0,31.0,1.0
102608,0.023367,-1.15255,-0.684517,-0.075804,0.757904,-0.28312600000000004,0.0,3.0,90.0,176.0,31.0,1.0
102609,0.086605,-1.181469,-0.686226,0.08158,0.366141,-0.1869,0.0,3.0,90.0,176.0,31.0,1.0
102610,0.105726,-1.215789,-0.690304,0.160158,0.20945100000000005,-0.177764,0.0,3.0,90.0,176.0,31.0,1.0
102611,0.095667,-1.253809,-0.689714,0.297498,0.07266399999999999,-0.186348,0.0,3.0,90.0,176.0,31.0,1.0
102612,0.106938,-1.298454,-0.661734,0.367486,-0.039865,0.23928,0.0,3.0,90.0,176.0,31.0,1.0
102613,0.180472,-1.331948,-0.592086,0.170628,-0.264046,0.424415,0.0,3.0,90.0,176.0,31.0,1.0
102614,0.263831,-1.345477,-0.530636,-0.074538,-0.130958,0.657053,0.0,3.0,90.0,176.0,31.0,1.0
102615,0.283146,-1.350197,-0.517684,-0.395933,-0.00044,0.603371,0.0,3.0,90.0,176.0,31.0,1.0
102616,0.204764,-1.357509,-0.57394,-0.333639,-0.194839,0.171824,0.0,3.0,90.0,176.0,31.0,1.0
102617,0.06948,-1.366891,-0.647746,-0.139682,-0.227635,0.074048,0.0,3.0,90.0,176.0,31.0,1.0
102618,-0.094723,-1.381641,-0.734294,-0.4951890000000001,2.035048,-0.395349,0.0,3.0,90.0,176.0,31.0,1.0
102619,-0.17264200000000002,-1.371908,-0.811875,-0.522552,4.795959,-1.4794889999999998,0.0,3.0,90.0,176.0,31.0,1.0
102620,-0.042413,-1.364786,-0.765992,-0.242747,-0.326984,1.223495,0.0,3.0,90.0,176.0,31.0,1.0
102621,0.102472,-1.356902,-0.653917,-0.196149,-0.699426,0.890921,0.0,3.0,90.0,176.0,31.0,1.0
102622,0.162995,-1.326549,-0.611409,-0.203896,-0.774687,0.990658,0.0,3.0,90.0,176.0,31.0,1.0
102623,0.210025,-1.303998,-0.613703,-0.407058,-0.457815,1.18915,0.0,3.0,90.0,176.0,31.0,1.0
102624,0.21655,-1.307781,-0.657891,-0.54948,0.035259,0.745812,0.0,3.0,90.0,176.0,31.0,1.0
102625,0.164964,-1.327792,-0.709752,-0.313741,0.131416,0.322245,0.0,3.0,90.0,176.0,31.0,1.0
102626,0.040473,-1.359444,-0.7893789999999999,-0.155979,0.111104,0.140308,0.0,3.0,90.0,176.0,31.0,1.0
102627,-0.207003,-1.416446,-0.947746,0.628437,0.602617,-1.5779459999999998,0.0,3.0,90.0,176.0,31.0,1.0
102628,-0.204374,-1.425666,-0.985025,0.08841,0.034866,-0.953661,0.0,3.0,90.0,176.0,31.0,1.0
102629,-0.069397,-1.414609,-0.895789,-0.271504,-0.348317,-0.07884,0.0,3.0,90.0,176.0,31.0,1.0
102630,-0.056082000000000014,-1.407196,-0.869091,-0.206968,-0.392943,-0.030919,0.0,3.0,90.0,176.0,31.0,1.0
102631,-0.052057000000000006,-1.389176,-0.879943,-0.124194,-0.445405,-0.16833399999999998,0.0,3.0,90.0,176.0,31.0,1.0
102632,0.006021,-1.3669790000000002,-0.8774,0.165484,-0.103248,-0.326036,0.0,3.0,90.0,176.0,31.0,1.0
102633,0.149703,-1.335292,-0.810605,0.233071,0.044586,-0.435987,0.0,3.0,90.0,176.0,31.0,1.0
102634,0.2529,-1.261584,-0.7499170000000001,0.116215,0.476137,-0.31435100000000005,0.0,3.0,90.0,176.0,31.0,1.0
102635,0.232322,-1.152404,-0.737324,0.249888,0.575194,0.366588,0.0,3.0,90.0,176.0,31.0,1.0
102636,0.185142,-1.044852,-0.722304,0.153907,0.6489590000000001,0.636738,0.0,3.0,90.0,176.0,31.0,1.0
102637,0.131004,-0.955277,-0.693569,0.54323,0.444436,1.873532,0.0,3.0,90.0,176.0,31.0,1.0
102638,0.162964,-0.90475,-0.642069,0.016697,0.292586,0.936504,0.0,3.0,90.0,176.0,31.0,1.0
102639,0.229758,-0.866926,-0.593457,-0.7193930000000001,0.302308,0.214528,0.0,3.0,90.0,176.0,31.0,1.0
102640,0.23975,-0.831707,-0.552167,-0.6466350000000001,0.180717,0.880815,0.0,3.0,90.0,176.0,31.0,1.0
102641,0.237784,-0.813344,-0.519884,-0.68018,-0.141872,0.930035,0.0,3.0,90.0,176.0,31.0,1.0
102642,0.261008,-0.8215889999999999,-0.495092,-0.798445,-0.211019,0.701033,0.0,3.0,90.0,176.0,31.0,1.0
102643,0.30036,-0.860611,-0.475686,-0.772088,-0.051194,0.656351,0.0,3.0,90.0,176.0,31.0,1.0
102644,0.347433,-0.93208,-0.460468,-0.426723,-0.084584,0.568581,0.0,3.0,90.0,176.0,31.0,1.0
102645,0.381319,-1.025456,-0.460106,-0.204491,-0.113725,0.278748,0.0,3.0,90.0,176.0,31.0,1.0
102646,0.388844,-1.125019,-0.486622,-0.266011,0.136283,0.080344,0.0,3.0,90.0,176.0,31.0,1.0
102647,0.361464,-1.215268,-0.5172770000000001,-0.197633,0.265113,0.104098,0.0,3.0,90.0,176.0,31.0,1.0
102648,0.297043,-1.28138,-0.53609,0.267547,0.169977,-0.199856,0.0,3.0,90.0,176.0,31.0,1.0
102649,0.201624,-1.326544,-0.571585,0.335426,0.101764,-0.399688,0.0,3.0,90.0,176.0,31.0,1.0
102650,0.15693900000000002,-1.336453,-0.597659,0.22660500000000006,-0.27,-1.040663,0.0,3.0,90.0,176.0,31.0,1.0
102651,0.153313,-1.349214,-0.5945630000000001,0.268703,-0.798076,-0.08377899999999999,0.0,3.0,90.0,176.0,31.0,1.0
102652,0.122028,-1.361677,-0.602575,0.17325,-0.6687810000000001,0.622685,0.0,3.0,90.0,176.0,31.0,1.0
102653,0.067203,-1.355195,-0.630876,0.030786,0.031041000000000006,0.908463,0.0,3.0,90.0,176.0,31.0,1.0
102654,0.037505,-1.347274,-0.6453399999999999,-0.297083,1.639959,-0.3717,0.0,3.0,90.0,176.0,31.0,1.0
102655,0.023903,-1.371936,-0.630804,-0.389075,0.819192,0.023228,0.0,3.0,90.0,176.0,31.0,1.0
102656,0.048455,-1.375528,-0.607626,-1.162015,3.835929,-1.965238,0.0,3.0,90.0,176.0,31.0,1.0
102657,0.08885900000000001,-1.349475,-0.643904,-0.173485,-0.8917149999999999,1.089738,0.0,3.0,90.0,176.0,31.0,1.0
102658,0.08014600000000001,-1.316156,-0.6305470000000001,0.139106,-0.996242,0.724518,0.0,3.0,90.0,176.0,31.0,1.0
102659,0.07202599999999999,-1.285311,-0.594238,0.195326,-0.896918,0.667625,0.0,3.0,90.0,176.0,31.0,1.0
102660,0.062299,-1.2643719999999998,-0.576495,0.2253,-0.118533,0.759379,0.0,3.0,90.0,176.0,31.0,1.0
102661,0.021314,-1.268915,-0.621649,0.185925,0.492334,0.480033,0.0,3.0,90.0,176.0,31.0,1.0
102662,0.08253300000000001,-1.2956450000000002,-0.656931,0.7164189999999999,0.266208,-1.131152,0.0,3.0,90.0,176.0,31.0,1.0
102663,0.28644899999999995,-1.298529,-0.587216,-0.372516,-0.047438,-0.48115,0.0,3.0,90.0,176.0,31.0,1.0
102664,0.355912,-1.280225,-0.5528569999999999,-0.396362,-0.042355,-0.470563,0.0,3.0,90.0,176.0,31.0,1.0
102665,0.36322,-1.23063,-0.5588810000000001,-0.519245,-0.272884,-0.141156,0.0,3.0,90.0,176.0,31.0,1.0
102666,0.38718,-1.164425,-0.559242,0.239504,0.294635,-0.03397,0.0,3.0,90.0,176.0,31.0,1.0
102667,0.393146,-1.089378,-0.556642,0.498886,0.567747,0.31103400000000003,0.0,3.0,90.0,176.0,31.0,1.0
102668,0.361863,-1.015293,-0.5352,0.8543959999999999,0.743657,1.207262,0.0,3.0,90.0,176.0,31.0,1.0
102669,0.34028200000000003,-0.952027,-0.502957,-0.05525,0.294736,1.327897,0.0,3.0,90.0,176.0,31.0,1.0
102670,0.357708,-0.904623,-0.470404,-0.838686,-0.143523,0.450976,0.0,3.0,90.0,176.0,31.0,1.0
102671,0.379662,-0.874547,-0.447003,-1.213256,0.107106,0.460233,0.0,3.0,90.0,176.0,31.0,1.0
102672,0.386137,-0.85696,-0.434799,-0.989669,0.515903,0.482396,0.0,3.0,90.0,176.0,31.0,1.0
102673,0.422793,-0.861137,-0.41936,-0.789181,0.236625,0.352041,0.0,3.0,90.0,176.0,31.0,1.0
102674,0.475025,-0.8914340000000001,-0.40521,-0.6562520000000001,0.05854400000000001,0.4418,0.0,3.0,90.0,176.0,31.0,1.0
102675,0.526018,-0.942924,-0.396938,-0.424227,-0.070845,0.359493,0.0,3.0,90.0,176.0,31.0,1.0
102676,0.545361,-1.004806,-0.403054,-0.228222,-0.060107000000000015,0.074103,0.0,3.0,90.0,176.0,31.0,1.0
102677,0.519848,-1.06791,-0.431187,-0.173702,0.055415,-0.011193,0.0,3.0,90.0,176.0,31.0,1.0
102678,0.457848,-1.132984,-0.4739020000000001,-0.122849,0.23441,0.206456,0.0,3.0,90.0,176.0,31.0,1.0
102679,0.381624,-1.1972040000000002,-0.510968,-0.013451,0.224999,0.1497,0.0,3.0,90.0,176.0,31.0,1.0
102680,0.297789,-1.256995,-0.5473600000000001,-0.00812,0.007587999999999998,-0.044371,0.0,3.0,90.0,176.0,31.0,1.0
102681,0.233872,-1.308607,-0.571705,0.014797,0.140666,0.027754,0.0,3.0,90.0,176.0,31.0,1.0
102682,0.192924,-1.34741,-0.5717869999999999,0.058711,0.106878,0.058219000000000014,0.0,3.0,90.0,176.0,31.0,1.0
102683,0.200376,-1.374342,-0.5341819999999999,0.280857,-0.162833,-0.356836,0.0,3.0,90.0,176.0,31.0,1.0
102684,0.300762,-1.389446,-0.458094,0.34362800000000004,-0.471257,-0.246409,0.0,3.0,90.0,176.0,31.0,1.0
102685,0.375388,-1.397414,-0.416814,0.024684,-0.8706729999999999,0.341652,0.0,3.0,90.0,176.0,31.0,1.0
102686,0.330854,-1.393089,-0.449891,-0.192363,-0.719863,0.389278,0.0,3.0,90.0,176.0,31.0,1.0
102687,0.261845,-1.401197,-0.501975,-0.429563,0.541355,-0.377527,0.0,3.0,90.0,176.0,31.0,1.0
102688,0.151124,-1.4212280000000002,-0.591899,-0.051114,0.6451979999999999,0.483683,0.0,3.0,90.0,176.0,31.0,1.0
102689,-0.007613,-1.398182,-0.7066720000000001,-0.08844500000000001,0.974517,0.291395,0.0,3.0,90.0,176.0,31.0,1.0
102690,-0.089679,-1.408395,-0.75446,0.025372,1.979818,-0.8219700000000001,0.0,3.0,90.0,176.0,31.0,1.0
102691,-0.001405,-1.420661,-0.722193,-0.0073430000000000014,0.307331,0.132656,0.0,3.0,90.0,176.0,31.0,1.0
102692,0.086306,-1.405389,-0.667204,0.05742000000000001,-0.417794,0.222615,0.0,3.0,90.0,176.0,31.0,1.0
102693,0.090077,-1.38867,-0.636392,0.102713,-0.550187,0.065763,0.0,3.0,90.0,176.0,31.0,1.0
102694,0.055025,-1.351851,-0.662974,-0.000653,-0.359138,-0.003718,0.0,3.0,90.0,176.0,31.0,1.0
102695,0.025572,-1.335545,-0.681561,-0.130242,0.643175,-0.132657,0.0,3.0,90.0,176.0,31.0,1.0
102696,0.078493,-1.327095,-0.667974,0.408144,0.412391,-0.635627,0.0,3.0,90.0,176.0,31.0,1.0
102697,0.22555,-1.297174,-0.6035149999999999,0.322384,0.212296,-1.098274,0.0,3.0,90.0,176.0,31.0,1.0
102698,0.306072,-1.234828,-0.555225,-0.444946,0.481598,-0.062666,0.0,3.0,90.0,176.0,31.0,1.0
102699,0.288029,-1.149774,-0.5416770000000001,-0.223529,0.249591,0.959918,0.0,3.0,90.0,176.0,31.0,1.0
102700,0.268085,-1.0625129999999998,-0.528564,0.008738,0.199218,1.255618,0.0,3.0,90.0,176.0,31.0,1.0
102701,0.25111700000000003,-0.996998,-0.504106,0.299565,-0.068437,1.342537,0.0,3.0,90.0,176.0,31.0,1.0
102702,0.26628,-0.955169,-0.467504,-0.02482,-0.051748,0.581391,0.0,3.0,90.0,176.0,31.0,1.0
102703,0.308743,-0.927069,-0.435794,-0.555036,0.406007,0.151174,0.0,3.0,90.0,176.0,31.0,1.0
102704,0.323888,-0.90666,-0.418534,-1.025174,0.562786,0.7889470000000001,0.0,3.0,90.0,176.0,31.0,1.0
102705,0.320685,-0.89344,-0.408093,-0.894807,0.003452,0.871117,0.0,3.0,90.0,176.0,31.0,1.0
102706,0.33518400000000004,-0.900597,-0.397636,-0.6643720000000001,-0.113089,0.692025,0.0,3.0,90.0,176.0,31.0,1.0
102707,0.35649899999999995,-0.932299,-0.394552,-0.581897,-0.136351,0.658578,0.0,3.0,90.0,176.0,31.0,1.0
102708,0.379687,-0.983299,-0.3996,-0.455049,-0.048197,0.504361,0.0,3.0,90.0,176.0,31.0,1.0
102709,0.386847,-1.04586,-0.426063,-0.4229100000000001,0.008256,0.38677,0.0,3.0,90.0,176.0,31.0,1.0
102710,0.35348,-1.113282,-0.473396,-0.184918,0.35849200000000003,0.091677,0.0,3.0,90.0,176.0,31.0,1.0
102711,0.274112,-1.182137,-0.523046,0.031672000000000006,0.411008,-0.033266000000000004,0.0,3.0,90.0,176.0,31.0,1.0
102712,0.164391,-1.252391,-0.572102,0.199198,0.436083,-0.256308,0.0,3.0,90.0,176.0,31.0,1.0
102713,0.09679,-1.299687,-0.617711,0.55481,-0.035755,-0.675367,0.0,3.0,90.0,176.0,31.0,1.0
102714,0.110034,-1.33234,-0.6104970000000001,0.422871,-0.433999,-0.258808,0.0,3.0,90.0,176.0,31.0,1.0
102715,0.119097,-1.35206,-0.585244,0.083077,-1.116111,0.654734,0.0,3.0,90.0,176.0,31.0,1.0
102716,0.097171,-1.353538,-0.580888,0.046107,-1.201727,0.706851,0.0,3.0,90.0,176.0,31.0,1.0
102717,0.073148,-1.350378,-0.593094,-0.074037,-1.025717,0.617352,0.0,3.0,90.0,176.0,31.0,1.0
102718,0.043885,-1.354002,-0.6287050000000001,-0.309179,0.940675,0.030604000000000006,0.0,3.0,90.0,176.0,31.0,1.0
102719,-0.103302,-1.383556,-0.7141569999999999,-0.179508,2.189582,-0.4130180000000001,0.0,3.0,90.0,176.0,31.0,1.0
102720,-0.217519,-1.402051,-0.756329,-0.097201,-0.14663900000000002,0.284973,0.0,3.0,90.0,176.0,31.0,1.0
102721,-0.111271,-1.385006,-0.6707069999999999,-0.535766,0.710431,0.102834,0.0,3.0,90.0,176.0,31.0,1.0
102722,-0.053299,-1.40099,-0.644749,-0.622926,2.028359,-0.960674,0.0,3.0,90.0,176.0,31.0,1.0
102723,0.081759,-1.400131,-0.553466,-0.227903,-0.25923,0.629598,0.0,3.0,90.0,176.0,31.0,1.0
102724,0.105795,-1.376982,-0.542672,0.190312,-0.378875,0.369708,0.0,3.0,90.0,176.0,31.0,1.0
102725,0.040745,-1.353455,-0.577324,0.283973,-0.307651,0.26217,0.0,3.0,90.0,176.0,31.0,1.0
102726,-0.028802,-1.32522,-0.649265,0.230145,-0.126354,0.02397,0.0,3.0,90.0,176.0,31.0,1.0
102727,-0.002182,-1.319153,-0.664482,0.277521,0.421083,-0.097521,0.0,3.0,90.0,176.0,31.0,1.0
102728,0.100398,-1.307737,-0.621764,0.30897600000000003,-0.010017,-0.7556039999999999,0.0,3.0,90.0,176.0,31.0,1.0
102729,0.216291,-1.269104,-0.563475,-0.066191,0.28636100000000003,-0.881157,0.0,3.0,90.0,176.0,31.0,1.0
102730,0.27070700000000003,-1.201561,-0.52269,-0.469478,0.689207,0.315735,0.0,3.0,90.0,176.0,31.0,1.0
102731,0.262326,-1.11299,-0.5081399999999999,-0.285423,0.433634,0.754139,0.0,3.0,90.0,176.0,31.0,1.0
102732,0.232213,-1.030809,-0.493752,0.171175,0.17587,1.626709,0.0,3.0,90.0,176.0,31.0,1.0
102733,0.242866,-0.977849,-0.452454,0.181183,0.125995,1.396301,0.0,3.0,90.0,176.0,31.0,1.0
102734,0.315741,-0.942786,-0.410793,-0.355597,0.057379,0.113145,0.0,3.0,90.0,176.0,31.0,1.0
102735,0.359045,-0.912585,-0.384067,-0.468891,0.5391739999999999,0.333374,0.0,3.0,90.0,176.0,31.0,1.0
102736,0.347371,-0.8848469999999999,-0.375915,-0.780508,0.362946,0.802816,0.0,3.0,90.0,176.0,31.0,1.0
102737,0.359958,-0.8772639999999999,-0.364966,-0.740258,0.038868,0.718875,0.0,3.0,90.0,176.0,31.0,1.0
102738,0.380447,-0.8970229999999999,-0.357215,-0.586807,-0.141855,0.6556930000000001,0.0,3.0,90.0,176.0,31.0,1.0
102739,0.401408,-0.938568,-0.358216,-0.466561,-0.114406,0.667456,0.0,3.0,90.0,176.0,31.0,1.0
102740,0.421077,-0.99925,-0.368306,-0.411866,-0.026795,0.611963,0.0,3.0,90.0,176.0,31.0,1.0
102741,0.419733,-1.065414,-0.392126,-0.370694,-0.023839,0.50957,0.0,3.0,90.0,176.0,31.0,1.0
102742,0.399692,-1.131674,-0.427175,-0.247085,-0.002934,0.22018,0.0,3.0,90.0,176.0,31.0,1.0
102743,0.36582,-1.203395,-0.457623,-0.034963,0.206537,0.045725,0.0,3.0,90.0,176.0,31.0,1.0
102744,0.296734,-1.277559,-0.479808,0.1805,0.169594,-0.030845,0.0,3.0,90.0,176.0,31.0,1.0
102745,0.197067,-1.34436,-0.511718,0.355736,-0.169129,-0.500808,0.0,3.0,90.0,176.0,31.0,1.0
102746,0.160944,-1.369134,-0.522537,0.429454,-0.194335,-0.7388680000000001,0.0,3.0,90.0,176.0,31.0,1.0
102747,0.2012,-1.384032,-0.48714,0.563118,-0.383748,-0.949851,0.0,3.0,90.0,176.0,31.0,1.0
102748,0.256431,-1.406944,-0.444278,0.069094,-0.724247,0.437465,0.0,3.0,90.0,176.0,31.0,1.0
102749,0.226741,-1.398659,-0.474758,0.033675,-0.708457,0.998983,0.0,3.0,90.0,176.0,31.0,1.0
102750,0.142261,-1.374333,-0.548454,-0.259759,0.07629,0.907484,0.0,3.0,90.0,176.0,31.0,1.0
102751,0.080075,-1.364424,-0.59815,-0.517167,1.505274,0.320274,0.0,3.0,90.0,176.0,31.0,1.0
102752,0.006433,-1.400865,-0.594163,-0.243764,0.132354,-0.241059,0.0,3.0,90.0,176.0,31.0,1.0
102753,-0.01225,-1.442591,-0.551271,-0.642538,2.196165,-1.454899,0.0,3.0,90.0,176.0,31.0,1.0
102754,0.123452,-1.406902,-0.547978,-0.506004,0.702747,-0.088736,0.0,3.0,90.0,176.0,31.0,1.0
102755,0.167349,-1.392325,-0.520696,0.030844,-0.650483,0.621093,0.0,3.0,90.0,176.0,31.0,1.0
102756,0.124628,-1.377541,-0.506566,0.405359,-0.652496,0.469608,0.0,3.0,90.0,176.0,31.0,1.0
102757,0.07134299999999999,-1.347187,-0.555001,0.42435,-0.355642,0.294376,0.0,3.0,90.0,176.0,31.0,1.0
102758,0.109163,-1.334086,-0.589136,0.374783,0.835426,-0.25195700000000004,0.0,3.0,90.0,176.0,31.0,1.0
102759,0.262291,-1.333794,-0.517871,0.459908,0.278824,-0.901708,0.0,3.0,90.0,176.0,31.0,1.0
102760,0.388467,-1.291824,-0.460588,0.051101,0.167659,-1.395648,0.0,3.0,90.0,176.0,31.0,1.0
102761,0.387865,-1.223249,-0.453617,-0.637158,0.31635,0.029347,0.0,3.0,90.0,176.0,31.0,1.0
102762,0.350215,-1.135998,-0.469166,-0.22736,0.252316,0.697087,0.0,3.0,90.0,176.0,31.0,1.0
102763,0.304132,-1.057859,-0.474235,0.12905899999999998,0.123124,1.438303,0.0,3.0,90.0,176.0,31.0,1.0
102764,0.25481,-0.99802,-0.474312,0.239766,0.009164,1.538485,0.0,3.0,90.0,176.0,31.0,1.0
102765,0.233836,-0.958305,-0.462701,0.039564,0.166416,0.576439,0.0,3.0,90.0,176.0,31.0,1.0
102766,0.260803,-0.93682,-0.449118,-0.665437,0.510301,0.331519,0.0,3.0,90.0,176.0,31.0,1.0
102767,0.272386,-0.919778,-0.444945,-0.907995,0.488286,0.565234,0.0,3.0,90.0,176.0,31.0,1.0
102768,0.266937,-0.909676,-0.443854,-0.5699029999999999,-0.106291,0.826001,0.0,3.0,90.0,176.0,31.0,1.0
102769,0.265952,-0.921583,-0.4486020000000001,-0.479344,-0.127584,0.747761,0.0,3.0,90.0,176.0,31.0,1.0
102770,0.268592,-0.956304,-0.464899,-0.456404,-0.13301500000000002,0.6707960000000001,0.0,3.0,90.0,176.0,31.0,1.0
102771,0.262631,-1.01057,-0.500777,-0.377305,0.195071,0.383818,0.0,3.0,90.0,176.0,31.0,1.0
102772,0.21522800000000006,-1.073509,-0.562754,-0.188078,0.532238,0.050197000000000006,0.0,3.0,90.0,176.0,31.0,1.0
102773,0.114985,-1.13913,-0.632362,0.074664,0.227732,-0.181829,0.0,3.0,90.0,176.0,31.0,1.0
102774,-0.019835,-1.203863,-0.7036789999999999,0.296208,0.174982,-0.134461,0.0,3.0,90.0,176.0,31.0,1.0
102775,-0.180696,-1.263416,-0.798545,0.387334,0.105998,-0.174179,0.0,3.0,90.0,176.0,31.0,1.0
102776,-0.317216,-1.310632,-0.8817200000000001,0.441561,-0.11976,-0.242598,0.0,3.0,90.0,176.0,31.0,1.0
102777,-0.383135,-1.332882,-0.910181,0.367742,-0.49504,-0.480391,0.0,3.0,90.0,176.0,31.0,1.0
102778,-0.423754,-1.340546,-0.921011,0.193075,-0.963386,0.16976,0.0,3.0,90.0,176.0,31.0,1.0
102779,-0.48167,-1.346273,-0.963065,0.166301,-1.108949,0.658302,0.0,3.0,90.0,176.0,31.0,1.0
102780,-0.500167,-1.337631,-0.988655,0.08675,-1.1858,0.969381,0.0,3.0,90.0,176.0,31.0,1.0
102781,-0.4825430000000001,-1.329912,-0.977498,-0.388455,0.427096,0.565246,0.0,3.0,90.0,176.0,31.0,1.0
102782,-0.592066,-1.354901,-1.057808,-0.484359,2.239264,-0.541516,0.0,3.0,90.0,176.0,31.0,1.0
102783,-0.826835,-1.380372,-1.180292,0.117515,0.074396,-0.716326,0.0,3.0,90.0,176.0,31.0,1.0
102784,-0.7195229999999999,-1.362958,-1.055686,-0.040073,-0.605631,0.311089,0.0,3.0,90.0,176.0,31.0,1.0
102785,-0.661972,-1.3774110000000002,-1.049686,-0.070214,0.091044,0.26213000000000003,0.0,3.0,90.0,176.0,31.0,1.0
102786,-0.793149,-1.395181,-1.19853,0.25005,1.653595,-0.695163,0.0,3.0,90.0,176.0,31.0,1.0
102787,-0.7436520000000001,-1.384182,-1.178694,0.55481,-0.103381,-0.301612,0.0,3.0,90.0,176.0,31.0,1.0
102788,-0.709155,-1.36456,-1.151827,0.530105,-0.445804,-0.120355,0.0,3.0,90.0,176.0,31.0,1.0
102789,-0.6925,-1.339266,-1.113253,0.47663,0.273311,-0.5822430000000001,0.0,3.0,90.0,176.0,31.0,1.0
102790,-0.5749890000000001,-1.31343,-1.005175,0.204558,0.6314930000000001,-0.470724,0.0,3.0,90.0,176.0,31.0,1.0
102791,-0.475955,-1.275047,-0.8927930000000001,0.041295,0.115834,-0.4723060000000001,0.0,3.0,90.0,176.0,31.0,1.0
102792,-0.405318,-1.210627,-0.786341,-0.072921,0.14111300000000002,-0.15667899999999998,0.0,3.0,90.0,176.0,31.0,1.0
102793,-0.369425,-1.132494,-0.697422,-0.030293,0.29756,0.202723,0.0,3.0,90.0,176.0,31.0,1.0
102794,-0.341664,-1.053566,-0.6174390000000001,0.360406,0.301691,1.159169,0.0,3.0,90.0,176.0,31.0,1.0
102795,-0.31924600000000003,-0.995614,-0.544186,0.724699,0.514224,1.443254,0.0,3.0,90.0,176.0,31.0,1.0
102796,-0.30190500000000003,-0.979184,-0.475083,0.314598,0.6448109999999999,0.7651819999999999,0.0,3.0,90.0,176.0,31.0,1.0
102797,-0.214664,-0.966362,-0.39691,-0.049094,0.939689,-0.251301,0.0,3.0,90.0,176.0,31.0,1.0
102798,-0.17995,-0.934922,-0.32771300000000003,-0.172898,0.788617,-0.017429,0.0,3.0,90.0,176.0,31.0,1.0
102799,-0.190158,-0.907784,-0.28730300000000003,-0.596234,0.035497,0.900476,0.0,3.0,90.0,176.0,31.0,1.0
102800,-0.192701,-0.8963459999999999,-0.264218,-0.3675,-0.113188,0.8318690000000001,0.0,3.0,90.0,176.0,31.0,1.0
102801,-0.19885,-0.8969889999999999,-0.261539,-0.209841,-0.36182,0.824541,0.0,3.0,90.0,176.0,31.0,1.0
102802,-0.206776,-0.91102,-0.273005,-0.12725799999999998,-0.398955,0.774226,0.0,3.0,90.0,176.0,31.0,1.0
102803,-0.218989,-0.933399,-0.293157,-0.037253,-0.368253,0.680666,0.0,3.0,90.0,176.0,31.0,1.0
102804,-0.235175,-0.96157,-0.320984,-0.099299,-0.375205,0.476582,0.0,3.0,90.0,176.0,31.0,1.0
102805,-0.263969,-0.999191,-0.36022600000000005,-0.177073,-0.323898,0.301108,0.0,3.0,90.0,176.0,31.0,1.0
102806,-0.31148000000000003,-1.041758,-0.411408,-0.104254,0.29883200000000004,-0.6712319999999999,0.0,3.0,90.0,176.0,31.0,1.0
102807,-0.39537,-1.086321,-0.4665470000000001,0.667979,0.467741,-0.409031,0.0,3.0,90.0,176.0,31.0,1.0
102808,-0.478801,-1.118261,-0.5064960000000001,0.6900430000000001,0.45332,-0.450768,0.0,3.0,90.0,176.0,31.0,1.0
102809,-0.491342,-1.1209870000000002,-0.496084,0.55865,0.686247,-1.300001,0.0,3.0,90.0,176.0,31.0,1.0
102810,-0.472236,-1.108535,-0.453366,0.145242,0.004795000000000001,-0.232927,0.0,3.0,90.0,176.0,31.0,1.0
102811,-0.462061,-1.096769,-0.427569,0.117414,-0.197614,-0.02309,0.0,3.0,90.0,176.0,31.0,1.0
102812,-0.466813,-1.077575,-0.421932,0.099367,-0.339018,-1.060263,0.0,3.0,90.0,176.0,31.0,1.0
102813,-0.5023890000000001,-1.062857,-0.454619,-0.274608,0.8403930000000001,2.539994,0.0,3.0,90.0,176.0,31.0,1.0
102814,-0.500748,-1.057079,-0.468697,-0.579559,1.118914,1.2769780000000002,0.0,3.0,90.0,176.0,31.0,1.0
102815,-0.534083,-1.074999,-0.492133,-0.277424,0.319019,1.580523,0.0,3.0,90.0,176.0,31.0,1.0
102816,-0.510911,-1.077726,-0.506731,0.010006,0.950171,0.924903,0.0,3.0,90.0,176.0,31.0,1.0
102817,-0.469862,-1.074837,-0.5104310000000001,0.060487,0.794728,0.7128260000000001,0.0,3.0,90.0,176.0,31.0,1.0
102818,-0.495926,-1.084685,-0.530587,0.16961800000000002,0.604629,0.5381739999999999,0.0,3.0,90.0,176.0,31.0,1.0
102819,-0.5832729999999999,-1.106294,-0.575362,0.186878,0.715498,0.823961,0.0,3.0,90.0,176.0,31.0,1.0
102820,-0.664194,-1.122293,-0.616632,0.239912,0.639003,0.8020149999999999,0.0,3.0,90.0,176.0,31.0,1.0
102821,-0.726785,-1.140138,-0.6588350000000001,0.335845,0.2509,0.6313840000000001,0.0,3.0,90.0,176.0,31.0,1.0
102822,-0.788293,-1.169469,-0.7128939999999999,0.241919,0.17438199999999998,0.482462,0.0,3.0,90.0,176.0,31.0,1.0
102823,-0.862714,-1.209703,-0.7844869999999999,0.13617,0.162496,0.377747,0.0,3.0,90.0,176.0,31.0,1.0
102824,-0.952333,-1.251125,-0.8745219999999999,-0.002896,-0.036405,0.194991,0.0,3.0,90.0,176.0,31.0,1.0
102825,-1.059159,-1.287295,-0.986346,-0.069535,-0.210753,0.084298,0.0,3.0,90.0,176.0,31.0,1.0
102826,-1.186881,-1.312171,-1.121082,-0.086329,-0.287787,0.234394,0.0,3.0,90.0,176.0,31.0,1.0
102827,-1.3283969999999998,-1.326736,-1.285341,-0.008503,-0.324994,0.304746,0.0,3.0,90.0,176.0,31.0,1.0
102828,-1.471256,-1.329343,-1.467436,0.107196,-0.39073,0.081682,0.0,3.0,90.0,176.0,31.0,1.0
102829,-1.615884,-1.31946,-1.64139,0.290869,-0.191451,-0.402413,0.0,3.0,90.0,176.0,31.0,1.0
102830,-1.731483,-1.300198,-1.758748,0.410446,0.055615,-0.49885,0.0,3.0,90.0,176.0,31.0,1.0
102831,-1.793834,-1.281307,-1.807434,0.352267,0.177581,-0.087841,0.0,3.0,90.0,176.0,31.0,1.0
102832,-1.850125,-1.264921,-1.847628,0.309927,0.359634,-0.086451,0.0,3.0,90.0,176.0,31.0,1.0
102833,-1.924621,-1.250572,-1.906221,0.296602,0.417641,-0.421941,0.0,3.0,90.0,176.0,31.0,1.0
102834,-1.963334,-1.241397,-1.936653,0.148477,0.300727,-0.494155,0.0,3.0,90.0,176.0,31.0,1.0
102835,-1.912686,-1.23839,-1.901364,0.208338,0.292396,-0.255836,0.0,3.0,90.0,176.0,31.0,1.0
102836,-1.843698,-1.233127,-1.850224,0.299891,0.263685,-0.135429,0.0,3.0,90.0,176.0,31.0,1.0
102837,-1.7852419999999998,-1.222996,-1.7913439999999998,0.454984,0.411285,-0.100832,0.0,3.0,90.0,176.0,31.0,1.0
102838,-1.7122990000000002,-1.2103620000000002,-1.704516,0.7873859999999999,0.805254,-0.0756,0.0,3.0,90.0,176.0,31.0,1.0
102839,-1.618091,-1.193943,-1.576777,1.024033,0.855131,-0.141817,0.0,3.0,90.0,176.0,31.0,1.0
102840,-1.518178,-1.178038,-1.419136,0.930243,0.511278,-0.371641,0.0,3.0,90.0,176.0,31.0,1.0
102841,-1.397573,-1.164557,-1.229023,0.787714,0.341976,-0.116891,0.0,3.0,90.0,176.0,31.0,1.0
102842,-1.245718,-1.14361,-1.009373,0.631019,0.221304,0.388759,0.0,3.0,90.0,176.0,31.0,1.0
102843,-1.092352,-1.124804,-0.803618,0.376194,0.704537,0.8610190000000001,0.0,3.0,90.0,176.0,31.0,1.0
102844,-0.957783,-1.112733,-0.6336970000000001,0.288335,0.805024,0.974049,0.0,3.0,90.0,176.0,31.0,1.0
102845,-0.8544950000000001,-1.099835,-0.495339,0.127883,0.621959,0.983849,0.0,3.0,90.0,176.0,31.0,1.0
102846,-0.781822,-1.08258,-0.388202,0.185287,0.304939,0.842735,0.0,3.0,90.0,176.0,31.0,1.0
102847,-0.727563,-1.067149,-0.305193,0.27817800000000004,0.223827,0.779926,0.0,3.0,90.0,176.0,31.0,1.0
102848,-0.701221,-1.057007,-0.238592,0.7101109999999999,0.140266,0.780939,0.0,3.0,90.0,176.0,31.0,1.0
102849,-0.710633,-1.059109,-0.180554,1.235187,0.138121,0.764037,0.0,3.0,90.0,176.0,31.0,1.0
102850,-0.668848,-1.078456,-0.107719,1.268322,0.158856,0.889589,0.0,3.0,90.0,176.0,31.0,1.0
102851,-0.568554,-1.09749,-0.000848,0.8415520000000001,0.336848,0.828541,0.0,3.0,90.0,176.0,31.0,1.0
102852,-0.524736,-1.109767,0.107857,0.651442,0.359608,1.125257,0.0,3.0,90.0,176.0,31.0,1.0
102853,-0.5243760000000001,-1.108543,0.214138,0.41937,0.20958,0.998373,0.0,3.0,90.0,176.0,31.0,1.0
102854,-0.534505,-1.102472,0.31311700000000003,0.170768,-0.010292,0.858197,0.0,3.0,90.0,176.0,31.0,1.0
102855,-0.567545,-1.095171,0.398569,-0.000714,-0.092925,0.8982610000000001,0.0,3.0,90.0,176.0,31.0,1.0
102856,-0.621304,-1.089328,0.474779,-0.004037,-0.05932000000000001,0.974876,0.0,3.0,90.0,176.0,31.0,1.0
102857,-0.684589,-1.087731,0.536876,-0.029094,-0.023804,1.006176,0.0,3.0,90.0,176.0,31.0,1.0
102858,-0.74702,-1.091622,0.582291,-0.140603,-0.039506,1.002715,0.0,3.0,90.0,176.0,31.0,1.0
102859,-0.803917,-1.102029,0.6096630000000001,-0.379259,-0.17218599999999998,0.870613,0.0,3.0,90.0,176.0,31.0,1.0
102860,-0.8597629999999999,-1.11925,0.617467,-0.453504,-0.360955,0.582451,0.0,3.0,90.0,176.0,31.0,1.0
102861,-0.922566,-1.143768,0.599983,-0.387475,-0.556197,0.274029,0.0,3.0,90.0,176.0,31.0,1.0
102862,-0.999514,-1.173558,0.54125,-0.289408,-0.538573,0.13914200000000002,0.0,3.0,90.0,176.0,31.0,1.0
102863,-1.0925,-1.202659,0.442821,-0.165765,-0.472077,-0.102479,0.0,3.0,90.0,176.0,31.0,1.0
102864,-1.212167,-1.225584,0.32312,0.193545,0.499075,-0.993842,0.0,3.0,90.0,176.0,31.0,1.0
102865,-1.245186,-1.230861,0.286874,0.94382,1.869663,-3.266455,0.0,3.0,90.0,176.0,31.0,1.0
102866,-1.188924,-1.244811,0.3839010000000001,2.175775,0.621192,-0.821019,0.0,3.0,90.0,176.0,31.0,1.0
102867,-1.270483,-1.289681,0.335935,1.051018,0.095757,1.383515,0.0,3.0,90.0,176.0,31.0,1.0
102868,-1.301988,-1.291607,0.301899,-0.132106,0.675547,1.285066,0.0,3.0,90.0,176.0,31.0,1.0
102869,-1.227719,-1.263207,0.324262,-0.632212,0.7292310000000001,0.795427,0.0,3.0,90.0,176.0,31.0,1.0
102870,-1.074035,-1.223111,0.453245,-1.567188,0.215079,-2.416803,0.0,3.0,90.0,176.0,31.0,1.0
102871,-1.127859,-1.216679,0.509686,-0.069344,-0.866908,1.256326,0.0,3.0,90.0,176.0,31.0,1.0
102872,-1.138648,-1.2006370000000002,0.5465770000000001,0.4397,-0.911594,1.085042,0.0,3.0,90.0,176.0,31.0,1.0
102873,-1.181433,-1.189463,0.510493,0.499884,-0.6254649999999999,0.979202,0.0,3.0,90.0,176.0,31.0,1.0
102874,-1.2990270000000002,-1.200053,0.411408,0.550367,0.7414649999999999,1.25129,0.0,3.0,90.0,176.0,31.0,1.0
102875,-1.393444,-1.190198,0.348198,0.663563,1.172464,1.009459,0.0,3.0,90.0,176.0,31.0,1.0
102876,-1.440221,-1.166244,0.350097,0.608322,0.545626,0.407815,0.0,3.0,90.0,176.0,31.0,1.0
102877,-1.52829,-1.160833,0.325716,0.518533,0.0263,-0.260194,0.0,3.0,90.0,176.0,31.0,1.0
102878,-1.748515,-1.17334,0.176251,0.31316700000000003,-0.22913200000000006,-0.254461,0.0,3.0,90.0,176.0,31.0,1.0
102879,-2.008869,-1.177593,-0.025144,0.012374,-0.091884,-0.045411,0.0,3.0,90.0,176.0,31.0,1.0
102880,-2.142391,-1.178517,-0.144482,-0.115166,-0.118696,-0.093643,0.0,3.0,90.0,176.0,31.0,1.0
102881,-2.219994,-1.176612,-0.23809,-0.147122,-0.173646,-0.125754,0.0,3.0,90.0,176.0,31.0,1.0
102882,-2.291588,-1.161456,-0.337095,-0.173214,-0.155924,-0.16136,0.0,3.0,90.0,176.0,31.0,1.0
102883,-2.343711,-1.135953,-0.414497,0.05927,-0.09001100000000001,-0.06787,0.0,3.0,90.0,176.0,31.0,1.0
102884,-2.365155,-1.10906,-0.448485,0.13231600000000002,-0.020219,-0.074408,0.0,3.0,90.0,176.0,31.0,1.0
102885,-2.379714,-1.083858,-0.458395,0.235264,0.13747,-0.18033,0.0,3.0,90.0,176.0,31.0,1.0
102886,-2.421419,-1.053961,-0.476486,0.434916,0.278699,-0.616646,0.0,3.0,90.0,176.0,31.0,1.0
102887,-2.501269,-1.016351,-0.501604,0.631077,0.374707,-0.939729,0.0,3.0,90.0,176.0,31.0,1.0
102888,-2.553414,-0.996653,-0.498771,0.426856,0.200869,-0.5397390000000001,0.0,3.0,90.0,176.0,31.0,1.0
102889,-2.564105,-0.99322,-0.495374,0.310772,0.16952,-0.408613,0.0,3.0,90.0,176.0,31.0,1.0
102890,-2.557151,-0.992742,-0.509813,0.076419,0.309613,-0.338641,0.0,3.0,90.0,176.0,31.0,1.0
102891,-2.540768,-0.993607,-0.517497,0.129378,0.272352,-0.400304,0.0,3.0,90.0,176.0,31.0,1.0
102892,-2.520839,-1.000085,-0.496012,0.315435,0.345297,-0.359277,0.0,3.0,90.0,176.0,31.0,1.0
102893,-2.504565,-1.008373,-0.458309,0.5003770000000001,0.492322,-0.370274,0.0,3.0,90.0,176.0,31.0,1.0
102894,-2.484351,-1.022882,-0.409681,0.792046,0.8638399999999999,-0.473399,0.0,3.0,90.0,176.0,31.0,1.0
102895,-2.4523080000000004,-1.053154,-0.347299,0.884916,1.070007,-0.5465220000000001,0.0,3.0,90.0,176.0,31.0,1.0
102896,-2.412385,-1.096106,-0.26674000000000003,0.561416,0.748017,-0.738448,0.0,3.0,90.0,176.0,31.0,1.0
102897,-2.364541,-1.15314,-0.152659,0.217382,0.278661,-0.571458,0.0,3.0,90.0,176.0,31.0,1.0
102898,-2.277792,-1.214813,0.017613,0.149179,0.201749,0.022539,0.0,3.0,90.0,176.0,31.0,1.0
102899,-2.127014,-1.267795,0.228972,0.037415,0.36747,0.53554,0.0,3.0,90.0,176.0,31.0,1.0
102900,-1.922827,-1.303004,0.462035,-0.021743,0.470839,0.810582,0.0,3.0,90.0,176.0,31.0,1.0
102901,-1.672177,-1.316249,0.714061,-0.191115,0.33312600000000003,0.793244,0.0,3.0,90.0,176.0,31.0,1.0
102902,-1.381798,-1.309296,0.97548,-0.084062,0.053894,0.42375,0.0,3.0,90.0,176.0,31.0,1.0
102903,-1.171922,-1.3036370000000002,1.156008,0.26069000000000003,0.057173,0.003294,0.0,3.0,90.0,176.0,31.0,1.0
102904,-1.170005,-1.322572,1.200641,0.750683,0.19102,-0.07832,0.0,3.0,90.0,176.0,31.0,1.0
102905,-1.0392,-1.339874,1.363767,0.21913600000000005,0.190531,0.221507,0.0,3.0,90.0,176.0,31.0,1.0
102906,-0.820254,-1.335589,1.596506,-0.010342,0.03263,0.395944,0.0,3.0,90.0,176.0,31.0,1.0
102907,-0.654778,-1.320751,1.7914150000000002,-0.119874,-0.20262,0.592954,0.0,3.0,90.0,176.0,31.0,1.0
102908,-0.542262,-1.3033549999999998,1.93047,-0.125608,-0.348087,0.474477,0.0,3.0,90.0,176.0,31.0,1.0
102909,-0.48153,-1.285312,2.017617,-0.070018,-0.418189,0.428203,0.0,3.0,90.0,176.0,31.0,1.0
102910,-0.452203,-1.271004,2.068034,-0.093485,-0.5530390000000001,0.366362,0.0,3.0,90.0,176.0,31.0,1.0
102911,-0.4451020000000001,-1.266699,2.086377,-0.109871,-0.636857,0.350017,0.0,3.0,90.0,176.0,31.0,1.0
102912,-0.464036,-1.275125,2.066816,-0.099667,-0.6282369999999999,0.30412,0.0,3.0,90.0,176.0,31.0,1.0
102913,-0.5163760000000001,-1.293463,2.003821,-0.03942,-0.683774,0.230159,0.0,3.0,90.0,176.0,31.0,1.0
102914,-0.616635,-1.316767,1.88681,-0.004097,-0.6966979999999999,0.143544,0.0,3.0,90.0,176.0,31.0,1.0
102915,-0.787338,-1.338861,1.697404,-0.037818,-0.600665,0.050449,0.0,3.0,90.0,176.0,31.0,1.0
102916,-1.052445,-1.354759,1.418369,-3.9e-05,-0.294809,-0.047677,0.0,3.0,90.0,176.0,31.0,1.0
102917,-1.374271,-1.362248,1.098134,0.218376,-0.169891,-0.105468,0.0,3.0,90.0,176.0,31.0,1.0
102918,-1.6389189999999998,-1.368056,0.836032,0.471851,-0.03857,-0.34192100000000003,0.0,3.0,90.0,176.0,31.0,1.0
102919,-1.7618349999999998,-1.374407,0.68821,0.498431,0.110089,-0.60606,0.0,3.0,90.0,176.0,31.0,1.0
102920,-1.84305,-1.368183,0.584421,0.354706,0.082025,-0.550715,0.0,3.0,90.0,176.0,31.0,1.0
102921,-1.949692,-1.358146,0.484913,0.345482,0.146106,-0.440528,0.0,3.0,90.0,176.0,31.0,1.0
102922,-2.06377,-1.345785,0.397723,0.250662,0.068879,-0.452377,0.0,3.0,90.0,176.0,31.0,1.0
102923,-2.175818,-1.332213,0.312941,0.06537000000000001,0.081259,-0.545611,0.0,3.0,90.0,176.0,31.0,1.0
102924,-2.2703830000000003,-1.321423,0.234214,-0.126471,0.189197,-0.718298,0.0,3.0,90.0,176.0,31.0,1.0
102925,-2.346299,-1.310179,0.162971,-0.260721,0.959764,0.237273,0.0,3.0,90.0,176.0,31.0,1.0
102926,-2.401032,-1.290908,0.113953,-0.265353,0.859608,0.567866,0.0,3.0,90.0,176.0,31.0,1.0
102927,-2.408002,-1.285105,0.108159,-0.089905,-0.045374,0.304848,0.0,3.0,90.0,176.0,31.0,1.0
102928,-2.392175,-1.284755,0.130411,-0.034584,-0.239352,-0.17177,0.0,3.0,90.0,176.0,31.0,1.0
102929,-2.383142,-1.283585,0.16711099999999998,-0.082613,0.102959,-0.547779,0.0,3.0,90.0,176.0,31.0,1.0
102930,-2.368175,-1.285809,0.217619,0.29840700000000003,1.329794,-0.379754,0.0,3.0,90.0,176.0,31.0,1.0
102931,-2.334717,-1.295107,0.237965,0.289449,1.123898,-0.146477,0.0,3.0,90.0,176.0,31.0,1.0
102932,-2.338447,-1.302393,0.187706,0.023273,0.581596,0.35498,0.0,3.0,90.0,176.0,31.0,1.0
102933,-2.343644,-1.305754,0.146197,0.07219099999999999,-0.143289,0.241723,0.0,3.0,90.0,176.0,31.0,1.0
102934,-2.332976,-1.304592,0.143261,0.088798,-0.355569,0.438653,0.0,3.0,90.0,176.0,31.0,1.0
102935,-2.330911,-1.296674,0.127126,0.112831,-0.313493,0.495861,0.0,3.0,90.0,176.0,31.0,1.0
102936,-2.337843,-1.278863,0.091589,0.15656199999999998,0.058256,0.024353,0.0,3.0,90.0,176.0,31.0,1.0
102937,-2.364661,-1.255748,0.064912,0.200472,0.206369,-1.094853,0.0,3.0,90.0,176.0,31.0,1.0
102938,-2.502555,-1.206557,-0.0026620000000000003,0.305566,0.122307,-1.521201,0.0,3.0,90.0,176.0,31.0,1.0
102939,-2.539876,-1.189782,0.004872,0.194448,-0.082036,-0.689606,0.0,3.0,90.0,176.0,31.0,1.0
102940,-2.480675,-1.193602,0.031474,0.20372,-0.006316,-0.566941,0.0,3.0,90.0,176.0,31.0,1.0
102941,-2.472665,-1.186858,0.015096,0.205775,-0.0621,-0.499904,0.0,3.0,90.0,176.0,31.0,1.0
102942,-2.471981,-1.183145,-0.001387,0.241695,-0.288501,-0.52556,0.0,3.0,90.0,176.0,31.0,1.0
102943,-2.444535,-1.186439,0.003694,0.200616,-0.342903,-0.5919260000000001,0.0,3.0,90.0,176.0,31.0,1.0
102944,-2.402126,-1.19572,0.027633,-0.00863,-0.296889,-0.464132,0.0,3.0,90.0,176.0,31.0,1.0
102945,-2.370088,-1.206413,0.059529,0.207042,-0.134478,-0.244332,0.0,3.0,90.0,176.0,31.0,1.0
102946,-2.316139,-1.223492,0.112073,0.40385,-0.085298,-0.368112,0.0,3.0,90.0,176.0,31.0,1.0
102947,-2.237647,-1.245515,0.174377,0.496794,-0.024435,-0.450716,0.0,3.0,90.0,176.0,31.0,1.0
102948,-2.117313,-1.273586,0.255816,0.6470279999999999,0.222966,-0.8335549999999999,0.0,3.0,90.0,176.0,31.0,1.0
102949,-1.938952,-1.31096,0.395892,0.61357,0.480879,-1.024845,0.0,3.0,90.0,176.0,31.0,1.0
102950,-1.69426,-1.3489520000000002,0.641653,0.393741,0.678483,-0.701318,0.0,3.0,90.0,176.0,31.0,1.0
102951,-1.315448,-1.3685770000000002,1.058976,0.168852,0.8828950000000001,0.167284,0.0,3.0,90.0,176.0,31.0,1.0
102952,-0.950398,-1.353567,1.486389,0.136569,0.7214079999999999,0.520303,0.0,3.0,90.0,176.0,31.0,1.0
102953,-0.6926869999999999,-1.328529,1.778302,0.163491,0.363691,0.969068,0.0,3.0,90.0,176.0,31.0,1.0
102954,-0.495513,-1.3151389999999998,1.980728,0.16988399999999998,0.219759,-0.026787,0.0,3.0,90.0,176.0,31.0,1.0
102955,-0.292667,-1.309279,2.178789,0.122836,0.449986,-0.183891,0.0,3.0,90.0,176.0,31.0,1.0
102956,-0.14852,-1.294849,2.33954,-0.330398,0.388098,0.16721,0.0,3.0,90.0,176.0,31.0,1.0
102957,-0.070761,-1.279839,2.430129,-0.74893,-0.133324,0.283849,0.0,3.0,90.0,176.0,31.0,1.0
102958,-0.014614,-1.279892,2.483979,-0.591634,-0.506554,0.218903,0.0,3.0,90.0,176.0,31.0,1.0
102959,0.004458,-1.300591,2.493551,-0.467102,-0.633196,0.257969,0.0,3.0,90.0,176.0,31.0,1.0
102960,-0.026039,-1.337656,2.44598,-0.187573,-0.595626,0.30782600000000004,0.0,3.0,90.0,176.0,31.0,1.0
102961,-0.138177,-1.383779,2.321648,-0.158796,-0.54166,0.298254,0.0,3.0,90.0,176.0,31.0,1.0
102962,-0.386473,-1.427822,2.059051,-0.212449,-0.354833,0.186085,0.0,3.0,90.0,176.0,31.0,1.0
102963,-0.881956,-1.452043,1.542726,-0.17840899999999998,-0.136298,-0.010368,0.0,3.0,90.0,176.0,31.0,1.0
102964,-1.4591,-1.437462,0.965668,-0.024286,0.266948,-0.067203,0.0,3.0,90.0,176.0,31.0,1.0
102965,-1.864646,-1.4017389999999998,0.5947439999999999,0.29051,0.252446,-0.063463,0.0,3.0,90.0,176.0,31.0,1.0
102966,-2.121695,-1.359885,0.381939,0.555901,0.16121300000000002,-0.881725,0.0,3.0,90.0,176.0,31.0,1.0
102967,-2.253733,-1.327107,0.2655,0.6092350000000001,0.019597,-1.201367,0.0,3.0,90.0,176.0,31.0,1.0
102968,-2.3726130000000003,-1.305565,0.160776,0.697038,-0.220174,-1.113555,0.0,3.0,90.0,176.0,31.0,1.0
102969,-2.483896,-1.289999,0.069316,0.769927,-0.7409399999999999,-0.614953,0.0,3.0,90.0,176.0,31.0,1.0
102970,-2.511425,-1.286619,0.028404,0.528053,-0.895958,-0.671166,0.0,3.0,90.0,176.0,31.0,1.0
102971,-2.513529,-1.297524,0.021862,-0.108345,0.122816,0.15069100000000002,0.0,3.0,90.0,176.0,31.0,1.0
102972,-2.496375,-1.296814,0.047339,-0.304544,0.969336,0.304553,0.0,3.0,90.0,176.0,31.0,1.0
102973,-2.504437,-1.286573,0.069491,-0.304143,0.852086,-0.242613,0.0,3.0,90.0,176.0,31.0,1.0
102974,-2.571168,-1.267687,0.054731,0.045673000000000005,1.539621,-1.15761,0.0,3.0,90.0,176.0,31.0,1.0
102975,-2.509043,-1.285102,0.05863,0.351948,1.923606,-1.53233,0.0,3.0,90.0,176.0,31.0,1.0
102976,-2.408138,-1.321802,0.100498,-0.195202,-0.489989,0.626603,0.0,3.0,90.0,176.0,31.0,1.0
102977,-2.387168,-1.353657,0.132747,0.002795,-0.7138680000000001,0.398751,0.0,3.0,90.0,176.0,31.0,1.0
102978,-2.326203,-1.376955,0.210535,0.052013,-0.656305,0.379464,0.0,3.0,90.0,176.0,31.0,1.0
102979,-2.251061,-1.37888,0.304884,-0.003081,-0.379346,0.368877,0.0,3.0,90.0,176.0,31.0,1.0
102980,-2.277633,-1.361176,0.312661,0.076529,0.037866,0.078704,0.0,3.0,90.0,176.0,31.0,1.0
102981,-2.313533,-1.34509,0.218532,1.312748,0.8370549999999999,-1.81303,0.0,3.0,90.0,176.0,31.0,1.0
102982,-2.247571,-1.362784,0.128371,0.190926,0.312282,-1.7435439999999998,0.0,3.0,90.0,176.0,31.0,1.0
102983,-2.172523,-1.395303,0.201179,-0.278099,0.175623,-0.792094,0.0,3.0,90.0,176.0,31.0,1.0
102984,-1.866509,-1.435126,0.51136,-0.151116,-0.092068,-0.493169,0.0,3.0,90.0,176.0,31.0,1.0
102985,-1.382098,-1.459825,0.974965,0.253242,0.105699,-0.215214,0.0,3.0,90.0,176.0,31.0,1.0
102986,-0.769833,-1.441982,1.603838,0.518502,0.177597,0.194837,0.0,3.0,90.0,176.0,31.0,1.0
102987,-0.419108,-1.404338,1.98619,0.852326,0.560499,0.7447050000000001,0.0,3.0,90.0,176.0,31.0,1.0
102988,-0.201758,-1.368354,2.233649,0.611957,0.5172939999999999,0.887389,0.0,3.0,90.0,176.0,31.0,1.0
102989,-0.042782,-1.336125,2.409494,-0.193441,0.099126,0.752416,0.0,3.0,90.0,176.0,31.0,1.0
102990,0.090098,-1.312056,2.526587,-0.914835,-0.093925,0.129074,0.0,3.0,90.0,176.0,31.0,1.0
102991,0.153586,-1.296667,2.578623,-1.16725,-0.019592,-0.036237,0.0,3.0,90.0,176.0,31.0,1.0
102992,0.203669,-1.303156,2.602986,-0.494893,-0.19714,0.113357,0.0,3.0,90.0,176.0,31.0,1.0
102993,0.236225,-1.337369,2.587954,-0.15828699999999998,-0.243891,0.048293,0.0,3.0,90.0,176.0,31.0,1.0
102994,0.208384,-1.394658,2.513385,-0.038579,-0.218689,0.048118,0.0,3.0,90.0,176.0,31.0,1.0
102995,0.004949,-1.458684,2.278588,0.089229,-0.078683,0.052286,0.0,3.0,90.0,176.0,31.0,1.0
102996,-0.5934050000000001,-1.490949,1.66671,0.145347,0.176953,-0.170428,0.0,3.0,90.0,176.0,31.0,1.0
102997,-1.27149,-1.478269,0.993392,0.251969,0.187383,-0.231534,0.0,3.0,90.0,176.0,31.0,1.0
102998,-1.73859,-1.440695,0.555288,0.38365,-0.043871,-0.270881,0.0,3.0,90.0,176.0,31.0,1.0
102999,-2.041844,-1.388348,0.310055,0.333063,-0.065662,-0.320651,0.0,3.0,90.0,176.0,31.0,1.0
103000,-2.26966,-1.336048,0.159274,0.360025,0.15140499999999998,-0.304728,0.0,3.0,90.0,176.0,31.0,1.0
103001,-2.408612,-1.299296,0.08844199999999999,0.352893,0.28370100000000004,-0.598424,0.0,3.0,90.0,176.0,31.0,1.0
103002,-2.447093,-1.286463,0.058831,0.341746,0.0034990000000000004,-1.06417,0.0,3.0,90.0,176.0,31.0,1.0
103003,-2.431251,-1.288291,0.014394,0.41838,-0.578829,-0.989672,0.0,3.0,90.0,176.0,31.0,1.0
103004,-2.437266,-1.283825,-0.032632,0.299627,-0.8988940000000001,0.076193,0.0,3.0,90.0,176.0,31.0,1.0
103005,-2.428694,-1.288546,-0.008945999999999999,0.094297,-0.920773,0.438774,0.0,3.0,90.0,176.0,31.0,1.0
103006,-2.404274,-1.2933290000000002,0.032249,-0.192035,0.203256,0.301943,0.0,3.0,90.0,176.0,31.0,1.0
103007,-2.4148,-1.274763,0.040306,-0.253939,0.988232,-0.187384,0.0,3.0,90.0,176.0,31.0,1.0
103008,-2.469996,-1.260867,0.04624,0.5048560000000001,0.4206,-1.181349,0.0,3.0,90.0,176.0,31.0,1.0
103009,-2.486639,-1.269664,0.056728,-0.083798,0.382264,0.189978,0.0,3.0,90.0,176.0,31.0,1.0
103010,-2.48096,-1.270838,0.049688,-0.137124,3.126576,-1.838518,0.0,3.0,90.0,176.0,31.0,1.0
103011,-2.427353,-1.282019,0.044899,-0.219037,-0.187017,0.479117,0.0,3.0,90.0,176.0,31.0,1.0
103012,-2.389264,-1.302147,0.069766,0.216653,-0.702412,0.136248,0.0,3.0,90.0,176.0,31.0,1.0
103013,-2.432699,-1.313302,0.068243,0.26227399999999995,-0.603857,0.210722,0.0,3.0,90.0,176.0,31.0,1.0
103014,-2.435131,-1.310076,0.098674,0.166889,-0.066272,0.026933,0.0,3.0,90.0,176.0,31.0,1.0
103015,-2.312652,-1.309743,0.150124,0.7032689999999999,0.393028,-1.338383,0.0,3.0,90.0,176.0,31.0,1.0
103016,-2.2299330000000004,-1.320463,0.100047,0.8584379999999999,0.273388,-1.39413,0.0,3.0,90.0,176.0,31.0,1.0
103017,-2.136801,-1.353343,0.113522,0.391116,0.258841,-1.797563,0.0,3.0,90.0,176.0,31.0,1.0
103018,-1.920682,-1.401789,0.326,-0.227065,0.043651,-0.496885,0.0,3.0,90.0,176.0,31.0,1.0
103019,-1.44221,-1.438448,0.7958069999999999,-0.285008,0.055697,-0.27736500000000003,0.0,3.0,90.0,176.0,31.0,1.0
103020,-0.825594,-1.431236,1.420508,0.128374,0.080661,0.071887,0.0,3.0,90.0,176.0,31.0,1.0
103021,-0.449089,-1.385728,1.849257,0.640422,0.05034,1.217025,0.0,3.0,90.0,176.0,31.0,1.0
103022,-0.227718,-1.348117,2.10801,0.8237620000000001,0.109423,1.124695,0.0,3.0,90.0,176.0,31.0,1.0
103023,-0.077459,-1.319101,2.249382,-0.028459,0.330581,-0.067487,0.0,3.0,90.0,176.0,31.0,1.0
103024,-0.021068,-1.287427,2.305659,-0.690354,0.387873,-0.14582699999999998,0.0,3.0,90.0,176.0,31.0,1.0
103025,-0.023287,-1.263885,2.325211,-0.774582,0.118964,0.474854,0.0,3.0,90.0,176.0,31.0,1.0
103026,-0.040299,-1.2595379999999998,2.310736,-0.570929,-0.278594,0.433631,0.0,3.0,90.0,176.0,31.0,1.0
103027,-0.091323,-1.280751,2.2384630000000003,-0.379346,-0.562174,0.405895,0.0,3.0,90.0,176.0,31.0,1.0
103028,-0.195645,-1.321105,2.092805,-0.236345,-0.4527229999999999,0.259124,0.0,3.0,90.0,176.0,31.0,1.0
103029,-0.409176,-1.360566,1.8466240000000005,-0.034066,-0.16677999999999998,-0.005818,0.0,3.0,90.0,176.0,31.0,1.0
103030,-0.7296699999999999,-1.38242,1.5303639999999998,0.23260100000000006,-0.004832,-0.029293,0.0,3.0,90.0,176.0,31.0,1.0
103031,-1.092375,-1.391514,1.18875,0.353123,0.013556,0.096132,0.0,3.0,90.0,176.0,31.0,1.0
103032,-1.516029,-1.387323,0.79302,0.381612,0.368179,-0.124796,0.0,3.0,90.0,176.0,31.0,1.0
103033,-1.944413,-1.354601,0.402463,0.296531,0.291163,-0.6450239999999999,0.0,3.0,90.0,176.0,31.0,1.0
103034,-2.228951,-1.309214,0.14699600000000002,0.337455,0.194449,-0.769016,0.0,3.0,90.0,176.0,31.0,1.0
103035,-2.367009,-1.278837,0.015156,0.47273,-0.032297,-0.951085,0.0,3.0,90.0,176.0,31.0,1.0
103036,-2.418867,-1.265377,-0.06084,0.610657,-0.447724,-0.913319,0.0,3.0,90.0,176.0,31.0,1.0
103037,-2.423145,-1.268476,-0.091309,0.376497,-0.625684,-0.533554,0.0,3.0,90.0,176.0,31.0,1.0
103038,-2.417525,-1.287671,-0.064901,-0.17112,-0.259015,0.481319,0.0,3.0,90.0,176.0,31.0,1.0
103039,-2.380399,-1.287966,-0.013955,-0.271281,0.151425,0.110119,0.0,3.0,90.0,176.0,31.0,1.0
103040,-2.414038,-1.270644,0.0007099999999999999,-0.479995,0.599961,-0.22432,0.0,3.0,90.0,176.0,31.0,1.0
103041,-2.470574,-1.257024,-0.019274,0.434386,1.738521,-1.612235,0.0,3.0,90.0,176.0,31.0,1.0
103042,-2.384672,-1.283143,-0.002594,0.8860620000000001,2.682476,-2.8276,0.0,3.0,90.0,176.0,31.0,1.0
103043,-2.281995,-1.320751,0.027606,-0.297321,-0.099516,0.4518,0.0,3.0,90.0,176.0,31.0,1.0
103044,-2.25354,-1.347101,0.065153,0.076651,-0.536791,0.431261,0.0,3.0,90.0,176.0,31.0,1.0
103045,-2.144588,-1.365016,0.190216,0.209461,-0.541112,0.385414,0.0,3.0,90.0,176.0,31.0,1.0
103046,-2.026006,-1.361645,0.34254,0.269154,-0.252179,0.288829,0.0,3.0,90.0,176.0,31.0,1.0
103047,-2.143153,-1.335753,0.252329,0.799941,0.742095,-0.753677,0.0,3.0,90.0,176.0,31.0,1.0
103048,-2.131595,-1.340373,0.148722,0.60956,0.236315,-1.044152,0.0,3.0,90.0,176.0,31.0,1.0
103049,-2.051664,-1.364766,0.155601,0.282993,0.057068,-1.478045,0.0,3.0,90.0,176.0,31.0,1.0
103050,-1.843831,-1.405245,0.335264,0.256805,0.363846,-1.097419,0.0,3.0,90.0,176.0,31.0,1.0
103051,-1.406187,-1.435759,0.788745,0.335239,0.523691,-0.318783,0.0,3.0,90.0,176.0,31.0,1.0
103052,-0.846464,-1.419785,1.39992,0.361125,0.384321,0.213272,0.0,3.0,90.0,176.0,31.0,1.0
103053,-0.52681,-1.370143,1.790604,0.575168,0.118345,1.06615,0.0,3.0,90.0,176.0,31.0,1.0
103054,-0.372636,-1.327775,2.014043,0.544189,-0.086582,1.340615,0.0,3.0,90.0,176.0,31.0,1.0
103055,-0.238163,-1.2964440000000002,2.167296,-0.195397,-0.2314,0.596431,0.0,3.0,90.0,176.0,31.0,1.0
103056,-0.147989,-1.264359,2.25411,-0.697817,0.057267,0.05924400000000001,0.0,3.0,90.0,176.0,31.0,1.0
103057,-0.091079,-1.244045,2.331048,-0.67578,0.368462,0.398357,0.0,3.0,90.0,176.0,31.0,1.0
103058,-0.034114,-1.240471,2.387381,-0.624283,-0.129348,0.293842,0.0,3.0,90.0,176.0,31.0,1.0
103059,0.011564,-1.255678,2.411493,-0.472532,-0.35469,0.218781,0.0,3.0,90.0,176.0,31.0,1.0
103060,0.020283,-1.290296,2.388689,-0.119079,-0.205882,0.246104,0.0,3.0,90.0,176.0,31.0,1.0
103061,-0.04152,-1.340789,2.302095,-0.031615,-0.115587,0.187662,0.0,3.0,90.0,176.0,31.0,1.0
103062,-0.248608,-1.392508,2.078897,-0.0314,0.099118,0.025923,0.0,3.0,90.0,176.0,31.0,1.0
103063,-0.639264,-1.424727,1.684244,0.021211,0.317519,-0.221179,0.0,3.0,90.0,176.0,31.0,1.0
103064,-1.134895,-1.433409,1.208885,0.161762,0.148385,-0.363032,0.0,3.0,90.0,176.0,31.0,1.0
103065,-1.638677,-1.415746,0.748941,0.293964,0.023211,-0.283512,0.0,3.0,90.0,176.0,31.0,1.0
103066,-1.983954,-1.378355,0.454747,0.332504,-0.094852,-0.351202,0.0,3.0,90.0,176.0,31.0,1.0
103067,-2.190062,-1.34369,0.302268,0.32424899999999995,0.100934,-0.5382020000000001,0.0,3.0,90.0,176.0,31.0,1.0
103068,-2.342103,-1.323169,0.197137,0.298899,0.182115,-0.755685,0.0,3.0,90.0,176.0,31.0,1.0
103069,-2.426053,-1.323445,0.11049,0.301557,-0.292745,-1.222894,0.0,3.0,90.0,176.0,31.0,1.0
103070,-2.492784,-1.316135,0.012934,0.244101,-0.888891,-0.230868,0.0,3.0,90.0,176.0,31.0,1.0
103071,-2.477887,-1.321194,-0.010573,-0.134272,-1.181673,0.507459,0.0,3.0,90.0,176.0,31.0,1.0
103072,-2.454312,-1.327781,-0.021699,-0.226845,-0.933889,0.145143,0.0,3.0,90.0,176.0,31.0,1.0
103073,-2.492945,-1.303447,-0.038409,-0.395621,0.819385,-0.562485,0.0,3.0,90.0,176.0,31.0,1.0
103074,-2.483688,-1.283578,0.058027,0.181422,1.866358,-0.8179109999999999,0.0,3.0,90.0,176.0,31.0,1.0
103075,-2.447401,-1.290757,0.125643,0.629382,1.187835,-0.60016,0.0,3.0,90.0,176.0,31.0,1.0
103076,-2.416024,-1.30404,0.116878,0.5227350000000001,2.320922,-1.426798,0.0,3.0,90.0,176.0,31.0,1.0
103077,-2.351069,-1.335697,0.12954100000000002,-0.165037,0.260572,0.476967,0.0,3.0,90.0,176.0,31.0,1.0
103078,-2.28439,-1.364961,0.174574,0.041816000000000006,-0.635568,0.29575,0.0,3.0,90.0,176.0,31.0,1.0
103079,-2.252482,-1.379449,0.213166,0.114715,-0.621367,0.376516,0.0,3.0,90.0,176.0,31.0,1.0
103080,-2.206331,-1.371728,0.273426,0.08747100000000001,-0.040096,0.261481,0.0,3.0,90.0,176.0,31.0,1.0
103081,-2.211882,-1.35006,0.295104,0.104949,0.13081600000000002,0.042967,0.0,3.0,90.0,176.0,31.0,1.0
103082,-2.296852,-1.322207,0.177093,0.86029,0.533974,-1.467358,0.0,3.0,90.0,176.0,31.0,1.0
103083,-2.234441,-1.342363,0.11738,-0.10164,0.073646,-1.150502,0.0,3.0,90.0,176.0,31.0,1.0
103084,-2.231929,-1.3623379999999998,0.106059,-0.246979,-0.194019,-0.491624,0.0,3.0,90.0,176.0,31.0,1.0
103085,-2.089946,-1.3914030000000002,0.241622,-0.184977,-0.283772,-0.469059,0.0,3.0,90.0,176.0,31.0,1.0
103086,-1.826551,-1.421497,0.461978,0.361445,0.056291,-0.733218,0.0,3.0,90.0,176.0,31.0,1.0
103087,-1.349851,-1.45002,0.893531,0.574859,0.461371,-0.703712,0.0,3.0,90.0,176.0,31.0,1.0
103088,-0.710443,-1.438956,1.550562,0.7104239999999999,0.7606930000000001,-0.220942,0.0,3.0,90.0,176.0,31.0,1.0
103089,-0.32325,-1.389337,1.9955080000000005,0.370424,0.318176,0.755282,0.0,3.0,90.0,176.0,31.0,1.0
103090,-0.108837,-1.337824,2.241755,0.134999,0.151329,0.6041880000000001,0.0,3.0,90.0,176.0,31.0,1.0
103091,0.005679,-1.294263,2.367075,-0.042596,0.023237,0.271516,0.0,3.0,90.0,176.0,31.0,1.0
103092,0.060353,-1.262125,2.432354,-0.5448270000000001,0.568533,0.075561,0.0,3.0,90.0,176.0,31.0,1.0
103093,0.118095,-1.242754,2.484037,-0.599772,0.289897,-0.076967,0.0,3.0,90.0,176.0,31.0,1.0
103094,0.15254,-1.235806,2.5094990000000004,-0.622035,0.006285,-0.031625,0.0,3.0,90.0,176.0,31.0,1.0
103095,0.169701,-1.245399,2.509578,-0.446704,-0.469557,0.08024500000000001,0.0,3.0,90.0,176.0,31.0,1.0
103096,0.165517,-1.274823,2.481676,-0.191455,-0.5293640000000001,0.158395,0.0,3.0,90.0,176.0,31.0,1.0
103097,0.120824,-1.316394,2.412907,-0.023754,-0.405466,0.121545,0.0,3.0,90.0,176.0,31.0,1.0
103098,-0.010067,-1.354283,2.266814,0.002101,0.238878,0.065937,0.0,3.0,90.0,176.0,31.0,1.0
103099,-0.249502,-1.384977,2.024826,-0.075986,-0.080335,0.032729,0.0,3.0,90.0,176.0,31.0,1.0
103100,-0.573419,-1.408051,1.7103240000000002,0.007955,-0.315323,0.07698200000000001,0.0,3.0,90.0,176.0,31.0,1.0
103101,-0.94866,-1.423175,1.334163,0.182265,-0.435672,0.172071,0.0,3.0,90.0,176.0,31.0,1.0
103102,-1.358413,-1.42201,0.928817,0.185205,-0.45201,0.096072,0.0,3.0,90.0,176.0,31.0,1.0
103103,-1.7279400000000005,-1.399618,0.583018,0.208056,-0.073291,-0.100077,0.0,3.0,90.0,176.0,31.0,1.0
103104,-2.033686,-1.361956,0.345564,0.289995,0.468551,-0.016816,0.0,3.0,90.0,176.0,31.0,1.0
103105,-2.249529,-1.323823,0.201015,0.511702,0.987908,-0.529465,0.0,3.0,90.0,176.0,31.0,1.0
103106,-2.276722,-1.326108,0.134588,0.836935,0.226351,-2.0161,0.0,3.0,90.0,176.0,31.0,1.0
103107,-2.356571,-1.326898,0.03021,0.302291,-0.8353790000000001,-0.631322,0.0,3.0,90.0,176.0,31.0,1.0
103108,-2.418332,-1.330824,-0.026337,-0.104533,-1.263367,0.5829310000000001,0.0,3.0,90.0,176.0,31.0,1.0
103109,-2.408067,-1.340517,-0.025514,-0.148208,-1.233124,0.266927,0.0,3.0,90.0,176.0,31.0,1.0
103110,-2.483536,-1.325997,-0.105778,-0.4637979999999999,-1.300661,-0.925946,0.0,3.0,90.0,176.0,31.0,1.0
103111,-2.687479,-1.2919770000000002,-0.251101,0.006229,-0.259736,0.12639,0.0,3.0,90.0,176.0,31.0,1.0
103112,-2.605544,-1.290041,-0.13708800000000002,0.289267,2.82788,-0.151626,0.0,3.0,90.0,176.0,31.0,1.0
103113,-2.53758,-1.275511,-0.024605,0.612452,0.652686,-0.711908,0.0,3.0,90.0,176.0,31.0,1.0
103114,-2.547945,-1.27215,-0.02692,0.234012,1.329115,-0.285989,0.0,3.0,90.0,176.0,31.0,1.0
103115,-2.503846,-1.281049,-0.014596,0.32807800000000004,2.201474,-2.367357,0.0,3.0,90.0,176.0,31.0,1.0
103116,-2.399995,-1.316066,0.039793,-0.218932,-0.616276,0.8825149999999999,0.0,3.0,90.0,176.0,31.0,1.0
103117,-2.316575,-1.338266,0.08730399999999999,0.02137,-0.803363,0.267583,0.0,3.0,90.0,176.0,31.0,1.0
103118,-2.233678,-1.3528950000000002,0.163331,0.122194,-0.738957,0.192246,0.0,3.0,90.0,176.0,31.0,1.0
103119,-2.202639,-1.346932,0.216325,0.2155,-0.394435,0.078239,0.0,3.0,90.0,176.0,31.0,1.0
103120,-2.281523,-1.321661,0.171481,0.985121,0.580908,-1.222676,0.0,3.0,90.0,176.0,31.0,1.0
103121,-2.240454,-1.328909,0.143228,0.71959,0.35562,-0.926341,0.0,3.0,90.0,176.0,31.0,1.0
103122,-2.152907,-1.351174,0.165812,0.187442,0.134234,-0.8449459999999999,0.0,3.0,90.0,176.0,31.0,1.0
103123,-1.975491,-1.382159,0.320844,-0.026609,0.174493,-0.956615,0.0,3.0,90.0,176.0,31.0,1.0
103124,-1.574466,-1.413736,0.7087600000000001,0.029904000000000007,0.160334,-0.7493989999999999,0.0,3.0,90.0,176.0,31.0,1.0
103125,-1.066756,-1.413583,1.227027,0.296421,0.37305,0.004658,0.0,3.0,90.0,176.0,31.0,1.0
103126,-0.7038840000000001,-1.382232,1.634238,0.343049,0.309611,0.466788,0.0,3.0,90.0,176.0,31.0,1.0
103127,-0.502937,-1.343407,1.889185,0.7359220000000001,-0.035019,0.939686,0.0,3.0,90.0,176.0,31.0,1.0
103128,-0.359162,-1.312518,2.059932,0.359682,-0.160969,0.294672,0.0,3.0,90.0,176.0,31.0,1.0
103129,-0.267706,-1.287767,2.159596,-0.324388,0.272772,0.091306,0.0,3.0,90.0,176.0,31.0,1.0
103130,-0.209785,-1.269046,2.228632,-0.690891,0.346604,0.224833,0.0,3.0,90.0,176.0,31.0,1.0
103131,-0.157299,-1.263286,2.280137,-0.421474,-0.113933,0.183058,0.0,3.0,90.0,176.0,31.0,1.0
103132,-0.098259,-1.280308,2.3172040000000003,-0.07259600000000001,-0.325841,0.043291,0.0,3.0,90.0,176.0,31.0,1.0
103133,-0.067453,-1.319103,2.322384,0.15773,-0.393434,0.076414,0.0,3.0,90.0,176.0,31.0,1.0
103134,-0.112851,-1.370943,2.26291,0.071029,-0.090905,0.11961199999999997,0.0,3.0,90.0,176.0,31.0,1.0
103135,-0.328195,-1.422469,2.039143,-0.001389,0.002374,0.06222,0.0,3.0,90.0,176.0,31.0,1.0
103136,-0.8198989999999999,-1.456955,1.542242,-0.052906,0.041461000000000005,-0.006137,0.0,3.0,90.0,176.0,31.0,1.0
103137,-1.503313,-1.448711,0.8555290000000001,-0.06474099999999999,0.18977,-0.097612,0.0,3.0,90.0,176.0,31.0,1.0
103138,-1.951239,-1.395724,0.415139,0.134858,0.286297,-0.242731,0.0,3.0,90.0,176.0,31.0,1.0
103139,-2.177366,-1.333451,0.217833,0.282902,0.273716,-0.432398,0.0,3.0,90.0,176.0,31.0,1.0
103140,-2.326557,-1.280219,0.121066,0.549791,0.148733,-0.747548,0.0,3.0,90.0,176.0,31.0,1.0
103141,-2.40485,-1.255791,0.088511,0.524748,-0.315343,-0.98293,0.0,3.0,90.0,176.0,31.0,1.0
103142,-2.461648,-1.246868,0.062048,0.445699,-0.609232,-1.002321,0.0,3.0,90.0,176.0,31.0,1.0
103143,-2.522512,-1.22949,0.026342,0.329729,-1.0677,0.001,0.0,3.0,90.0,176.0,31.0,1.0
103144,-2.541685,-1.221692,0.018872,0.207867,-1.192564,0.147123,0.0,3.0,90.0,176.0,31.0,1.0
103145,-2.554459,-1.209045,-0.002816,0.123412,-1.189887,0.174206,0.0,3.0,90.0,176.0,31.0,1.0
103146,-2.580578,-1.180771,-0.039154,-0.102549,1.196408,0.211035,0.0,3.0,90.0,176.0,31.0,1.0
103147,-2.602959,-1.1516620000000002,-0.041105,-0.23893000000000006,2.932979,-1.032171,0.0,3.0,90.0,176.0,31.0,1.0
103148,-2.699477,-1.137858,-0.052102,0.087128,0.416848,-0.739283,0.0,3.0,90.0,176.0,31.0,1.0
103149,-2.670805,-1.144641,-0.021241,0.333485,-0.460015,-0.044281,0.0,3.0,90.0,176.0,31.0,1.0
103150,-2.604179,-1.139996,0.006122,-0.095763,1.625487,-0.323537,0.0,3.0,90.0,176.0,31.0,1.0
103151,-2.626626,-1.116035,0.016534,-0.029469,0.993037,-1.095043,0.0,3.0,90.0,176.0,31.0,1.0
103152,-2.629544,-1.099151,0.057512,0.6377510000000001,0.146593,-0.549195,0.0,3.0,90.0,176.0,31.0,1.0
103153,-2.582542,-1.082018,0.103235,0.8454010000000001,0.057721,-0.079623,0.0,3.0,90.0,176.0,31.0,1.0
103154,-2.587755,-1.058634,0.128572,1.204257,0.053606,-0.185294,0.0,3.0,90.0,176.0,31.0,1.0
103155,-2.62683,-1.025095,0.141951,1.457329,0.378559,-0.863298,0.0,3.0,90.0,176.0,31.0,1.0
103156,-2.639816,-1.020946,0.136581,0.183232,0.078534,-0.980722,0.0,3.0,90.0,176.0,31.0,1.0
103157,-2.6461810000000003,-1.041813,0.129376,-0.21600300000000006,0.15476099999999998,-0.8673629999999999,0.0,3.0,90.0,176.0,31.0,1.0
103158,-2.6053900000000003,-1.065407,0.178015,-0.657153,0.185469,-1.319317,0.0,3.0,90.0,176.0,31.0,1.0
103159,-2.548308,-1.109692,0.275432,0.5170399999999999,0.5800850000000001,-0.7162930000000001,0.0,3.0,90.0,176.0,31.0,1.0
103160,-2.478585,-1.163814,0.384543,0.667492,0.44046,-0.374121,0.0,3.0,90.0,176.0,31.0,1.0
103161,-2.410082,-1.2312040000000002,0.494507,0.739444,0.610317,0.313677,0.0,3.0,90.0,176.0,31.0,1.0
103162,-2.321683,-1.308076,0.629646,0.701499,1.461864,0.399368,0.0,3.0,90.0,176.0,31.0,1.0
103163,-2.178212,-1.387686,0.8190109999999999,0.611406,1.7270450000000002,0.318603,0.0,3.0,90.0,176.0,31.0,1.0
103164,-2.009147,-1.448357,1.028867,0.41275,1.522913,0.168743,0.0,3.0,90.0,176.0,31.0,1.0
103165,-1.892073,-1.486152,1.150241,0.132946,0.860025,0.059578,0.0,3.0,90.0,176.0,31.0,1.0
103166,-1.628374,-1.526975,1.405789,-0.001565,0.769988,0.104775,0.0,3.0,90.0,176.0,31.0,1.0
103167,-0.017713,-1.543807,3.086901,0.060348,0.609999,0.551702,0.0,3.0,90.0,176.0,31.0,1.0
103168,0.34012,-1.492065,-2.744945,0.001016,0.214722,0.882692,0.0,3.0,90.0,176.0,31.0,1.0
103169,0.386103,-1.446828,-2.621427,0.01309,0.091399,0.787801,0.0,3.0,90.0,176.0,31.0,1.0
103170,0.463797,-1.416082,-2.463009,0.04896,-0.330036,0.514273,0.0,3.0,90.0,176.0,31.0,1.0
103171,0.481807,-1.396582,-2.351204,-0.115992,-0.74942,0.652986,0.0,3.0,90.0,176.0,31.0,1.0
103172,0.4553100000000001,-1.388179,-2.2814520000000003,-0.203683,-0.92638,0.706558,0.0,3.0,90.0,176.0,31.0,1.0
103173,0.413862,-1.389354,-2.226929,-0.31800500000000004,-1.08678,0.722935,0.0,3.0,90.0,176.0,31.0,1.0
103174,0.389966,-1.403607,-2.163142,-0.352829,-1.089969,0.647197,0.0,3.0,90.0,176.0,31.0,1.0
103175,0.38453,-1.431907,-2.094503,-0.41985,-1.037108,0.6348020000000001,0.0,3.0,90.0,176.0,31.0,1.0
103176,0.440405,-1.471126,-2.000442,-0.903854,-0.16933800000000002,-0.351218,0.0,3.0,90.0,176.0,31.0,1.0
103177,0.406653,-1.493631,-2.007149,-0.855878,1.2221229999999998,-2.150478,0.0,3.0,90.0,176.0,31.0,1.0
103178,0.206033,-1.465356,-2.1511,-0.572496,0.96791,-1.89534,0.0,3.0,90.0,176.0,31.0,1.0
103179,0.169797,-1.444081,-2.1316650000000004,-0.02249,0.008643000000000001,-0.483957,0.0,3.0,90.0,176.0,31.0,1.0
103180,0.125815,-1.407717,-2.126331,-0.020795,0.070397,-0.60902,0.0,3.0,90.0,176.0,31.0,1.0
103181,0.134256,-1.3639059999999998,-2.066119,-0.085917,0.006357,-1.365418,0.0,3.0,90.0,176.0,31.0,1.0
103182,0.202365,-1.372016,-1.967253,1.4153950000000002,-0.7701180000000001,3.569844,0.0,3.0,90.0,176.0,31.0,1.0
103183,0.324985,-1.374663,-1.944176,-0.101061,-0.16494,1.7498740000000002,0.0,3.0,90.0,176.0,31.0,1.0
103184,0.413744,-1.386644,-1.967465,-0.618388,0.522951,1.166192,0.0,3.0,90.0,176.0,31.0,1.0
103185,0.415324,-1.445597,-1.940838,-0.632742,1.131011,-0.250592,0.0,3.0,90.0,176.0,31.0,1.0
103186,0.455573,-1.442731,-1.862173,-0.013579,0.546458,0.706434,0.0,3.0,90.0,176.0,31.0,1.0
103187,0.362735,-1.431401,-1.974018,0.02225,0.08175199999999999,0.601474,0.0,3.0,90.0,176.0,31.0,1.0
103188,0.282974,-1.427191,-2.042408,0.222491,0.322412,0.669844,0.0,3.0,90.0,176.0,31.0,1.0
103189,0.255316,-1.435667,-2.036479,0.380678,0.530295,0.783194,0.0,3.0,90.0,176.0,31.0,1.0
103190,0.2694,-1.4592200000000002,-1.977601,0.407943,0.445809,0.760375,0.0,3.0,90.0,176.0,31.0,1.0
103191,0.388237,-1.488908,-1.817214,0.041563,-0.062079,0.33434200000000003,0.0,3.0,90.0,176.0,31.0,1.0
103192,0.99062,-1.5144030000000002,-1.18455,-0.072269,-0.105802,0.165407,0.0,3.0,90.0,176.0,31.0,1.0
103193,1.966829,-1.490927,-0.17611,-0.274981,-0.026155,-0.068673,0.0,3.0,90.0,176.0,31.0,1.0
103194,2.352442,-1.431751,0.25340100000000004,-0.642334,-0.052483,-0.583875,0.0,3.0,90.0,176.0,31.0,1.0
103195,2.44754,-1.40017,0.392861,-0.722198,-0.176396,-0.272248,0.0,3.0,90.0,176.0,31.0,1.0
103196,2.511858,-1.380427,0.4679390000000001,-0.355078,-0.22049,-0.196085,0.0,3.0,90.0,176.0,31.0,1.0
103197,2.629646,-1.358191,0.580345,-0.030897000000000008,-0.17002,-0.158572,0.0,3.0,90.0,176.0,31.0,1.0
103198,2.741704,-1.329827,0.6924100000000001,0.114093,-0.030159,-0.139289,0.0,3.0,90.0,176.0,31.0,1.0
103199,2.81834,-1.293177,0.771668,0.08015900000000001,0.041585,-0.276075,0.0,3.0,90.0,176.0,31.0,1.0
103200,2.875123,-1.256798,0.8183729999999999,-0.010187,-0.102916,-0.252033,0.0,3.0,90.0,176.0,31.0,1.0
103201,2.923019,-1.233007,0.846582,-0.047272,-0.08438899999999999,-0.169068,0.0,3.0,90.0,176.0,31.0,1.0
103202,2.961506,-1.215213,0.8807590000000001,-0.076526,0.185161,-0.14718,0.0,3.0,90.0,176.0,31.0,1.0
103203,2.982195,-1.200357,0.926706,-0.005013,0.321753,-0.256591,0.0,3.0,90.0,176.0,31.0,1.0
103204,2.970553,-1.182164,0.972538,0.12632100000000002,0.347353,-0.567351,0.0,3.0,90.0,176.0,31.0,1.0
103205,2.937883,-1.150864,1.015378,0.097046,0.478546,-1.634396,0.0,3.0,90.0,176.0,31.0,1.0
103206,2.944507,-1.152182,1.025017,-0.112321,0.284391,-0.770364,0.0,3.0,90.0,176.0,31.0,1.0
103207,3.001178,-1.170864,1.029735,0.010133,0.379984,-0.084425,0.0,3.0,90.0,176.0,31.0,1.0
103208,3.057585,-1.194466,1.059244,0.072406,0.610157,-0.07097300000000001,0.0,3.0,90.0,176.0,31.0,1.0
103209,3.082122,-1.227411,1.122362,0.366649,0.8400719999999999,-0.295202,0.0,3.0,90.0,176.0,31.0,1.0
103210,3.083942,-1.274625,1.195736,0.979615,0.732641,-0.942082,0.0,3.0,90.0,176.0,31.0,1.0
103211,3.076786,-1.341062,1.2463110000000002,1.0138200000000002,0.579267,-0.798701,0.0,3.0,90.0,176.0,31.0,1.0
103212,3.023531,-1.421946,1.247707,0.62028,0.160548,-0.077704,0.0,3.0,90.0,176.0,31.0,1.0
103213,2.7352,-1.505188,1.021763,0.519454,0.123947,0.28429,0.0,3.0,90.0,176.0,31.0,1.0
103214,0.969088,-1.52403,-0.678882,0.260201,0.394587,1.038512,0.0,3.0,90.0,176.0,31.0,1.0
103215,0.438663,-1.450907,-1.157038,-0.04235,0.8155279999999999,1.135109,0.0,3.0,90.0,176.0,31.0,1.0
103216,0.334307,-1.374761,-1.227731,-0.130031,0.962986,1.128715,0.0,3.0,90.0,176.0,31.0,1.0
103217,0.305152,-1.313998,-1.242408,-0.118277,0.802033,0.651195,0.0,3.0,90.0,176.0,31.0,1.0
103218,0.282903,-1.277072,-1.233417,0.193129,0.227627,0.241935,0.0,3.0,90.0,176.0,31.0,1.0
103219,0.247301,-1.262193,-1.198176,0.318356,0.171707,0.482215,0.0,3.0,90.0,176.0,31.0,1.0
103220,0.245182,-1.232552,-1.142109,0.439325,0.009771,0.76165,0.0,3.0,90.0,176.0,31.0,1.0
103221,0.28018000000000004,-1.184434,-1.078014,0.350376,0.115813,0.7898029999999999,0.0,3.0,90.0,176.0,31.0,1.0
103222,0.301825,-1.144444,-1.008691,0.1551,0.060299,0.878123,0.0,3.0,90.0,176.0,31.0,1.0
103223,0.291401,-1.108278,-0.946947,0.04509,0.032665,0.93167,0.0,3.0,90.0,176.0,31.0,1.0
103224,0.253029,-1.076677,-0.8953909999999999,-0.268258,-0.083619,1.036783,0.0,3.0,90.0,176.0,31.0,1.0
103225,0.186442,-1.052814,-0.857,-0.315242,-0.160355,1.106717,0.0,3.0,90.0,176.0,31.0,1.0
103226,0.116115,-1.036106,-0.825857,-0.366988,-0.246962,1.161226,0.0,3.0,90.0,176.0,31.0,1.0
103227,0.058266,-1.027722,-0.796375,-0.5201439999999999,-0.318282,1.038744,0.0,3.0,90.0,176.0,31.0,1.0
103228,0.006718000000000001,-1.02653,-0.771465,-0.5715319999999999,-0.462502,0.960169,0.0,3.0,90.0,176.0,31.0,1.0
103229,-0.030733,-1.037275,-0.751985,-0.6645939999999999,-0.5717909999999999,0.828572,0.0,3.0,90.0,176.0,31.0,1.0
103230,-0.049887,-1.06472,-0.7329829999999999,-0.6631600000000001,-0.428379,0.672767,0.0,3.0,90.0,176.0,31.0,1.0
103231,-0.061486,-1.1079,-0.718385,-0.678067,0.006634999999999999,0.196587,0.0,3.0,90.0,176.0,31.0,1.0
103232,-0.064359,-1.138707,-0.700661,-0.368576,0.8011659999999999,-0.480974,0.0,3.0,90.0,176.0,31.0,1.0
103233,-0.043474,-1.140375,-0.6723060000000001,-0.420923,0.592599,-1.260367,0.0,3.0,90.0,176.0,31.0,1.0
103234,-0.020293,-1.124474,-0.6406689999999999,0.11145,0.61952,-1.067655,0.0,3.0,90.0,176.0,31.0,1.0
103235,0.033986,-1.101198,-0.575651,0.5827979999999999,0.279362,-1.025037,0.0,3.0,90.0,176.0,31.0,1.0
103236,0.059032000000000015,-1.115397,-0.512532,1.0476299999999998,0.555253,-0.180676,0.0,3.0,90.0,176.0,31.0,1.0
103237,0.046905,-1.158452,-0.504347,0.192071,0.25822399999999995,2.087134,0.0,3.0,90.0,176.0,31.0,1.0
103238,0.097302,-1.139204,-0.5331670000000001,-0.395084,0.374627,1.399436,0.0,3.0,90.0,176.0,31.0,1.0
103239,0.091268,-1.102922,-0.584825,-1.36523,-0.072888,-1.243814,0.0,3.0,90.0,176.0,31.0,1.0
103240,-0.002777,-1.122942,-0.573575,-0.910571,-0.528362,0.8884799999999999,0.0,3.0,90.0,176.0,31.0,1.0
103241,-0.038889,-1.149922,-0.577542,-0.386368,-0.303846,1.275181,0.0,3.0,90.0,176.0,31.0,1.0
103242,-0.030622000000000007,-1.176372,-0.634483,-0.282317,-0.16687000000000002,1.023107,0.0,3.0,90.0,176.0,31.0,1.0
103243,-0.016671000000000002,-1.215402,-0.671399,-0.070768,0.174887,0.8220940000000001,0.0,3.0,90.0,176.0,31.0,1.0
103244,-0.021983000000000003,-1.262476,-0.6783680000000001,0.074053,0.265448,0.7733220000000001,0.0,3.0,90.0,176.0,31.0,1.0
103245,-0.077203,-1.301993,-0.7112890000000001,0.35265,0.4280310000000001,0.780467,0.0,3.0,90.0,176.0,31.0,1.0
103246,-0.17558900000000002,-1.325778,-0.773163,0.600995,0.300009,0.388737,0.0,3.0,90.0,176.0,31.0,1.0
103247,-0.265308,-1.342667,-0.829736,0.658032,0.177352,0.035935,0.0,3.0,90.0,176.0,31.0,1.0
103248,-0.30495,-1.366479,-0.868758,0.22030300000000005,-0.001966,-0.123707,0.0,3.0,90.0,176.0,31.0,1.0
103249,-0.284382,-1.392064,-0.829232,-0.008938,-0.045654,0.270506,0.0,3.0,90.0,176.0,31.0,1.0
103250,-0.2083,-1.41175,-0.733587,-0.097475,-0.083372,0.268392,0.0,3.0,90.0,176.0,31.0,1.0
103251,-0.082656,-1.433676,-0.6171300000000001,-0.234232,-0.223158,0.140525,0.0,3.0,90.0,176.0,31.0,1.0
103252,0.068142,-1.452058,-0.5050180000000001,-0.490713,0.023292,-0.6552180000000001,0.0,3.0,90.0,176.0,31.0,1.0
103253,0.199443,-1.444765,-0.420083,-0.239829,0.129697,-0.942428,0.0,3.0,90.0,176.0,31.0,1.0
103254,0.237004,-1.409153,-0.421747,0.183917,0.253423,-1.1180709999999998,0.0,3.0,90.0,176.0,31.0,1.0
103255,0.252129,-1.371756,-0.4480020000000001,0.293897,-0.27997,-0.35149,0.0,3.0,90.0,176.0,31.0,1.0
103256,0.293254,-1.340407,-0.441192,0.02558,-0.415304,0.376253,0.0,3.0,90.0,176.0,31.0,1.0
103257,0.310627,-1.310814,-0.449158,-0.221816,-0.683054,0.754141,0.0,3.0,90.0,176.0,31.0,1.0
103258,0.312513,-1.289524,-0.470484,-0.227746,-0.643442,0.639727,0.0,3.0,90.0,176.0,31.0,1.0
103259,0.284896,-1.287595,-0.501637,-0.304209,-0.399451,0.409386,0.0,3.0,90.0,176.0,31.0,1.0
103260,0.240595,-1.297294,-0.5191359999999999,-0.06724,0.246627,-1.016974,0.0,3.0,90.0,176.0,31.0,1.0
103261,0.22692,-1.290678,-0.529787,-0.059251,0.161643,0.204332,0.0,3.0,90.0,176.0,31.0,1.0
103262,0.297062,-1.283258,-0.518007,0.038271,0.005044,0.259726,0.0,3.0,90.0,176.0,31.0,1.0
103263,0.362167,-1.263786,-0.499038,0.37038,0.252279,-0.655977,0.0,3.0,90.0,176.0,31.0,1.0
103264,0.398033,-1.223469,-0.5143399999999999,0.429059,0.339606,-0.406298,0.0,3.0,90.0,176.0,31.0,1.0
103265,0.410791,-1.169343,-0.5249590000000001,0.437284,0.510994,-0.150505,0.0,3.0,90.0,176.0,31.0,1.0
103266,0.358674,-1.086134,-0.553848,0.34567,1.218042,-0.101787,0.0,3.0,90.0,176.0,31.0,1.0
103267,0.289606,-0.999693,-0.562373,0.237767,1.185306,0.5500109999999999,0.0,3.0,90.0,176.0,31.0,1.0
103268,0.24709,-0.924951,-0.5485220000000001,-0.047369,0.76986,1.6102,0.0,3.0,90.0,176.0,31.0,1.0
103269,0.233304,-0.867667,-0.519075,-0.347885,0.046931,1.013989,0.0,3.0,90.0,176.0,31.0,1.0
103270,0.268616,-0.828047,-0.476649,-0.8344600000000001,0.345969,0.169302,0.0,3.0,90.0,176.0,31.0,1.0
103271,0.29818,-0.805118,-0.438387,-0.74179,0.741963,0.257413,0.0,3.0,90.0,176.0,31.0,1.0
103272,0.307441,-0.79323,-0.413447,-0.583259,0.223763,0.606958,0.0,3.0,90.0,176.0,31.0,1.0
103273,0.308186,-0.796642,-0.401947,-0.614298,-0.191301,0.692934,0.0,3.0,90.0,176.0,31.0,1.0
103274,0.311519,-0.821901,-0.399619,-0.562742,-0.28458,0.7231920000000001,0.0,3.0,90.0,176.0,31.0,1.0
103275,0.322829,-0.865901,-0.399006,-0.286312,-0.266257,0.784553,0.0,3.0,90.0,176.0,31.0,1.0
103276,0.33373800000000003,-0.922113,-0.404823,-0.358194,-0.040593,0.718306,0.0,3.0,90.0,176.0,31.0,1.0
103277,0.335702,-0.98709,-0.434251,-0.414358,-0.018721,0.567592,0.0,3.0,90.0,176.0,31.0,1.0
103278,0.315404,-1.058502,-0.480197,-0.331357,0.419683,0.116047,0.0,3.0,90.0,176.0,31.0,1.0
103279,0.264365,-1.130557,-0.514031,-0.139076,0.29228000000000004,0.154902,0.0,3.0,90.0,176.0,31.0,1.0
103280,0.196494,-1.19688,-0.535271,0.113551,0.192723,0.16408599999999998,0.0,3.0,90.0,176.0,31.0,1.0
103281,0.121668,-1.246744,-0.5647399999999999,0.29135900000000003,0.178695,-0.349698,0.0,3.0,90.0,176.0,31.0,1.0
103282,0.108265,-1.2770860000000002,-0.550405,0.404602,-0.041283,-0.278413,0.0,3.0,90.0,176.0,31.0,1.0
103283,0.175636,-1.294202,-0.485343,0.274094,-0.434266,-0.236326,0.0,3.0,90.0,176.0,31.0,1.0
103284,0.263856,-1.307651,-0.404679,-0.0064340000000000005,-0.901383,-0.041855,0.0,3.0,90.0,176.0,31.0,1.0
103285,0.32602600000000004,-1.316551,-0.354437,-0.299238,-1.216404,0.213544,0.0,3.0,90.0,176.0,31.0,1.0
103286,0.359093,-1.323264,-0.339994,-0.366828,-1.125465,-0.152837,0.0,3.0,90.0,176.0,31.0,1.0
103287,0.330662,-1.360142,-0.331054,-0.387293,0.454692,0.071865,0.0,3.0,90.0,176.0,31.0,1.0
103288,0.110778,-1.383262,-0.514748,-0.26455,1.992234,1.095622,0.0,3.0,90.0,176.0,31.0,1.0
103289,0.009132,-1.370744,-0.590019,0.533189,0.705201,-0.387128,0.0,3.0,90.0,176.0,31.0,1.0
103290,0.06203400000000001,-1.377941,-0.532352,0.303443,2.32698,-1.334001,0.0,3.0,90.0,176.0,31.0,1.0
103291,0.223329,-1.371957,-0.423578,0.111546,2.813725,-1.467234,0.0,3.0,90.0,176.0,31.0,1.0
103292,0.38307,-1.337325,-0.34927600000000003,-0.5793550000000001,-0.335509,1.083846,0.0,3.0,90.0,176.0,31.0,1.0
103293,0.445216,-1.309797,-0.321137,-0.259009,-0.805183,0.472148,0.0,3.0,90.0,176.0,31.0,1.0
103294,0.4211180000000001,-1.283864,-0.346297,-0.350256,-0.369853,0.42421,0.0,3.0,90.0,176.0,31.0,1.0
103295,0.334956,-1.274294,-0.416094,-0.5268579999999999,-0.287221,-0.12878499999999998,0.0,3.0,90.0,176.0,31.0,1.0
103296,0.226587,-1.28178,-0.475067,0.045137,0.31711,-0.931535,0.0,3.0,90.0,176.0,31.0,1.0
103297,0.237329,-1.267375,-0.5056149999999999,0.420845,0.1459,0.090798,0.0,3.0,90.0,176.0,31.0,1.0
103298,0.312121,-1.245068,-0.492169,0.498267,0.193756,-0.476298,0.0,3.0,90.0,176.0,31.0,1.0
103299,0.358881,-1.197551,-0.496686,-0.228333,0.114093,-0.758273,0.0,3.0,90.0,176.0,31.0,1.0
103300,0.335975,-1.134158,-0.527449,-0.41559,0.280131,0.093167,0.0,3.0,90.0,176.0,31.0,1.0
103301,0.302598,-1.064474,-0.557475,-0.090105,0.377312,0.336825,0.0,3.0,90.0,176.0,31.0,1.0
103302,0.251391,-0.995182,-0.5777720000000001,0.6733399999999999,0.323617,1.219983,0.0,3.0,90.0,176.0,31.0,1.0
103303,0.2113,-0.934552,-0.575188,0.681276,0.22122600000000006,1.30267,0.0,3.0,90.0,176.0,31.0,1.0
103304,0.202624,-0.887101,-0.554678,-0.142939,0.210336,0.717612,0.0,3.0,90.0,176.0,31.0,1.0
103305,0.236675,-0.857209,-0.528646,-0.816711,0.794686,0.320427,0.0,3.0,90.0,176.0,31.0,1.0
103306,0.275036,-0.8356600000000001,-0.497409,-1.036104,1.0224209999999998,0.304596,0.0,3.0,90.0,176.0,31.0,1.0
103307,0.311802,-0.8265110000000001,-0.46802,-0.98216,0.02961,0.43265,0.0,3.0,90.0,176.0,31.0,1.0
103308,0.359379,-0.83901,-0.447021,-0.677962,-0.300775,0.586263,0.0,3.0,90.0,176.0,31.0,1.0
103309,0.398457,-0.873733,-0.439014,-0.381832,-0.41056,0.649413,0.0,3.0,90.0,176.0,31.0,1.0
103310,0.421391,-0.927806,-0.438551,-0.236475,-0.234083,0.610001,0.0,3.0,90.0,176.0,31.0,1.0
103311,0.42762,-0.994407,-0.461588,-0.374176,0.054356,0.561243,0.0,3.0,90.0,176.0,31.0,1.0
103312,0.413328,-1.070366,-0.515559,-0.430584,0.359639,0.32971100000000003,0.0,3.0,90.0,176.0,31.0,1.0
103313,0.370547,-1.134592,-0.566276,-0.053462,0.289134,0.188907,0.0,3.0,90.0,176.0,31.0,1.0
103314,0.30687600000000004,-1.199698,-0.606896,0.512054,0.037171,0.133208,0.0,3.0,90.0,176.0,31.0,1.0
103315,0.209412,-1.2734379999999998,-0.646249,0.6046060000000001,-0.003721,0.012333,0.0,3.0,90.0,176.0,31.0,1.0
103316,0.14236500000000002,-1.344017,-0.6381720000000001,0.621041,0.138336,-0.243536,0.0,3.0,90.0,176.0,31.0,1.0
103317,0.223739,-1.37256,-0.548243,0.781215,-0.135933,-1.119549,0.0,3.0,90.0,176.0,31.0,1.0
103318,0.365558,-1.375611,-0.4000260000000001,0.8242950000000001,-0.610162,-0.693893,0.0,3.0,90.0,176.0,31.0,1.0
103319,0.477999,-1.36273,-0.277538,0.512717,-0.874901,-0.235995,0.0,3.0,90.0,176.0,31.0,1.0
103320,0.502213,-1.333668,-0.255395,-0.562348,-0.8644569999999999,0.982055,0.0,3.0,90.0,176.0,31.0,1.0
103321,0.507726,-1.319605,-0.268536,-0.943042,0.8936719999999999,0.182334,0.0,3.0,90.0,176.0,31.0,1.0
103322,0.369413,-1.350296,-0.348035,-1.205337,1.937847,-0.252327,0.0,3.0,90.0,176.0,31.0,1.0
103323,0.195976,-1.348924,-0.404695,-0.042678,0.161445,-0.203598,0.0,3.0,90.0,176.0,31.0,1.0
103324,0.128664,-1.31872,-0.434065,0.137037,2.586581,-1.219737,0.0,3.0,90.0,176.0,31.0,1.0
103325,0.154912,-1.303767,-0.468987,-0.32521,0.974635,0.947823,0.0,3.0,90.0,176.0,31.0,1.0
103326,0.225873,-1.28674,-0.444624,-0.031907,-0.4824479999999999,0.976638,0.0,3.0,90.0,176.0,31.0,1.0
103327,0.230007,-1.268469,-0.445932,0.102777,-0.42837,0.674499,0.0,3.0,90.0,176.0,31.0,1.0
103328,0.184007,-1.254145,-0.486894,0.10941,-0.190319,0.634285,0.0,3.0,90.0,176.0,31.0,1.0
103329,0.125047,-1.263193,-0.5324300000000001,0.049855,0.500063,-0.554768,0.0,3.0,90.0,176.0,31.0,1.0
103330,0.197345,-1.276245,-0.521161,0.4394520000000001,0.29174,-0.675455,0.0,3.0,90.0,176.0,31.0,1.0
103331,0.31758600000000003,-1.262075,-0.475891,0.279193,0.151159,-0.734533,0.0,3.0,90.0,176.0,31.0,1.0
103332,0.369968,-1.223006,-0.458344,-0.267945,0.140972,-0.606889,0.0,3.0,90.0,176.0,31.0,1.0
103333,0.355919,-1.159483,-0.478165,-0.552459,0.336745,-0.474132,0.0,3.0,90.0,176.0,31.0,1.0
103334,0.346868,-1.086299,-0.5012439999999999,-0.729762,0.503579,0.14259000000000002,0.0,3.0,90.0,176.0,31.0,1.0
103335,0.340048,-1.017782,-0.5124340000000001,-0.16829000000000002,0.267311,0.8751610000000001,0.0,3.0,90.0,176.0,31.0,1.0
103336,0.301219,-0.947984,-0.514617,0.387348,-0.005753,1.4784700000000002,0.0,3.0,90.0,176.0,31.0,1.0
103337,0.294872,-0.8936,-0.500452,0.339961,-0.092596,0.956815,0.0,3.0,90.0,176.0,31.0,1.0
103338,0.320997,-0.8617379999999999,-0.486275,-0.02471,0.30209,0.116514,0.0,3.0,90.0,176.0,31.0,1.0
103339,0.31411300000000003,-0.8409190000000001,-0.486491,-0.52822,0.474654,0.668879,0.0,3.0,90.0,176.0,31.0,1.0
103340,0.307023,-0.8320000000000001,-0.485926,-0.66105,0.481439,0.8752120000000001,0.0,3.0,90.0,176.0,31.0,1.0
103341,0.307396,-0.8414520000000001,-0.490616,-0.597596,-0.134055,0.7195060000000001,0.0,3.0,90.0,176.0,31.0,1.0
103342,0.324741,-0.873209,-0.497748,-0.544204,-0.336646,0.70419,0.0,3.0,90.0,176.0,31.0,1.0
103343,0.356708,-0.926532,-0.505065,-0.404688,-0.252881,0.646629,0.0,3.0,90.0,176.0,31.0,1.0
103344,0.3819,-0.991737,-0.518936,-0.29035500000000003,0.066358,0.4022,0.0,3.0,90.0,176.0,31.0,1.0
103345,0.383612,-1.062592,-0.532976,-0.076988,0.354789,0.102051,0.0,3.0,90.0,176.0,31.0,1.0
103346,0.355628,-1.13705,-0.545479,-0.045908,0.275906,0.020782,0.0,3.0,90.0,176.0,31.0,1.0
103347,0.309221,-1.207948,-0.5598569999999999,0.008263,0.193833,-0.109465,0.0,3.0,90.0,176.0,31.0,1.0
103348,0.23765100000000006,-1.26891,-0.577746,0.089722,0.161434,-0.237938,0.0,3.0,90.0,176.0,31.0,1.0
103349,0.15700899999999998,-1.311979,-0.60023,0.366249,0.012768,-0.614755,0.0,3.0,90.0,176.0,31.0,1.0
103350,0.146754,-1.325513,-0.58919,0.576647,-0.423072,-0.531087,0.0,3.0,90.0,176.0,31.0,1.0
103351,0.154025,-1.334381,-0.5687840000000001,0.591252,-0.609452,-0.342475,0.0,3.0,90.0,176.0,31.0,1.0
103352,0.143707,-1.339512,-0.562761,0.112835,-1.120696,0.7219270000000001,0.0,3.0,90.0,176.0,31.0,1.0
103353,0.128374,-1.321749,-0.5610890000000001,-0.059857000000000014,-0.348741,0.82901,0.0,3.0,90.0,176.0,31.0,1.0
103354,0.123781,-1.3098459999999998,-0.558553,-0.461722,1.3710440000000002,0.151619,0.0,3.0,90.0,176.0,31.0,1.0
103355,0.063304,-1.344989,-0.5674170000000001,-0.444445,1.733974,-0.154572,0.0,3.0,90.0,176.0,31.0,1.0
103356,-0.034934,-1.353226,-0.584438,-0.370437,0.685471,-1.19931,0.0,3.0,90.0,176.0,31.0,1.0
103357,-0.058686,-1.304683,-0.62383,-0.619663,0.982923,-0.447283,0.0,3.0,90.0,176.0,31.0,1.0
103358,-0.010255,-1.288077,-0.627157,-0.35375300000000004,0.002392,1.350986,0.0,3.0,90.0,176.0,31.0,1.0
103359,0.070115,-1.26375,-0.607014,0.11113599999999997,-0.514555,0.5945600000000001,0.0,3.0,90.0,176.0,31.0,1.0
103360,0.100828,-1.241328,-0.608105,0.284497,-0.242464,0.034391000000000005,0.0,3.0,90.0,176.0,31.0,1.0
103361,0.073512,-1.254669,-0.624885,0.5044810000000001,0.458413,-0.465984,0.0,3.0,90.0,176.0,31.0,1.0
103362,0.137033,-1.244502,-0.603598,0.6118399999999999,0.420103,-0.184652,0.0,3.0,90.0,176.0,31.0,1.0
103363,0.21470100000000006,-1.216309,-0.563768,0.336389,0.317241,-0.6104430000000001,0.0,3.0,90.0,176.0,31.0,1.0
103364,0.233383,-1.158148,-0.5403680000000001,-0.263857,0.5198659999999999,-0.321302,0.0,3.0,90.0,176.0,31.0,1.0
103365,0.234077,-1.0859379999999998,-0.525217,-0.228786,0.599146,0.415156,0.0,3.0,90.0,176.0,31.0,1.0
103366,0.233426,-1.017515,-0.504883,-0.13226,0.19279,0.879907,0.0,3.0,90.0,176.0,31.0,1.0
103367,0.232699,-0.973022,-0.471553,-0.155129,-0.082496,1.454383,0.0,3.0,90.0,176.0,31.0,1.0
103368,0.24125,-0.947597,-0.441266,-0.139409,-0.008137,0.8646870000000001,0.0,3.0,90.0,176.0,31.0,1.0
103369,0.236913,-0.92598,-0.427787,-0.205383,0.470641,0.56787,0.0,3.0,90.0,176.0,31.0,1.0
103370,0.21541,-0.909284,-0.422774,-0.259419,0.529692,0.866604,0.0,3.0,90.0,176.0,31.0,1.0
103371,0.210645,-0.911064,-0.412198,-0.351266,0.292378,0.797275,0.0,3.0,90.0,176.0,31.0,1.0
103372,0.211392,-0.934724,-0.402667,-0.531944,-0.122032,0.627321,0.0,3.0,90.0,176.0,31.0,1.0
103373,0.219568,-0.979637,-0.398539,-0.506139,-0.234775,0.581337,0.0,3.0,90.0,176.0,31.0,1.0
103374,0.236003,-1.038414,-0.404332,-0.35211,-0.219266,0.48524,0.0,3.0,90.0,176.0,31.0,1.0
103375,0.226174,-1.09816,-0.426069,-0.15633,-0.053305,0.308287,0.0,3.0,90.0,176.0,31.0,1.0
103376,0.175858,-1.1578540000000002,-0.451396,-0.036135,0.025371,0.119684,0.0,3.0,90.0,176.0,31.0,1.0
103377,0.081867,-1.225697,-0.480922,0.112901,0.035414,-0.002885,0.0,3.0,90.0,176.0,31.0,1.0
103378,-0.069999,-1.287038,-0.529894,0.484042,-0.222766,-0.811377,0.0,3.0,90.0,176.0,31.0,1.0
103379,-0.15566,-1.299728,-0.544268,0.54279,-0.2948,-0.802864,0.0,3.0,90.0,176.0,31.0,1.0
