,attitude.roll,attitude.pitch,attitude.yaw,userAcceleration.x,userAcceleration.y,userAcceleration.z,act,id,weight,height,age,gender
135494,-0.817346,-0.517583,1.3941,-0.265384,-0.101883,0.068284,0.0,4.0,48.0,164.0,23.0,0.0
135495,-0.8194040000000001,-0.537507,1.422089,-0.193595,0.014921,-0.0555,0.0,4.0,48.0,164.0,23.0,0.0
135496,-0.812347,-0.560512,1.449941,-0.186444,0.0009880000000000002,-0.087769,0.0,4.0,48.0,164.0,23.0,0.0
135497,-0.793794,-0.58797,1.478233,-0.27984499999999995,-0.058503,-0.143546,0.0,4.0,48.0,164.0,23.0,0.0
135498,-0.7849119999999999,-0.6094069999999999,1.493603,-0.404337,-0.322046,0.164113,0.0,4.0,48.0,164.0,23.0,0.0
135499,-0.791188,-0.6215930000000001,1.491053,-0.319148,-0.077432,0.163896,0.0,4.0,48.0,164.0,23.0,0.0
135500,-0.804158,-0.627594,1.48731,-0.038312,0.134404,-0.087266,0.0,4.0,48.0,164.0,23.0,0.0
135501,-0.827614,-0.629199,1.490528,-0.025142,0.011463,0.063779,0.0,4.0,48.0,164.0,23.0,0.0
135502,-0.847342,-0.633548,1.505355,-0.026019,0.014819,0.081663,0.0,4.0,48.0,164.0,23.0,0.0
135503,-0.858906,-0.6429600000000001,1.52616,-0.002468,0.07568,0.017756,0.0,4.0,48.0,164.0,23.0,0.0
135504,-0.8700180000000001,-0.646345,1.550875,-0.128576,0.131874,0.025137,0.0,4.0,48.0,164.0,23.0,0.0
135505,-0.885023,-0.6390640000000001,1.585195,-0.189993,0.14408,0.109217,0.0,4.0,48.0,164.0,23.0,0.0
135506,-0.899099,-0.631794,1.62239,-0.209247,0.10951,0.138463,0.0,4.0,48.0,164.0,23.0,0.0
135507,-0.907949,-0.62395,1.656273,-0.234139,0.082624,-0.007988,0.0,4.0,48.0,164.0,23.0,0.0
135508,-0.906119,-0.604485,1.692812,-0.286618,-0.00448,-0.509832,0.0,4.0,48.0,164.0,23.0,0.0
135509,-0.880022,-0.555557,1.7475580000000002,-0.043484,-0.03439,-0.240885,0.0,4.0,48.0,164.0,23.0,0.0
135510,-0.8699620000000001,-0.50161,1.787809,0.33468200000000004,-0.36449,0.597136,0.0,4.0,48.0,164.0,23.0,0.0
135511,-0.89192,-0.484569,1.798339,0.325625,-0.374442,0.255213,0.0,4.0,48.0,164.0,23.0,0.0
135512,-0.916022,-0.5001180000000001,1.807832,0.290749,-0.30503,-0.005431,0.0,4.0,48.0,164.0,23.0,0.0
135513,-0.958493,-0.5398470000000001,1.809803,0.131619,-0.231091,0.089649,0.0,4.0,48.0,164.0,23.0,0.0
135514,-0.998648,-0.597645,1.801416,-0.005618,-0.14208900000000002,-0.096817,0.0,4.0,48.0,164.0,23.0,0.0
135515,-1.023635,-0.6559649999999999,1.7881919999999998,-0.5015229999999999,0.111817,-0.348623,0.0,4.0,48.0,164.0,23.0,0.0
135516,-1.010246,-0.683866,1.792325,-0.24074,-0.38686,-0.432687,0.0,4.0,48.0,164.0,23.0,0.0
135517,-0.994534,-0.695242,1.8091580000000005,0.338524,0.549355,0.454935,0.0,4.0,48.0,164.0,23.0,0.0
135518,-1.014111,-0.727769,1.7976990000000002,0.235344,0.7611859999999999,0.136427,0.0,4.0,48.0,164.0,23.0,0.0
135519,-1.062466,-0.774065,1.755191,0.025549,0.332721,-0.114165,0.0,4.0,48.0,164.0,23.0,0.0
135520,-1.09669,-0.80982,1.7404959999999998,-0.088651,0.24355,0.205285,0.0,4.0,48.0,164.0,23.0,0.0
135521,-1.111096,-0.838189,1.730332,-0.044244,0.014776,0.422513,0.0,4.0,48.0,164.0,23.0,0.0
135522,-1.112439,-0.860765,1.72774,0.103488,0.028341,0.288489,0.0,4.0,48.0,164.0,23.0,0.0
135523,-1.117475,-0.875725,1.729369,0.115787,0.063306,0.005471,0.0,4.0,48.0,164.0,23.0,0.0
135524,-1.12824,-0.8851549999999999,1.734316,-0.075725,-0.006572,-0.044155,0.0,4.0,48.0,164.0,23.0,0.0
135525,-1.135276,-0.8928510000000001,1.7489419999999998,-0.046443,0.11402,-0.13818699999999998,0.0,4.0,48.0,164.0,23.0,0.0
135526,-1.136701,-0.901732,1.769019,-0.072017,-0.039102,0.093739,0.0,4.0,48.0,164.0,23.0,0.0
135527,-1.126288,-0.910143,1.787362,-0.021063,-0.100474,0.106748,0.0,4.0,48.0,164.0,23.0,0.0
135528,-1.1092799999999998,-0.916009,1.802368,0.03285,-0.1188,-0.051355999999999985,0.0,4.0,48.0,164.0,23.0,0.0
135529,-1.09398,-0.923099,1.812941,0.103522,0.001399,-0.027293,0.0,4.0,48.0,164.0,23.0,0.0
135530,-1.076488,-0.937414,1.8299490000000005,0.033913,-0.012375,0.012729,0.0,4.0,48.0,164.0,23.0,0.0
135531,-1.055101,-0.949961,1.847912,-0.08493200000000001,-0.024239,0.08758300000000001,0.0,4.0,48.0,164.0,23.0,0.0
135532,-1.02128,-0.954708,1.868077,0.140626,0.049806,0.031619,0.0,4.0,48.0,164.0,23.0,0.0
135533,-0.983821,-0.960754,1.890616,0.188353,0.054247,-0.019268,0.0,4.0,48.0,164.0,23.0,0.0
135534,-0.94786,-0.971092,1.919631,0.419196,-0.217317,-0.255896,0.0,4.0,48.0,164.0,23.0,0.0
135535,-0.906742,-0.979555,1.9675080000000005,-0.457178,-0.215854,0.235325,0.0,4.0,48.0,164.0,23.0,0.0
135536,-0.887976,-0.980049,1.977086,-0.236404,-0.088749,0.168275,0.0,4.0,48.0,164.0,23.0,0.0
135537,-0.8700450000000001,-0.982199,1.990372,-0.169845,-0.149667,-0.1079,0.0,4.0,48.0,164.0,23.0,0.0
135538,-0.8518700000000001,-0.992909,2.014276,-0.174802,-0.192141,-0.144831,0.0,4.0,48.0,164.0,23.0,0.0
135539,-0.8329770000000001,-1.008695,2.039692,-0.109917,-0.410789,0.023502,0.0,4.0,48.0,164.0,23.0,0.0
135540,-0.827527,-1.027516,2.048786,-0.10774,-0.183563,-0.07188,0.0,4.0,48.0,164.0,23.0,0.0
135541,-0.8514809999999999,-1.04325,2.02277,-0.021653,-0.047074,-0.127137,0.0,4.0,48.0,164.0,23.0,0.0
135542,-0.90134,-1.060641,1.966605,0.181569,-0.259525,-0.07483200000000001,0.0,4.0,48.0,164.0,23.0,0.0
135543,-0.954618,-1.085116,1.914328,-0.010145,0.428707,0.093611,0.0,4.0,48.0,164.0,23.0,0.0
135544,-1.004849,-1.107643,1.860062,0.043973000000000005,0.67362,0.428296,0.0,4.0,48.0,164.0,23.0,0.0
135545,-1.036072,-1.12106,1.813661,0.057019000000000014,0.461865,0.432655,0.0,4.0,48.0,164.0,23.0,0.0
135546,-1.038212,-1.118926,1.804926,0.009739,0.156566,0.137907,0.0,4.0,48.0,164.0,23.0,0.0
135547,-1.021059,-1.108873,1.815583,0.067375,-0.10615,-0.117486,0.0,4.0,48.0,164.0,23.0,0.0
135548,-1.005231,-1.0988129999999998,1.836997,-0.139222,-0.611402,-0.268002,0.0,4.0,48.0,164.0,23.0,0.0
135549,-0.992086,-1.104194,1.861918,0.055765,0.009288,-0.016503,0.0,4.0,48.0,164.0,23.0,0.0
135550,-0.965705,-1.108587,1.901069,0.053512,0.001552,0.021323,0.0,4.0,48.0,164.0,23.0,0.0
135551,-0.954022,-1.105567,1.920604,-0.090416,-0.015194,-0.039741000000000005,0.0,4.0,48.0,164.0,23.0,0.0
135552,-0.952539,-1.104612,1.926494,-0.056063,0.043294,0.070076,0.0,4.0,48.0,164.0,23.0,0.0
135553,-0.947748,-1.104789,1.93654,-0.009348,0.105425,-0.020275,0.0,4.0,48.0,164.0,23.0,0.0
135554,-0.938732,-1.11015,1.953561,0.021285,0.093081,-0.051934,0.0,4.0,48.0,164.0,23.0,0.0
135555,-0.93495,-1.117981,1.9603,0.217179,-0.162189,0.099437,0.0,4.0,48.0,164.0,23.0,0.0
135556,-0.943967,-1.116183,1.949972,-0.045037,-0.076974,0.019793,0.0,4.0,48.0,164.0,23.0,0.0
135557,-0.947144,-1.1132799999999998,1.947104,-0.028083,-0.050869,-0.049702,0.0,4.0,48.0,164.0,23.0,0.0
135558,-0.948501,-1.115339,1.942915,0.015367,0.011898,0.049106,0.0,4.0,48.0,164.0,23.0,0.0
135559,-0.951524,-1.11889,1.938227,0.04534,-0.032734,0.125472,0.0,4.0,48.0,164.0,23.0,0.0
135560,-0.951826,-1.11691,1.939336,0.009345,-0.040931,0.023416,0.0,4.0,48.0,164.0,23.0,0.0
135561,-0.951812,-1.113595,1.938923,0.163973,-0.018599,0.06680499999999999,0.0,4.0,48.0,164.0,23.0,0.0
135562,-0.9584,-1.105808,1.935321,-0.204526,-0.505429,-0.012219,0.0,4.0,48.0,164.0,23.0,0.0
135563,-0.95253,-1.1082530000000002,1.958031,-0.169863,-0.25055700000000003,-0.025482,0.0,4.0,48.0,164.0,23.0,0.0
135564,-0.923156,-1.116846,2.008832,-0.022263,-0.119379,-0.033708,0.0,4.0,48.0,164.0,23.0,0.0
135565,-0.88794,-1.133495,2.061243,-0.024589,-0.06591699999999999,-0.02196,0.0,4.0,48.0,164.0,23.0,0.0
135566,-0.855399,-1.155865,2.102511,0.015330000000000003,0.129076,0.079277,0.0,4.0,48.0,164.0,23.0,0.0
135567,-0.81953,-1.181451,2.139014,0.007884,0.16229000000000002,0.117633,0.0,4.0,48.0,164.0,23.0,0.0
135568,-0.766763,-1.203186,2.1958290000000003,0.090478,-0.198448,-0.001202,0.0,4.0,48.0,164.0,23.0,0.0
135569,-0.67313,-1.218538,2.307215,0.098542,-0.247938,0.117408,0.0,4.0,48.0,164.0,23.0,0.0
135570,-0.584766,-1.221948,2.414957,0.239596,-0.274575,-0.175973,0.0,4.0,48.0,164.0,23.0,0.0
135571,-0.57404,-1.232838,2.430923,0.046816,0.13128900000000002,-0.2246,0.0,4.0,48.0,164.0,23.0,0.0
135572,-0.619627,-1.256439,2.378023,-0.256127,0.8339780000000001,0.4171470000000001,0.0,4.0,48.0,164.0,23.0,0.0
135573,-0.605955,-1.261169,2.38814,-0.054492999999999986,0.431266,-0.077989,0.0,4.0,48.0,164.0,23.0,0.0
135574,-0.5898770000000001,-1.264518,2.404798,-0.006057,0.176878,-0.009616,0.0,4.0,48.0,164.0,23.0,0.0
135575,-0.576874,-1.267341,2.422772,-0.039987,-0.085383,-0.000283,0.0,4.0,48.0,164.0,23.0,0.0
135576,-0.548277,-1.272717,2.452272,0.07965499999999999,-0.333664,0.104018,0.0,4.0,48.0,164.0,23.0,0.0
135577,-0.518762,-1.275917,2.482532,0.126141,-0.389256,-0.030142,0.0,4.0,48.0,164.0,23.0,0.0
135578,-0.510624,-1.280174,2.490757,0.055058,-0.182416,0.001507,0.0,4.0,48.0,164.0,23.0,0.0
135579,-0.494571,-1.285485,2.506772,0.07902100000000001,-0.197001,0.028676,0.0,4.0,48.0,164.0,23.0,0.0
135580,-0.465542,-1.290923,2.535945,0.015994,-0.091187,-0.085103,0.0,4.0,48.0,164.0,23.0,0.0
135581,-0.438205,-1.302015,2.563896,-0.033339,-0.020431,0.009234,0.0,4.0,48.0,164.0,23.0,0.0
135582,-0.395544,-1.317831,2.604452,-0.021844,0.060466,0.07709500000000001,0.0,4.0,48.0,164.0,23.0,0.0
135583,-0.32471700000000003,-1.335369,2.676346,-0.179707,0.970807,-0.008594,0.0,4.0,48.0,164.0,23.0,0.0
135584,-0.240832,-1.34741,2.755388,0.010505,0.305136,0.025987,0.0,4.0,48.0,164.0,23.0,0.0
135585,-0.226633,-1.35093,2.77197,0.00469,0.076014,0.020882,0.0,4.0,48.0,164.0,23.0,0.0
135586,-0.237431,-1.352581,2.765805,0.02679,-0.06854,0.034963,0.0,4.0,48.0,164.0,23.0,0.0
135587,-0.248169,-1.354928,2.761606,0.048335,-0.0018,-0.035704,0.0,4.0,48.0,164.0,23.0,0.0
135588,-0.259351,-1.359467,2.758436,0.057373,0.059387,0.000208,0.0,4.0,48.0,164.0,23.0,0.0
135589,-0.272902,-1.362834,2.757942,0.066812,0.127442,0.001813,0.0,4.0,48.0,164.0,23.0,0.0
135590,-0.296923,-1.36474,2.741416,0.12646,0.106558,-0.038062,0.0,4.0,48.0,164.0,23.0,0.0
135591,-0.349864,-1.370579,2.69193,0.215883,-0.226911,0.16197,0.0,4.0,48.0,164.0,23.0,0.0
135592,-0.462016,-1.391872,2.5989,-0.073269,-0.164517,0.205446,0.0,4.0,48.0,164.0,23.0,0.0
135593,-0.4659390000000001,-1.3936620000000002,2.604705,-0.086681,0.000221,0.044333,0.0,4.0,48.0,164.0,23.0,0.0
135594,-0.466242,-1.395132,2.602094,-0.025258000000000003,-0.013221,0.059662,0.0,4.0,48.0,164.0,23.0,0.0
135595,-0.474544,-1.396428,2.590134,0.019519,-0.006626000000000001,0.023811,0.0,4.0,48.0,164.0,23.0,0.0
135596,-0.486743,-1.397418,2.5716240000000004,0.116016,0.0014880000000000002,-0.198581,0.0,4.0,48.0,164.0,23.0,0.0
135597,-0.5298350000000001,-1.402831,2.531632,-0.009262,0.069478,0.002243,0.0,4.0,48.0,164.0,23.0,0.0
135598,-0.556712,-1.405084,2.502734,0.053513,0.02116,0.04442,0.0,4.0,48.0,164.0,23.0,0.0
135599,-0.58323,-1.406045,2.469746,0.059847,0.028739,0.034891000000000005,0.0,4.0,48.0,164.0,23.0,0.0
135600,-0.599118,-1.4054,2.446616,0.050818,0.046118,0.049025,0.0,4.0,48.0,164.0,23.0,0.0
135601,-0.612941,-1.40581,2.430272,0.07754,0.020751,0.104953,0.0,4.0,48.0,164.0,23.0,0.0
135602,-0.632372,-1.40546,2.400074,0.119062,0.049434,0.06208,0.0,4.0,48.0,164.0,23.0,0.0
135603,-0.650101,-1.406629,2.369972,-0.03483,-0.025266,0.05156,0.0,4.0,48.0,164.0,23.0,0.0
135604,-0.673218,-1.409081,2.3345290000000003,-0.095021,-0.055434,0.03282,0.0,4.0,48.0,164.0,23.0,0.0
135605,-0.691289,-1.411394,2.305612,-0.105664,-0.074648,0.05669,0.0,4.0,48.0,164.0,23.0,0.0
135606,-0.697079,-1.413077,2.287791,-0.150016,-3.9e-05,0.064792,0.0,4.0,48.0,164.0,23.0,0.0
135607,-0.689762,-1.412607,2.2849470000000003,-0.106766,0.024708,0.06745599999999999,0.0,4.0,48.0,164.0,23.0,0.0
135608,-0.679439,-1.411989,2.285025,-0.104605,0.012919,0.053686000000000005,0.0,4.0,48.0,164.0,23.0,0.0
135609,-0.679024,-1.410465,2.273221,-0.009792,0.014748,0.105299,0.0,4.0,48.0,164.0,23.0,0.0
135610,-0.679227,-1.40896,2.256207,-0.047529,-0.006251,0.125371,0.0,4.0,48.0,164.0,23.0,0.0
135611,-0.675088,-1.407859,2.239596,-0.055335,-0.032379000000000005,0.09731,0.0,4.0,48.0,164.0,23.0,0.0
135612,-0.6797380000000001,-1.407816,2.21245,-0.078099,-0.001351,0.05483,0.0,4.0,48.0,164.0,23.0,0.0
135613,-0.670896,-1.408424,2.197944,-0.06685,-0.031799,0.080221,0.0,4.0,48.0,164.0,23.0,0.0
135614,-0.651261,-1.408273,2.196268,-0.074758,-0.04862,0.101559,0.0,4.0,48.0,164.0,23.0,0.0
135615,-0.62963,-1.407779,2.196934,-0.075002,-0.042894,0.118983,0.0,4.0,48.0,164.0,23.0,0.0
135616,-0.602526,-1.4065450000000002,2.203131,-0.081456,-0.024642,0.13159300000000002,0.0,4.0,48.0,164.0,23.0,0.0
135617,-0.573145,-1.405489,2.211985,-0.054676,-0.058374,0.146375,0.0,4.0,48.0,164.0,23.0,0.0
135618,-0.537384,-1.404749,2.228815,-0.084037,0.045279,0.166033,0.0,4.0,48.0,164.0,23.0,0.0
135619,-0.502261,-1.404686,2.244134,-0.06829099999999999,0.006608,0.17419,0.0,4.0,48.0,164.0,23.0,0.0
135620,-0.463199,-1.405664,2.263336,-0.102944,-0.061638,0.185359,0.0,4.0,48.0,164.0,23.0,0.0
135621,-0.416899,-1.407035,2.290921,-0.12073699999999997,-0.036655,0.187942,0.0,4.0,48.0,164.0,23.0,0.0
135622,-0.366321,-1.408775,2.3246130000000003,-0.138126,0.023046,0.164569,0.0,4.0,48.0,164.0,23.0,0.0
135623,-0.31829,-1.410592,2.357514,-0.116534,-0.019513,0.15050999999999998,0.0,4.0,48.0,164.0,23.0,0.0
135624,-0.263991,-1.411299,2.397797,-0.150982,0.021314,0.168203,0.0,4.0,48.0,164.0,23.0,0.0
135625,-0.208634,-1.410715,2.439395,-0.167036,0.033629,0.165101,0.0,4.0,48.0,164.0,23.0,0.0
135626,-0.160492,-1.4089120000000002,2.47348,-0.169471,0.10124,0.199225,0.0,4.0,48.0,164.0,23.0,0.0
135627,-0.117553,-1.406885,2.50164,-0.225862,0.147513,0.23075,0.0,4.0,48.0,164.0,23.0,0.0
135628,-0.08373799999999999,-1.404659,2.522595,-0.25663400000000003,0.188192,0.255205,0.0,4.0,48.0,164.0,23.0,0.0
135629,-0.047915,-1.401712,2.547092,-0.214568,0.139932,0.297728,0.0,4.0,48.0,164.0,23.0,0.0
135630,-0.008853,-1.399699,2.575627,-0.259571,0.171019,0.330645,0.0,4.0,48.0,164.0,23.0,0.0
135631,0.023603,-1.3994,2.597178,-0.451717,0.311237,0.08127999999999999,0.0,4.0,48.0,164.0,23.0,0.0
135632,0.013685,-1.400581,2.583084,-0.377577,0.316408,-0.003899,0.0,4.0,48.0,164.0,23.0,0.0
135633,-0.043268,-1.407409,2.529509,-0.183548,0.27461,-0.037871,0.0,4.0,48.0,164.0,23.0,0.0
135634,-0.133507,-1.419556,2.448257,-0.144762,0.22043,-0.071965,0.0,4.0,48.0,164.0,23.0,0.0
135635,-0.257069,-1.4378879999999998,2.338131,-0.144607,0.212631,-0.041589,0.0,4.0,48.0,164.0,23.0,0.0
135636,-0.426798,-1.459248,2.185348,-0.145905,0.200246,-0.053124,0.0,4.0,48.0,164.0,23.0,0.0
135637,-0.701567,-1.48264,1.931094,0.018766,0.097145,-0.06254,0.0,4.0,48.0,164.0,23.0,0.0
135638,-1.137813,-1.49861,1.517017,0.065765,0.088588,-0.089084,0.0,4.0,48.0,164.0,23.0,0.0
135639,-1.658267,-1.497334,1.018473,0.048637,0.180889,-0.026542000000000003,0.0,4.0,48.0,164.0,23.0,0.0
135640,-2.056451,-1.477467,0.6381439999999999,0.038151,0.223285,-0.031261000000000004,0.0,4.0,48.0,164.0,23.0,0.0
135641,-2.286058,-1.447108,0.424854,-0.016482,0.139903,-0.054169000000000016,0.0,4.0,48.0,164.0,23.0,0.0
135642,-2.421647,-1.414857,0.308638,-0.075436,-0.002942,-0.060338,0.0,4.0,48.0,164.0,23.0,0.0
135643,-2.5124150000000003,-1.384522,0.241099,-0.084788,-0.052098,-0.081697,0.0,4.0,48.0,164.0,23.0,0.0
135644,-2.584215,-1.355879,0.196488,-0.083521,-0.14743499999999998,-0.104483,0.0,4.0,48.0,164.0,23.0,0.0
135645,-2.645225,-1.328083,0.16730599999999998,-0.03385,-0.216081,-0.129139,0.0,4.0,48.0,164.0,23.0,0.0
135646,-2.6938020000000003,-1.300735,0.155513,0.018786,-0.302713,-0.15626700000000002,0.0,4.0,48.0,164.0,23.0,0.0
135647,-2.734194,-1.274944,0.153907,0.06997300000000001,-0.316356,-0.176074,0.0,4.0,48.0,164.0,23.0,0.0
135648,-2.766365,-1.2528709999999998,0.159606,0.140458,-0.322979,-0.14338299999999998,0.0,4.0,48.0,164.0,23.0,0.0
135649,-2.790396,-1.236057,0.168067,0.13942000000000002,-0.316734,-0.124204,0.0,4.0,48.0,164.0,23.0,0.0
135650,-2.80784,-1.222913,0.176103,0.125446,-0.298174,-0.124312,0.0,4.0,48.0,164.0,23.0,0.0
135651,-2.81735,-1.212125,0.185091,0.094704,-0.31345500000000004,-0.042424,0.0,4.0,48.0,164.0,23.0,0.0
135652,-2.820778,-1.203476,0.195084,0.0883,-0.323369,-0.037371,0.0,4.0,48.0,164.0,23.0,0.0
135653,-2.822796,-1.196274,0.20268,0.054819000000000014,-0.36156,0.080598,0.0,4.0,48.0,164.0,23.0,0.0
135654,-2.823427,-1.191785,0.209513,-0.045,-0.356521,0.097207,0.0,4.0,48.0,164.0,23.0,0.0
135655,-2.824865,-1.188208,0.219331,-0.233512,-0.25114200000000003,0.12823199999999998,0.0,4.0,48.0,164.0,23.0,0.0
135656,-2.828326,-1.182297,0.233849,-0.327154,-0.034213,0.128801,0.0,4.0,48.0,164.0,23.0,0.0
135657,-2.831177,-1.176461,0.254889,-0.22585700000000006,0.245754,0.193081,0.0,4.0,48.0,164.0,23.0,0.0
135658,-2.840039,-1.171708,0.27586700000000003,-0.065203,0.454958,0.30304200000000003,0.0,4.0,48.0,164.0,23.0,0.0
135659,-2.854374,-1.166561,0.291719,-0.098976,0.370102,0.474342,0.0,4.0,48.0,164.0,23.0,0.0
135660,-2.8605560000000003,-1.1617540000000002,0.30941,-0.12633,-0.119269,0.333829,0.0,4.0,48.0,164.0,23.0,0.0
135661,-2.861055,-1.162882,0.331049,-0.055839,-0.237485,0.27220700000000003,0.0,4.0,48.0,164.0,23.0,0.0
135662,-2.868466,-1.166135,0.350136,0.052466,0.047897,-0.039835,0.0,4.0,48.0,164.0,23.0,0.0
135663,-2.886725,-1.160743,0.35681,0.104102,0.494217,-0.356577,0.0,4.0,48.0,164.0,23.0,0.0
135664,-2.903342,-1.160626,0.361771,0.329622,0.749207,-0.538716,0.0,4.0,48.0,164.0,23.0,0.0
135665,-2.921194,-1.16175,0.355727,0.168015,0.545924,-0.167548,0.0,4.0,48.0,164.0,23.0,0.0
135666,-2.910282,-1.154082,0.364165,-0.070575,0.054906,-0.243939,0.0,4.0,48.0,164.0,23.0,0.0
135667,-2.878654,-1.144658,0.3844280000000001,-0.208654,-0.107484,-0.311795,0.0,4.0,48.0,164.0,23.0,0.0
135668,-2.841032,-1.143446,0.411582,-0.271425,-0.057191999999999986,-0.366098,0.0,4.0,48.0,164.0,23.0,0.0
135669,-2.803847,-1.148826,0.447067,-0.298533,0.05639,-0.432199,0.0,4.0,48.0,164.0,23.0,0.0
135670,-2.775301,-1.161508,0.482922,-0.122282,0.185638,-0.377648,0.0,4.0,48.0,164.0,23.0,0.0
135671,-2.750892,-1.177885,0.519779,-0.004557,0.112945,-0.316828,0.0,4.0,48.0,164.0,23.0,0.0
135672,-2.721125,-1.195443,0.5587449999999999,0.167375,-0.016117,-0.290314,0.0,4.0,48.0,164.0,23.0,0.0
135673,-2.687341,-1.214308,0.595245,0.235697,-0.063608,-0.210842,0.0,4.0,48.0,164.0,23.0,0.0
135674,-2.651817,-1.230652,0.625703,0.243736,-0.098834,-0.184432,0.0,4.0,48.0,164.0,23.0,0.0
135675,-2.616276,-1.243898,0.649518,0.171542,-0.104803,-0.207208,0.0,4.0,48.0,164.0,23.0,0.0
135676,-2.580564,-1.255082,0.670912,0.088964,-0.107191,-0.157399,0.0,4.0,48.0,164.0,23.0,0.0
135677,-2.549454,-1.263344,0.687696,0.039418,-0.14131,-0.115122,0.0,4.0,48.0,164.0,23.0,0.0
135678,-2.530856,-1.268466,0.694659,-0.025547,-0.18574,-0.019922,0.0,4.0,48.0,164.0,23.0,0.0
135679,-2.523946,-1.2706309999999998,0.692444,-0.130135,-0.158702,0.091104,0.0,4.0,48.0,164.0,23.0,0.0
135680,-2.5220860000000003,-1.269801,0.6875060000000001,-0.179489,-0.127695,0.023013,0.0,4.0,48.0,164.0,23.0,0.0
135681,-2.521375,-1.267391,0.685609,-0.145769,-0.278528,-0.003808,0.0,4.0,48.0,164.0,23.0,0.0
135682,-2.52313,-1.265949,0.685116,-0.060818,-0.409368,0.080857,0.0,4.0,48.0,164.0,23.0,0.0
135683,-2.529822,-1.264487,0.681539,-0.01283,-0.351479,0.16451,0.0,4.0,48.0,164.0,23.0,0.0
135684,-2.527932,-1.263616,0.685103,0.007065000000000002,-0.26273,0.135244,0.0,4.0,48.0,164.0,23.0,0.0
135685,-2.531625,-1.261778,0.681231,0.005018,-0.162456,-0.055293,0.0,4.0,48.0,164.0,23.0,0.0
135686,-2.537184,-1.26398,0.677434,-0.048269,-0.200294,-0.014354,0.0,4.0,48.0,164.0,23.0,0.0
135687,-2.541835,-1.266718,0.6733180000000001,0.011249,-0.212073,-0.036202,0.0,4.0,48.0,164.0,23.0,0.0
135688,-2.547614,-1.26771,0.666787,0.049739,-0.200529,-0.098035,0.0,4.0,48.0,164.0,23.0,0.0
135689,-2.54898,-1.269627,0.662676,0.054024,-0.159778,-0.028995,0.0,4.0,48.0,164.0,23.0,0.0
135690,-2.549985,-1.273251,0.65574,-0.080052,0.048534,-0.068217,0.0,4.0,48.0,164.0,23.0,0.0
135691,-2.556404,-1.2757040000000002,0.6415850000000001,-0.11041,0.153302,-0.175354,0.0,4.0,48.0,164.0,23.0,0.0
135692,-2.574767,-1.273428,0.619,-0.096614,0.139287,-0.259322,0.0,4.0,48.0,164.0,23.0,0.0
135693,-2.612191,-1.260689,0.5833550000000001,0.020682,0.197556,-0.304213,0.0,4.0,48.0,164.0,23.0,0.0
135694,-2.666872,-1.230126,0.5374909999999999,0.120432,0.566029,-0.141268,0.0,4.0,48.0,164.0,23.0,0.0
135695,-2.714503,-1.180237,0.497381,0.216261,0.649813,-0.099314,0.0,4.0,48.0,164.0,23.0,0.0
135696,-2.737395,-1.130593,0.478715,0.247102,0.443617,0.038894,0.0,4.0,48.0,164.0,23.0,0.0
135697,-2.737829,-1.092364,0.4719140000000001,0.010456,0.353646,0.1577,0.0,4.0,48.0,164.0,23.0,0.0
135698,-2.737116,-1.062128,0.459362,-0.207966,0.389775,0.139622,0.0,4.0,48.0,164.0,23.0,0.0
135699,-2.743488,-1.041647,0.444928,-0.252817,0.192153,0.100883,0.0,4.0,48.0,164.0,23.0,0.0
135700,-2.752771,-1.029427,0.432761,-0.17210599999999998,-0.00535,0.03896,0.0,4.0,48.0,164.0,23.0,0.0
135701,-2.758803,-1.023121,0.42766,-0.002331,-0.011727,-0.077947,0.0,4.0,48.0,164.0,23.0,0.0
135702,-2.762468,-1.022467,0.429689,0.112712,-0.078815,-0.08041,0.0,4.0,48.0,164.0,23.0,0.0
135703,-2.76282,-1.029907,0.434885,0.231114,-0.162579,-0.057231,0.0,4.0,48.0,164.0,23.0,0.0
135704,-2.75147,-1.045783,0.442399,0.266243,-0.321753,-0.155582,0.0,4.0,48.0,164.0,23.0,0.0
135705,-2.733986,-1.069156,0.449829,0.147426,-0.5675600000000001,-0.156817,0.0,4.0,48.0,164.0,23.0,0.0
135706,-2.721918,-1.099165,0.450626,0.029871,-0.608647,-0.082791,0.0,4.0,48.0,164.0,23.0,0.0
135707,-2.711568,-1.13171,0.448406,-0.022693,-0.559926,0.011511,0.0,4.0,48.0,164.0,23.0,0.0
135708,-2.693145,-1.161352,0.454445,-0.06929500000000001,-0.417052,0.105774,0.0,4.0,48.0,164.0,23.0,0.0
135709,-2.662104,-1.184785,0.474006,-0.117209,-0.430721,0.052439,0.0,4.0,48.0,164.0,23.0,0.0
135710,-2.628767,-1.204459,0.502513,-0.122048,-0.426337,0.077776,0.0,4.0,48.0,164.0,23.0,0.0
135711,-2.609498,-1.223023,0.53071,-0.172728,-0.08555,0.059375,0.0,4.0,48.0,164.0,23.0,0.0
135712,-2.5943650000000003,-1.239507,0.559531,-0.118791,0.393518,0.009046,0.0,4.0,48.0,164.0,23.0,0.0
135713,-2.559227,-1.253195,0.605146,0.042707,0.313502,0.025815,0.0,4.0,48.0,164.0,23.0,0.0
135714,-2.523453,-1.259111,0.649989,0.352085,0.278285,0.134548,0.0,4.0,48.0,164.0,23.0,0.0
135715,-2.509584,-1.259572,0.6666890000000001,0.289112,0.348318,0.017334,0.0,4.0,48.0,164.0,23.0,0.0
135716,-2.532139,-1.256416,0.638791,0.14611400000000002,0.161637,-0.648355,0.0,4.0,48.0,164.0,23.0,0.0
135717,-2.561409,-1.262068,0.613325,0.020115,0.131218,-0.6255649999999999,0.0,4.0,48.0,164.0,23.0,0.0
135718,-2.583054,-1.27142,0.600908,0.008534,0.088852,-0.050039,0.0,4.0,48.0,164.0,23.0,0.0
135719,-2.614846,-1.2721360000000002,0.575245,-0.01505,0.347796,0.08879400000000001,0.0,4.0,48.0,164.0,23.0,0.0
135720,-2.642594,-1.266245,0.543921,-0.15709,0.961988,0.415053,0.0,4.0,48.0,164.0,23.0,0.0
135721,-2.624785,-1.264351,0.5384909999999999,-0.51556,0.461642,0.247087,0.0,4.0,48.0,164.0,23.0,0.0
135722,-2.578956,-1.262126,0.5586260000000001,-0.210289,-0.168345,-0.09291,0.0,4.0,48.0,164.0,23.0,0.0
135723,-2.554304,-1.2676459999999998,0.573974,-0.189207,-0.412958,-0.136122,0.0,4.0,48.0,164.0,23.0,0.0
135724,-2.533103,-1.277204,0.594936,-0.08014500000000001,-0.404919,0.006239,0.0,4.0,48.0,164.0,23.0,0.0
135725,-2.51865,-1.284728,0.612558,-0.084951,-0.294245,0.085449,0.0,4.0,48.0,164.0,23.0,0.0
135726,-2.503743,-1.288099,0.631995,-0.03154,0.148275,0.210202,0.0,4.0,48.0,164.0,23.0,0.0
135727,-2.486374,-1.290508,0.652309,0.094863,0.06465900000000001,0.057395,0.0,4.0,48.0,164.0,23.0,0.0
135728,-2.475412,-1.29377,0.664928,0.06412899999999999,-0.178121,0.039566,0.0,4.0,48.0,164.0,23.0,0.0
135729,-2.479628,-1.293249,0.660216,-0.163431,-0.319289,0.059808000000000014,0.0,4.0,48.0,164.0,23.0,0.0
135730,-2.506367,-1.288499,0.633989,-0.203592,-0.316772,0.057629,0.0,4.0,48.0,164.0,23.0,0.0
135731,-2.548336,-1.281872,0.598677,-0.191705,-0.296136,-0.06589199999999999,0.0,4.0,48.0,164.0,23.0,0.0
135732,-2.594212,-1.272633,0.567525,0.037006,-0.26627199999999995,-0.143396,0.0,4.0,48.0,164.0,23.0,0.0
135733,-2.646564,-1.25988,0.534105,0.074817,-0.175229,-0.308944,0.0,4.0,48.0,164.0,23.0,0.0
135734,-2.709936,-1.240022,0.48872,0.109416,-0.088507,-0.38018,0.0,4.0,48.0,164.0,23.0,0.0
135735,-2.7760290000000003,-1.208129,0.43943,0.196142,0.297789,-0.195424,0.0,4.0,48.0,164.0,23.0,0.0
135736,-2.8193900000000003,-1.16309,0.406532,0.165354,0.548489,0.014881,0.0,4.0,48.0,164.0,23.0,0.0
135737,-2.825268,-1.120897,0.40073,0.135573,0.5010439999999999,0.13532,0.0,4.0,48.0,164.0,23.0,0.0
135738,-2.797022,-1.091045,0.409832,0.110321,0.35304800000000003,0.338385,0.0,4.0,48.0,164.0,23.0,0.0
135739,-2.76411,-1.065009,0.4133560000000001,0.075613,0.442116,0.264336,0.0,4.0,48.0,164.0,23.0,0.0
135740,-2.7571830000000004,-1.045474,0.402212,-0.227321,0.257076,0.091183,0.0,4.0,48.0,164.0,23.0,0.0
135741,-2.750728,-1.041599,0.399134,-0.20972800000000005,-0.063637,-0.01944,0.0,4.0,48.0,164.0,23.0,0.0
135742,-2.733335,-1.051122,0.409417,-0.026308,-0.08314500000000001,0.015285,0.0,4.0,48.0,164.0,23.0,0.0
135743,-2.716714,-1.069587,0.424275,0.055804999999999993,-0.019947,0.067651,0.0,4.0,48.0,164.0,23.0,0.0
135744,-2.704769,-1.08869,0.438754,0.129228,-0.042469,0.141276,0.0,4.0,48.0,164.0,23.0,0.0
135745,-2.696037,-1.111169,0.449981,0.049395,-0.109307,0.136791,0.0,4.0,48.0,164.0,23.0,0.0
135746,-2.687088,-1.140845,0.461448,-0.181921,-0.171254,0.090627,0.0,4.0,48.0,164.0,23.0,0.0
135747,-2.667735,-1.172835,0.482634,-0.190301,-0.193658,0.08633300000000001,0.0,4.0,48.0,164.0,23.0,0.0
135748,-2.63204,-1.203173,0.516134,0.058362,-0.25137600000000004,0.039856,0.0,4.0,48.0,164.0,23.0,0.0
135749,-2.584826,-1.230227,0.556515,0.199058,-0.275572,-0.168824,0.0,4.0,48.0,164.0,23.0,0.0
135750,-2.540409,-1.253996,0.593306,0.019564,-0.240215,-0.326496,0.0,4.0,48.0,164.0,23.0,0.0
135751,-2.491863,-1.2745,0.640181,-0.163613,-0.377475,-0.225601,0.0,4.0,48.0,164.0,23.0,0.0
135752,-2.426787,-1.288386,0.705188,0.014828999999999997,-0.604216,-0.115559,0.0,4.0,48.0,164.0,23.0,0.0
135753,-2.360029,-1.296652,0.773778,0.200732,-0.784084,-0.080191,0.0,4.0,48.0,164.0,23.0,0.0
135754,-2.332314,-1.295683,0.804164,0.239939,-0.744423,-0.130212,0.0,4.0,48.0,164.0,23.0,0.0
135755,-2.361185,-1.288814,0.782816,0.120976,-0.4198560000000001,-0.192138,0.0,4.0,48.0,164.0,23.0,0.0
135756,-2.413764,-1.280458,0.746171,-0.078658,0.569044,-0.498298,0.0,4.0,48.0,164.0,23.0,0.0
135757,-2.438864,-1.268634,0.745751,-0.010579,1.217928,0.073931,0.0,4.0,48.0,164.0,23.0,0.0
135758,-2.485742,-1.253414,0.722368,0.13887,0.513521,-0.023148,0.0,4.0,48.0,164.0,23.0,0.0
135759,-2.541072,-1.233863,0.675064,-0.133449,0.399672,0.511245,0.0,4.0,48.0,164.0,23.0,0.0
135760,-2.555385,-1.218146,0.639992,-0.200111,-0.024581,0.20715300000000006,0.0,4.0,48.0,164.0,23.0,0.0
135761,-2.558636,-1.208646,0.626708,-0.093365,-0.105761,-0.027429,0.0,4.0,48.0,164.0,23.0,0.0
135762,-2.564338,-1.209624,0.620093,-0.20720300000000005,-0.017621,0.094867,0.0,4.0,48.0,164.0,23.0,0.0
135763,-2.562724,-1.212704,0.617337,-0.24648,0.156649,0.312512,0.0,4.0,48.0,164.0,23.0,0.0
135764,-2.543568,-1.216601,0.623356,-0.265367,0.246873,0.352933,0.0,4.0,48.0,164.0,23.0,0.0
135765,-2.510278,-1.222675,0.638101,-0.379206,0.09273,0.151471,0.0,4.0,48.0,164.0,23.0,0.0
135766,-2.478264,-1.230282,0.654513,-0.365856,-0.010073,-0.085737,0.0,4.0,48.0,164.0,23.0,0.0
135767,-2.46681,-1.238497,0.664588,-0.314738,0.114565,0.042641000000000005,0.0,4.0,48.0,164.0,23.0,0.0
135768,-2.4837740000000004,-1.23992,0.655331,-0.132502,0.108548,-0.235334,0.0,4.0,48.0,164.0,23.0,0.0
135769,-2.5268040000000003,-1.2305,0.627482,0.111646,-0.112776,-0.291005,0.0,4.0,48.0,164.0,23.0,0.0
135770,-2.596549,-1.208024,0.579263,0.29849499999999995,0.071812,-0.362313,0.0,4.0,48.0,164.0,23.0,0.0
135771,-2.667155,-1.167718,0.527275,0.381663,0.285236,-0.205736,0.0,4.0,48.0,164.0,23.0,0.0
135772,-2.708566,-1.121584,0.4871470000000001,0.27978800000000004,0.231107,-0.047875,0.0,4.0,48.0,164.0,23.0,0.0
135773,-2.719342,-1.08701,0.462161,0.013191,0.13256700000000002,-0.038783,0.0,4.0,48.0,164.0,23.0,0.0
135774,-2.710862,-1.061319,0.452167,-0.004197,0.5185109999999999,0.107012,0.0,4.0,48.0,164.0,23.0,0.0
135775,-2.706177,-1.03452,0.445204,-0.027578,0.462954,0.179264,0.0,4.0,48.0,164.0,23.0,0.0
135776,-2.710274,-1.024693,0.435989,-0.100969,-0.188707,-0.058881,0.0,4.0,48.0,164.0,23.0,0.0
135777,-2.706363,-1.037016,0.436846,-0.011434,-0.303715,-0.126751,0.0,4.0,48.0,164.0,23.0,0.0
135778,-2.694853,-1.06025,0.448555,0.095834,-0.290218,-0.025707,0.0,4.0,48.0,164.0,23.0,0.0
135779,-2.6782310000000003,-1.086147,0.466658,0.196168,-0.324994,0.008931,0.0,4.0,48.0,164.0,23.0,0.0
135780,-2.65564,-1.109869,0.487375,0.14694400000000002,-0.498042,0.117392,0.0,4.0,48.0,164.0,23.0,0.0
135781,-2.635151,-1.1327,0.503395,0.063576,-0.552747,0.111224,0.0,4.0,48.0,164.0,23.0,0.0
135782,-2.626999,-1.154907,0.508142,-0.0182,-0.578713,0.078249,0.0,4.0,48.0,164.0,23.0,0.0
135783,-2.620894,-1.175728,0.515038,-0.05916,-0.50845,0.043898,0.0,4.0,48.0,164.0,23.0,0.0
135784,-2.591568,-1.197949,0.5405949999999999,0.095462,-0.414326,-0.03654,0.0,4.0,48.0,164.0,23.0,0.0
135785,-2.553224,-1.221618,0.5721609999999999,0.095149,-0.240313,-0.073658,0.0,4.0,48.0,164.0,23.0,0.0
135786,-2.524135,-1.246361,0.602274,-0.157979,0.34844899999999995,-0.0046,0.0,4.0,48.0,164.0,23.0,0.0
135787,-2.485127,-1.260473,0.645179,0.175421,0.20693000000000006,-0.14344500000000002,0.0,4.0,48.0,164.0,23.0,0.0
135788,-2.446374,-1.262119,0.687235,0.302819,0.260689,-0.061995,0.0,4.0,48.0,164.0,23.0,0.0
135789,-2.4410130000000003,-1.26165,0.695569,0.137712,0.320966,0.00025,0.0,4.0,48.0,164.0,23.0,0.0
135790,-2.48875,-1.257558,0.64559,-0.050106,0.27607600000000004,-0.6782729999999999,0.0,4.0,48.0,164.0,23.0,0.0
135791,-2.538748,-1.263677,0.603919,-0.265644,0.5965199999999999,-0.136103,0.0,4.0,48.0,164.0,23.0,0.0
135792,-2.586296,-1.263371,0.5609729999999999,-0.333014,0.403757,-0.01479,0.0,4.0,48.0,164.0,23.0,0.0
135793,-2.603971,-1.266621,0.547458,-0.258146,0.021095,0.139084,0.0,4.0,48.0,164.0,23.0,0.0
135794,-2.581896,-1.271853,0.570385,-0.175767,0.17005399999999998,0.272559,0.0,4.0,48.0,164.0,23.0,0.0
135795,-2.559271,-1.279051,0.593611,-0.296783,0.240606,0.011084,0.0,4.0,48.0,164.0,23.0,0.0
135796,-2.531784,-1.290833,0.625045,-0.213113,0.063486,-0.025,0.0,4.0,48.0,164.0,23.0,0.0
135797,-2.505847,-1.305105,0.659871,-0.050065,-0.225165,-0.066385,0.0,4.0,48.0,164.0,23.0,0.0
135798,-2.48375,-1.317806,0.6931350000000001,0.041723,-0.269133,0.020267,0.0,4.0,48.0,164.0,23.0,0.0
135799,-2.462335,-1.326948,0.72314,0.146516,-0.246127,0.198284,0.0,4.0,48.0,164.0,23.0,0.0
135800,-2.450008,-1.332384,0.738566,0.16486199999999998,-0.264546,0.081981,0.0,4.0,48.0,164.0,23.0,0.0
135801,-2.444514,-1.336967,0.740522,0.129047,-0.398919,-0.04042,0.0,4.0,48.0,164.0,23.0,0.0
135802,-2.442982,-1.341142,0.739074,-0.044484,-0.335928,-0.019044,0.0,4.0,48.0,164.0,23.0,0.0
135803,-2.452681,-1.339958,0.7256100000000001,-0.096931,-0.261302,-0.031263,0.0,4.0,48.0,164.0,23.0,0.0
135804,-2.473854,-1.331163,0.702066,-0.094108,-0.16206800000000002,0.071529,0.0,4.0,48.0,164.0,23.0,0.0
135805,-2.5071060000000003,-1.317654,0.668143,-0.033519,-0.179648,0.109737,0.0,4.0,48.0,164.0,23.0,0.0
135806,-2.546361,-1.301951,0.625957,-0.061467,-0.299543,-0.123325,0.0,4.0,48.0,164.0,23.0,0.0
135807,-2.588511,-1.282705,0.581377,-0.091371,-0.322802,-0.332927,0.0,4.0,48.0,164.0,23.0,0.0
135808,-2.643423,-1.253351,0.533885,0.029574,0.05796000000000001,-0.301677,0.0,4.0,48.0,164.0,23.0,0.0
135809,-2.691596,-1.208716,0.494018,-0.037183,0.592792,-0.014341,0.0,4.0,48.0,164.0,23.0,0.0
135810,-2.707968,-1.162219,0.484018,0.037156,0.691291,0.069218,0.0,4.0,48.0,164.0,23.0,0.0
135811,-2.6937830000000003,-1.129914,0.4894810000000001,0.29759800000000003,0.406583,0.304687,0.0,4.0,48.0,164.0,23.0,0.0
135812,-2.674402,-1.106279,0.483776,0.165572,0.57224,0.272014,0.0,4.0,48.0,164.0,23.0,0.0
135813,-2.679549,-1.08894,0.458046,-0.426151,0.35924,0.211297,0.0,4.0,48.0,164.0,23.0,0.0
135814,-2.694122,-1.086129,0.432479,-0.285465,0.27320500000000003,0.208345,0.0,4.0,48.0,164.0,23.0,0.0
135815,-2.694585,-1.094522,0.425664,-0.12251,0.30465,0.224912,0.0,4.0,48.0,164.0,23.0,0.0
135816,-2.682273,-1.113074,0.43478,0.178549,0.35303,0.25155500000000003,0.0,4.0,48.0,164.0,23.0,0.0
135817,-2.656291,-1.141325,0.4580010000000001,0.250249,0.127557,0.274223,0.0,4.0,48.0,164.0,23.0,0.0
135818,-2.609961,-1.1775,0.494773,0.238096,-0.025274,0.268706,0.0,4.0,48.0,164.0,23.0,0.0
135819,-2.56466,-1.213532,0.52647,-0.180287,-0.964384,-0.432387,0.0,4.0,48.0,164.0,23.0,0.0
135820,-2.532057,-1.2468549999999998,0.552076,-0.229786,-1.124471,-0.436867,0.0,4.0,48.0,164.0,23.0,0.0
135821,-2.4980900000000004,-1.280314,0.59336,-0.24897,-1.177542,-0.365265,0.0,4.0,48.0,164.0,23.0,0.0
135822,-2.444864,-1.313226,0.658378,-0.16402,-0.933137,0.049163,0.0,4.0,48.0,164.0,23.0,0.0
135823,-2.396455,-1.337457,0.71724,-0.135147,-0.6151270000000001,0.158136,0.0,4.0,48.0,164.0,23.0,0.0
135824,-2.349797,-1.338642,0.771528,0.021995,-0.661421,0.150435,0.0,4.0,48.0,164.0,23.0,0.0
135825,-2.329577,-1.3189959999999998,0.795087,0.807262,-0.889394,-0.5560350000000001,0.0,4.0,48.0,164.0,23.0,0.0
135826,-2.380134,-1.306296,0.758027,0.559772,-0.5197579999999999,-0.7225060000000001,0.0,4.0,48.0,164.0,23.0,0.0
135827,-2.406278,-1.304193,0.738896,-0.12528499999999998,0.351567,0.256599,0.0,4.0,48.0,164.0,23.0,0.0
135828,-2.4340490000000004,-1.285399,0.699554,-0.273122,1.063781,0.175403,0.0,4.0,48.0,164.0,23.0,0.0
135829,-2.449518,-1.2740479999999998,0.6749029999999999,-0.09326,0.222708,0.234996,0.0,4.0,48.0,164.0,23.0,0.0
135830,-2.45638,-1.272336,0.660412,-0.097664,0.088185,0.194978,0.0,4.0,48.0,164.0,23.0,0.0
135831,-2.48797,-1.27344,0.627848,-0.535932,0.801164,0.35588600000000004,0.0,4.0,48.0,164.0,23.0,0.0
135832,-2.516062,-1.271675,0.601144,-0.381361,0.335267,0.146878,0.0,4.0,48.0,164.0,23.0,0.0
135833,-2.536269,-1.264923,0.582728,-0.26532,0.155577,0.249621,0.0,4.0,48.0,164.0,23.0,0.0
135834,-2.584744,-1.251498,0.539763,-0.134231,-0.016091,-0.166284,0.0,4.0,48.0,164.0,23.0,0.0
135835,-2.658579,-1.229466,0.482388,-0.020359,-0.083484,-0.181972,0.0,4.0,48.0,164.0,23.0,0.0
135836,-2.741196,-1.1959229999999998,0.4183520000000001,0.404014,0.35922600000000005,-0.20647,0.0,4.0,48.0,164.0,23.0,0.0
135837,-2.801733,-1.151616,0.364869,0.4647850000000001,0.577346,-0.080432,0.0,4.0,48.0,164.0,23.0,0.0
135838,-2.814118,-1.113607,0.33961,0.197427,0.365139,-0.06652899999999999,0.0,4.0,48.0,164.0,23.0,0.0
135839,-2.792318,-1.0880040000000002,0.334416,-0.076472,0.216089,-0.022131,0.0,4.0,48.0,164.0,23.0,0.0
135840,-2.768781,-1.069492,0.332212,-0.234196,0.14260499999999998,0.031749,0.0,4.0,48.0,164.0,23.0,0.0
135841,-2.753962,-1.061601,0.328891,-0.298765,0.010408,0.051741,0.0,4.0,48.0,164.0,23.0,0.0
135842,-2.736317,-1.068863,0.33529499999999995,-0.070375,-0.252188,-0.11643699999999997,0.0,4.0,48.0,164.0,23.0,0.0
135843,-2.721738,-1.086726,0.349735,0.168848,-0.110587,0.051244000000000005,0.0,4.0,48.0,164.0,23.0,0.0
135844,-2.716312,-1.109246,0.359169,0.14205,-0.115197,0.149553,0.0,4.0,48.0,164.0,23.0,0.0
135845,-2.7233970000000003,-1.137169,0.356272,-0.097949,-0.378777,0.099457,0.0,4.0,48.0,164.0,23.0,0.0
135846,-2.736446,-1.169556,0.34548,-0.147877,-0.536086,-0.021462,0.0,4.0,48.0,164.0,23.0,0.0
135847,-2.741939,-1.200727,0.342487,-0.08806,-0.6358090000000001,0.043794,0.0,4.0,48.0,164.0,23.0,0.0
135848,-2.725148,-1.230234,0.358621,-0.020069,-0.70691,0.116503,0.0,4.0,48.0,164.0,23.0,0.0
135849,-2.69691,-1.259493,0.381254,0.130446,-0.6549229999999999,0.180635,0.0,4.0,48.0,164.0,23.0,0.0
135850,-2.689241,-1.288235,0.383233,0.104008,0.035688,-0.013962,0.0,4.0,48.0,164.0,23.0,0.0
135851,-2.686759,-1.308276,0.390551,-0.119686,0.289953,-0.118327,0.0,4.0,48.0,164.0,23.0,0.0
135852,-2.660526,-1.31362,0.423786,0.213085,-0.186808,-0.31000300000000003,0.0,4.0,48.0,164.0,23.0,0.0
135853,-2.645572,-1.31457,0.4570520000000001,0.242861,-0.094306,-0.372382,0.0,4.0,48.0,164.0,23.0,0.0
135854,-2.708239,-1.305642,0.419521,0.203925,0.131017,-0.165769,0.0,4.0,48.0,164.0,23.0,0.0
135855,-2.806998,-1.293336,0.33737399999999995,-0.31154,0.6123430000000001,-0.4743310000000001,0.0,4.0,48.0,164.0,23.0,0.0
135856,-2.830094,-1.2927,0.319968,-0.173308,1.025084,0.553063,0.0,4.0,48.0,164.0,23.0,0.0
135857,-2.863983,-1.284085,0.284231,-0.377099,0.275806,0.047318,0.0,4.0,48.0,164.0,23.0,0.0
135858,-2.862532,-1.286237,0.280812,-0.374344,0.14845999999999998,0.238213,0.0,4.0,48.0,164.0,23.0,0.0
135859,-2.840852,-1.294992,0.297204,-0.460849,0.570753,0.127415,0.0,4.0,48.0,164.0,23.0,0.0
135860,-2.821356,-1.308514,0.31822399999999995,-0.482726,0.433262,-0.02131,0.0,4.0,48.0,164.0,23.0,0.0
135861,-2.804021,-1.323349,0.342131,-0.246213,0.150897,-0.040902,0.0,4.0,48.0,164.0,23.0,0.0
135862,-2.80476,-1.336388,0.352424,-0.118322,0.014882,-0.02817,0.0,4.0,48.0,164.0,23.0,0.0
135863,-2.818075,-1.347378,0.348593,-0.007203,-0.107317,0.059529,0.0,4.0,48.0,164.0,23.0,0.0
135864,-2.84588,-1.35761,0.325706,-0.062367,-0.258169,0.08608500000000001,0.0,4.0,48.0,164.0,23.0,0.0
135865,-2.889463,-1.368867,0.281858,-0.113587,-0.351737,0.054742999999999986,0.0,4.0,48.0,164.0,23.0,0.0
135866,-2.949013,-1.384601,0.222615,-0.183957,-0.577244,-0.077738,0.0,4.0,48.0,164.0,23.0,0.0
135867,-3.033604,-1.404477,0.140809,-0.217318,-0.642039,-0.023555,0.0,4.0,48.0,164.0,23.0,0.0
135868,-3.13924,-1.426671,0.039259,-0.264433,-0.5260699999999999,0.003994,0.0,4.0,48.0,164.0,23.0,0.0
135869,3.018134,-1.44758,-0.080707,-0.268541,-0.328768,0.07577300000000001,0.0,4.0,48.0,164.0,23.0,0.0
135870,2.878855,-1.464388,-0.210474,-0.331175,-0.100393,0.12223,0.0,4.0,48.0,164.0,23.0,0.0
135871,2.722665,-1.476682,-0.352856,-0.363418,0.013718,0.164035,0.0,4.0,48.0,164.0,23.0,0.0
135872,2.554723,-1.481638,-0.502344,-0.423396,-0.019511,0.16156099999999998,0.0,4.0,48.0,164.0,23.0,0.0
135873,2.422486,-1.477646,-0.61137,-0.411637,-0.238661,-0.222448,0.0,4.0,48.0,164.0,23.0,0.0
135874,2.398129,-1.465005,-0.606797,-0.537565,0.054129,-0.30903200000000003,0.0,4.0,48.0,164.0,23.0,0.0
135875,2.5467310000000003,-1.453503,-0.423151,-0.235902,0.965474,-0.215155,0.0,4.0,48.0,164.0,23.0,0.0
135876,2.844293,-1.4378,-0.090237,0.920563,0.893551,0.048579,0.0,4.0,48.0,164.0,23.0,0.0
135877,3.0620990000000003,-1.409239,0.137758,0.796299,0.80329,0.144739,0.0,4.0,48.0,164.0,23.0,0.0
135878,-3.077029,-1.377256,0.264914,-0.103501,0.8473450000000001,0.07636699999999999,0.0,4.0,48.0,164.0,23.0,0.0
135879,-2.95152,-1.342208,0.372691,-0.885925,0.561947,-0.103614,0.0,4.0,48.0,164.0,23.0,0.0
135880,-2.856659,-1.306347,0.479235,-0.559782,0.447285,-0.190946,0.0,4.0,48.0,164.0,23.0,0.0
135881,-2.807635,-1.27474,0.570238,-0.357265,0.497836,-0.185806,0.0,4.0,48.0,164.0,23.0,0.0
135882,-2.787387,-1.2488780000000002,0.652297,0.026806,0.41282,-0.031462000000000004,0.0,4.0,48.0,164.0,23.0,0.0
135883,-2.777498,-1.227729,0.729661,0.120366,0.128356,-0.009937,0.0,4.0,48.0,164.0,23.0,0.0
135884,-2.778495,-1.2099,0.7934979999999999,0.118947,-0.022403,-0.115393,0.0,4.0,48.0,164.0,23.0,0.0
135885,-2.797611,-1.194715,0.841443,-0.093697,-0.479549,-0.346292,0.0,4.0,48.0,164.0,23.0,0.0
135886,-2.83122,-1.188426,0.875692,-0.083398,-0.5759,-0.387238,0.0,4.0,48.0,164.0,23.0,0.0
135887,-2.869197,-1.190212,0.902701,0.069776,-0.5274770000000001,-0.374223,0.0,4.0,48.0,164.0,23.0,0.0
135888,-2.89786,-1.195459,0.93446,0.206606,-0.462214,-0.224013,0.0,4.0,48.0,164.0,23.0,0.0
135889,-2.910038,-1.203744,0.975601,0.257747,-0.381265,-0.069767,0.0,4.0,48.0,164.0,23.0,0.0
135890,-2.9152560000000003,-1.212387,1.016865,0.099019,-0.387369,0.084945,0.0,4.0,48.0,164.0,23.0,0.0
135891,-2.9220580000000003,-1.218517,1.046989,-0.049792,-0.38352,0.043427,0.0,4.0,48.0,164.0,23.0,0.0
135892,-2.927598,-1.224192,1.072036,-0.106273,-0.272364,0.0897,0.0,4.0,48.0,164.0,23.0,0.0
135893,-2.935023,-1.229272,1.098092,-0.237208,-0.066467,0.139525,0.0,4.0,48.0,164.0,23.0,0.0
135894,-2.94871,-1.223476,1.122334,-0.362038,0.139683,0.112462,0.0,4.0,48.0,164.0,23.0,0.0
135895,-2.956677,-1.207736,1.152549,-0.319934,0.040985,0.206211,0.0,4.0,48.0,164.0,23.0,0.0
135896,-2.956892,-1.198898,1.192271,-0.196332,-0.003416,0.233014,0.0,4.0,48.0,164.0,23.0,0.0
135897,-2.962442,-1.182884,1.223604,-0.154574,1.011555,0.156065,0.0,4.0,48.0,164.0,23.0,0.0
135898,-2.950737,-1.157509,1.256549,-0.483726,1.394161,-0.476095,0.0,4.0,48.0,164.0,23.0,0.0
135899,-2.899501,-1.155052,1.33319,-0.13208399999999998,0.00593,-0.207564,0.0,4.0,48.0,164.0,23.0,0.0
135900,-2.889447,-1.148819,1.378044,-0.289614,-0.332584,-0.655644,0.0,4.0,48.0,164.0,23.0,0.0
135901,-2.902606,-1.146288,1.400565,-0.29032800000000003,-0.062303,-0.826249,0.0,4.0,48.0,164.0,23.0,0.0
135902,-2.9350970000000003,-1.162852,1.4147379999999998,-0.095409,0.412842,-0.424942,0.0,4.0,48.0,164.0,23.0,0.0
135903,-2.974694,-1.185019,1.413202,0.14754,0.391945,-0.087505,0.0,4.0,48.0,164.0,23.0,0.0
135904,-2.993893,-1.2055129999999998,1.409736,0.140179,0.134428,-0.200851,0.0,4.0,48.0,164.0,23.0,0.0
135905,-3.001353,-1.23386,1.411951,-0.154387,0.098998,-0.149378,0.0,4.0,48.0,164.0,23.0,0.0
135906,-2.985093,-1.267682,1.434607,-0.241844,-0.003408,-0.070238,0.0,4.0,48.0,164.0,23.0,0.0
135907,-2.96526,-1.302236,1.460405,-0.196855,-0.178891,-0.209804,0.0,4.0,48.0,164.0,23.0,0.0
135908,-2.96076,-1.3363459999999998,1.477036,-0.155709,-0.240586,-0.227094,0.0,4.0,48.0,164.0,23.0,0.0
135909,-2.96626,-1.371848,1.487745,-0.085241,-0.227681,-0.154142,0.0,4.0,48.0,164.0,23.0,0.0
135910,-2.977357,-1.406918,1.495447,-0.087733,-0.198821,-0.08794199999999999,0.0,4.0,48.0,164.0,23.0,0.0
135911,-2.987937,-1.4402469999999998,1.503134,-0.057055,-0.085073,-0.055271,0.0,4.0,48.0,164.0,23.0,0.0
135912,-3.007302,-1.471769,1.49984,-0.044273,-0.08219800000000001,-0.010692,0.0,4.0,48.0,164.0,23.0,0.0
135913,-3.068168,-1.500517,1.452644,-0.049013,-0.119007,0.039355,0.0,4.0,48.0,164.0,23.0,0.0
135914,3.042475,-1.523735,1.291227,-0.01501,-0.128196,0.110143,0.0,4.0,48.0,164.0,23.0,0.0
135915,2.597701,-1.53867,0.85278,-0.076087,-0.054324,0.202387,0.0,4.0,48.0,164.0,23.0,0.0
135916,1.871779,-1.539221,0.128718,-0.192014,0.008555,0.174299,0.0,4.0,48.0,164.0,23.0,0.0
135917,1.411133,-1.528044,-0.329844,-0.294697,0.178175,0.192854,0.0,4.0,48.0,164.0,23.0,0.0
135918,1.210682,-1.51771,-0.5227729999999999,-0.297027,0.25908400000000004,0.172456,0.0,4.0,48.0,164.0,23.0,0.0
135919,1.132959,-1.513265,-0.588815,-0.390791,0.212867,0.128617,0.0,4.0,48.0,164.0,23.0,0.0
135920,1.160326,-1.5147389999999998,-0.547098,-0.523139,0.23001,0.06544,0.0,4.0,48.0,164.0,23.0,0.0
135921,1.280724,-1.521742,-0.406811,-0.595517,0.39372,-0.03605,0.0,4.0,48.0,164.0,23.0,0.0
135922,1.637545,-1.531496,-0.023462,-0.431435,0.429834,-0.067041,0.0,4.0,48.0,164.0,23.0,0.0
135923,2.461006,-1.528594,0.830491,0.017672999999999998,0.202505,-0.170295,0.0,4.0,48.0,164.0,23.0,0.0
135924,2.928611,-1.496684,1.330892,0.074925,0.1192,-0.183709,0.0,4.0,48.0,164.0,23.0,0.0
135925,3.0462700000000003,-1.454152,1.483957,-0.146886,0.150991,-0.285202,0.0,4.0,48.0,164.0,23.0,0.0
135926,3.103703,-1.415229,1.574969,-0.297157,0.203879,-0.29701,0.0,4.0,48.0,164.0,23.0,0.0
135927,-3.082866,-1.375859,1.6969880000000002,-0.109301,0.352177,-0.14965,0.0,4.0,48.0,164.0,23.0,0.0
135928,-3.004238,-1.334359,1.805125,0.08866,0.250203,-0.214767,0.0,4.0,48.0,164.0,23.0,0.0
135929,-2.958428,-1.300483,1.88282,0.107482,0.215146,-0.194355,0.0,4.0,48.0,164.0,23.0,0.0
135930,-2.924898,-1.273822,1.946375,-0.097449,0.07902100000000001,-0.098895,0.0,4.0,48.0,164.0,23.0,0.0
135931,-2.89348,-1.25121,2.0125490000000004,-0.167364,0.015097,-0.106894,0.0,4.0,48.0,164.0,23.0,0.0
135932,-2.870235,-1.231688,2.080687,-0.199072,-0.164502,-0.125443,0.0,4.0,48.0,164.0,23.0,0.0
135933,-2.8668720000000003,-1.216278,2.1351720000000003,-0.16714600000000002,-0.184625,-0.162849,0.0,4.0,48.0,164.0,23.0,0.0
135934,-2.879328,-1.20568,2.177151,-0.039837,-0.214935,-0.170388,0.0,4.0,48.0,164.0,23.0,0.0
135935,-2.892154,-1.1995790000000002,2.219039,0.021637,-0.251802,-0.190811,0.0,4.0,48.0,164.0,23.0,0.0
135936,-2.895315,-1.195999,2.267444,0.190009,-0.390726,-0.19756,0.0,4.0,48.0,164.0,23.0,0.0
135937,-2.890167,-1.194913,2.315958,0.320871,-0.483315,-0.14735399999999998,0.0,4.0,48.0,164.0,23.0,0.0
135938,-2.884594,-1.196609,2.355059,0.31334,-0.465869,-0.079243,0.0,4.0,48.0,164.0,23.0,0.0
135939,-2.885473,-1.20107,2.378503,0.217082,-0.301872,0.07489,0.0,4.0,48.0,164.0,23.0,0.0
135940,-2.890531,-1.208017,2.389228,-0.119185,-0.106835,0.225368,0.0,4.0,48.0,164.0,23.0,0.0
135941,-2.897713,-1.214143,2.393205,-0.24340100000000006,-0.075666,0.18737,0.0,4.0,48.0,164.0,23.0,0.0
135942,-2.901157,-1.216037,2.400255,-0.312252,-0.049287,0.148478,0.0,4.0,48.0,164.0,23.0,0.0
135943,-2.9082630000000003,-1.215463,2.4109990000000003,-0.378064,0.024643,0.150746,0.0,4.0,48.0,164.0,23.0,0.0
135944,-2.916058,-1.208119,2.4264900000000003,-0.393083,0.119768,0.18008,0.0,4.0,48.0,164.0,23.0,0.0
135945,-2.893553,-1.200018,2.4706360000000003,-0.584149,0.15750799999999998,0.366621,0.0,4.0,48.0,164.0,23.0,0.0
135946,-2.845153,-1.193623,2.543867,-0.656373,-0.028525,0.338831,0.0,4.0,48.0,164.0,23.0,0.0
135947,-2.792117,-1.184756,2.628524,-0.435192,0.421371,-0.030316000000000006,0.0,4.0,48.0,164.0,23.0,0.0
135948,-2.747457,-1.175835,2.708293,-0.162881,0.934273,-0.323331,0.0,4.0,48.0,164.0,23.0,0.0
135949,-2.6947650000000003,-1.1789,2.801852,0.150527,0.507454,-0.6044039999999999,0.0,4.0,48.0,164.0,23.0,0.0
135950,-2.675733,-1.181165,2.873319,0.264539,-0.37291,-0.264566,0.0,4.0,48.0,164.0,23.0,0.0
135951,-2.706355,-1.180568,2.882506,0.379761,-0.363405,-0.211217,0.0,4.0,48.0,164.0,23.0,0.0
135952,-2.755049,-1.18529,2.855279,0.131428,-0.16078499999999998,-0.429224,0.0,4.0,48.0,164.0,23.0,0.0
135953,-2.772427,-1.203778,2.846398,-0.103277,0.269464,-0.40243,0.0,4.0,48.0,164.0,23.0,0.0
135954,-2.772263,-1.230472,2.855986,-0.069461,0.4411270000000001,-0.180263,0.0,4.0,48.0,164.0,23.0,0.0
135955,-2.767707,-1.256202,2.873467,-0.131127,0.137259,-0.134324,0.0,4.0,48.0,164.0,23.0,0.0
135956,-2.732947,-1.27864,2.918184,-0.110745,-0.145323,-0.193531,0.0,4.0,48.0,164.0,23.0,0.0
135957,-2.687897,-1.304762,2.974602,0.02469,-0.226815,-0.134652,0.0,4.0,48.0,164.0,23.0,0.0
135958,-2.6526560000000003,-1.333852,3.02297,-0.013129,-0.201521,-0.12394,0.0,4.0,48.0,164.0,23.0,0.0
135959,-2.618235,-1.361257,3.069167,-0.095689,-0.104637,-0.112343,0.0,4.0,48.0,164.0,23.0,0.0
135960,-2.573092,-1.386096,3.1260790000000003,-0.051956,-0.1023,-0.074744,0.0,4.0,48.0,164.0,23.0,0.0
135961,-2.521614,-1.4093639999999998,-3.091267,-0.066909,-0.184783,-0.044781,0.0,4.0,48.0,164.0,23.0,0.0
135962,-2.469131,-1.431838,-3.024683,-0.042946,-0.15054800000000002,0.032527999999999994,0.0,4.0,48.0,164.0,23.0,0.0
135963,-2.391629,-1.453691,-2.936543,0.01352,-0.134981,0.123653,0.0,4.0,48.0,164.0,23.0,0.0
135964,-2.285132,-1.473888,-2.825043,-0.030975,-0.081947,0.11831300000000003,0.0,4.0,48.0,164.0,23.0,0.0
135965,-2.144644,-1.4904389999999998,-2.6819580000000003,-0.323075,-0.06140900000000001,0.07423400000000001,0.0,4.0,48.0,164.0,23.0,0.0
135966,-1.976397,-1.501878,-2.505555,-0.390494,0.11593,0.055407000000000005,0.0,4.0,48.0,164.0,23.0,0.0
135967,-1.831072,-1.505756,-2.342236,-0.195504,0.239999,0.060870000000000014,0.0,4.0,48.0,164.0,23.0,0.0
135968,-1.764513,-1.501561,-2.249953,-0.085523,0.241379,0.069237,0.0,4.0,48.0,164.0,23.0,0.0
135969,-1.792843,-1.4922,-2.251094,-0.060776,0.175405,-0.017271,0.0,4.0,48.0,164.0,23.0,0.0
135970,-1.902507,-1.479961,-2.335685,-0.152343,0.269427,-0.164017,0.0,4.0,48.0,164.0,23.0,0.0
135971,-2.055172,-1.462208,-2.463628,0.047205,0.436905,-0.082912,0.0,4.0,48.0,164.0,23.0,0.0
135972,-2.237685,-1.432714,-2.621071,0.230026,0.343213,-0.084377,0.0,4.0,48.0,164.0,23.0,0.0
135973,-2.417016,-1.394837,-2.779058,0.30709200000000003,0.194152,-0.122167,0.0,4.0,48.0,164.0,23.0,0.0
135974,-2.558935,-1.356642,-2.903507,0.199893,0.036164,-0.1501,0.0,4.0,48.0,164.0,23.0,0.0
135975,-2.650152,-1.322548,-2.988725,-0.092364,0.15809700000000002,-0.140157,0.0,4.0,48.0,164.0,23.0,0.0
135976,-2.68987,-1.288271,-3.033167,-0.284079,0.372638,-0.053044000000000015,0.0,4.0,48.0,164.0,23.0,0.0
135977,-2.698519,-1.251409,-3.044269,-0.193521,0.274266,-0.126546,0.0,4.0,48.0,164.0,23.0,0.0
135978,-2.7013830000000003,-1.216884,-3.037903,-0.0088,0.052516,-0.213449,0.0,4.0,48.0,164.0,23.0,0.0
135979,-2.705747,-1.19028,-3.022558,0.105111,-0.166678,-0.216184,0.0,4.0,48.0,164.0,23.0,0.0
135980,-2.707414,-1.171767,-3.00279,0.102247,-0.360114,-0.198168,0.0,4.0,48.0,164.0,23.0,0.0
135981,-2.708438,-1.159645,-2.985636,0.10368,-0.407369,-0.22679,0.0,4.0,48.0,164.0,23.0,0.0
135982,-2.707244,-1.153031,-2.967765,0.116411,-0.374706,-0.180919,0.0,4.0,48.0,164.0,23.0,0.0
135983,-2.7008970000000003,-1.1518540000000002,-2.947457,0.122498,-0.362616,-0.14447100000000002,0.0,4.0,48.0,164.0,23.0,0.0
135984,-2.688193,-1.155475,-2.923162,0.121877,-0.409158,-0.107446,0.0,4.0,48.0,164.0,23.0,0.0
135985,-2.668588,-1.161626,-2.896009,0.211362,-0.475908,-0.087024,0.0,4.0,48.0,164.0,23.0,0.0
135986,-2.647568,-1.168698,-2.8723,0.171037,-0.591629,-0.139549,0.0,4.0,48.0,164.0,23.0,0.0
135987,-2.634186,-1.180411,-2.856693,0.104935,-0.572071,-0.07470399999999999,0.0,4.0,48.0,164.0,23.0,0.0
135988,-2.622285,-1.196929,-2.842889,-0.109559,-0.281111,0.125719,0.0,4.0,48.0,164.0,23.0,0.0
135989,-2.604469,-1.215903,-2.820757,-0.145695,-0.076386,0.209248,0.0,4.0,48.0,164.0,23.0,0.0
135990,-2.583472,-1.23489,-2.79108,-0.157397,-0.028569,0.241797,0.0,4.0,48.0,164.0,23.0,0.0
135991,-2.56914,-1.252757,-2.762372,-0.13756600000000002,-0.15729400000000002,-0.098901,0.0,4.0,48.0,164.0,23.0,0.0
135992,-2.560891,-1.272114,-2.734254,-0.080049,-0.101401,-0.323558,0.0,4.0,48.0,164.0,23.0,0.0
135993,-2.537059,-1.293336,-2.68742,0.01172,-0.130211,-0.376141,0.0,4.0,48.0,164.0,23.0,0.0
135994,-2.490166,-1.311729,-2.619305,0.093892,-0.700745,-0.245239,0.0,4.0,48.0,164.0,23.0,0.0
135995,-2.459244,-1.321115,-2.567745,0.387002,-0.780881,-0.250592,0.0,4.0,48.0,164.0,23.0,0.0
135996,-2.490784,-1.306704,-2.57404,0.20515100000000006,-0.54492,-0.183982,0.0,4.0,48.0,164.0,23.0,0.0
135997,-2.537456,-1.27125,-2.598105,0.12947999999999998,0.347035,-0.067459,0.0,4.0,48.0,164.0,23.0,0.0
135998,-2.582061,-1.232073,-2.621137,-0.007063,1.469692,0.020705,0.0,4.0,48.0,164.0,23.0,0.0
135999,-2.602625,-1.216132,-2.630118,-0.335227,1.005749,0.239881,0.0,4.0,48.0,164.0,23.0,0.0
136000,-2.614867,-1.20561,-2.649342,-0.013595,-0.33898,-0.360269,0.0,4.0,48.0,164.0,23.0,0.0
136001,-2.631349,-1.204351,-2.66808,-0.155797,-0.000272,0.24083,0.0,4.0,48.0,164.0,23.0,0.0
136002,-2.661134,-1.20089,-2.689685,-0.410533,0.655011,0.376555,0.0,4.0,48.0,164.0,23.0,0.0
136003,-2.665891,-1.19583,-2.6886490000000003,-0.406102,0.5642010000000001,0.254019,0.0,4.0,48.0,164.0,23.0,0.0
136004,-2.654872,-1.192337,-2.673166,-0.270895,0.184809,0.271938,0.0,4.0,48.0,164.0,23.0,0.0
136005,-2.648917,-1.187643,-2.666624,-0.141434,-0.119065,0.038618,0.0,4.0,48.0,164.0,23.0,0.0
136006,-2.657324,-1.180782,-2.673895,-0.068313,-0.143699,-0.111929,0.0,4.0,48.0,164.0,23.0,0.0
136007,-2.669554,-1.170591,-2.682763,0.110562,-0.207434,-0.208094,0.0,4.0,48.0,164.0,23.0,0.0
136008,-2.69108,-1.1493520000000002,-2.703272,0.242133,-0.087288,-0.392031,0.0,4.0,48.0,164.0,23.0,0.0
136009,-2.71381,-1.117504,-2.724371,0.199987,0.032905000000000004,-0.290186,0.0,4.0,48.0,164.0,23.0,0.0
136010,-2.7213380000000003,-1.079915,-2.734464,0.202218,-0.010916,-0.307077,0.0,4.0,48.0,164.0,23.0,0.0
136011,-2.715997,-1.0515450000000002,-2.73443,0.160306,-0.09306,-0.398099,0.0,4.0,48.0,164.0,23.0,0.0
136012,-2.714278,-1.031927,-2.737581,0.063105,-0.028608,-0.314573,0.0,4.0,48.0,164.0,23.0,0.0
136013,-2.713237,-1.012692,-2.74247,0.037313,0.398474,0.166292,0.0,4.0,48.0,164.0,23.0,0.0
136014,-2.693602,-1.0009370000000002,-2.735084,0.184806,0.4174229999999999,0.30145900000000003,0.0,4.0,48.0,164.0,23.0,0.0
136015,-2.6610240000000003,-1.005113,-2.722427,0.113321,0.07710299999999999,0.086865,0.0,4.0,48.0,164.0,23.0,0.0
136016,-2.637204,-1.025418,-2.713454,-0.04693,-0.11893900000000003,0.103229,0.0,4.0,48.0,164.0,23.0,0.0
136017,-2.6261490000000003,-1.053757,-2.708622,-0.159804,-0.065545,0.163724,0.0,4.0,48.0,164.0,23.0,0.0
136018,-2.620997,-1.082921,-2.704384,-0.15584,0.111054,0.367732,0.0,4.0,48.0,164.0,23.0,0.0
136019,-2.606078,-1.107319,-2.6924900000000003,-0.132746,0.08417999999999999,0.350404,0.0,4.0,48.0,164.0,23.0,0.0
136020,-2.581337,-1.130301,-2.675344,-0.056883,-0.066451,0.14353,0.0,4.0,48.0,164.0,23.0,0.0
136021,-2.556031,-1.154943,-2.655719,-0.012386,-0.141243,0.008454000000000001,0.0,4.0,48.0,164.0,23.0,0.0
136022,-2.517534,-1.185642,-2.619047,0.031661,0.074572,-0.025664,0.0,4.0,48.0,164.0,23.0,0.0
136023,-2.455936,-1.215595,-2.559565,0.118892,0.103424,-0.012084,0.0,4.0,48.0,164.0,23.0,0.0
136024,-2.379014,-1.23776,-2.486207,0.127135,-0.245667,-0.163958,0.0,4.0,48.0,164.0,23.0,0.0
136025,-2.318105,-1.254832,-2.427523,0.10407,-0.445294,-0.283261,0.0,4.0,48.0,164.0,23.0,0.0
136026,-2.271844,-1.271192,-2.377043,0.104544,-0.59675,-0.328509,0.0,4.0,48.0,164.0,23.0,0.0
136027,-2.230448,-1.285181,-2.325612,0.162617,-0.766328,-0.245466,0.0,4.0,48.0,164.0,23.0,0.0
136028,-2.218681,-1.295575,-2.296504,0.132116,-0.688775,-0.171956,0.0,4.0,48.0,164.0,23.0,0.0
136029,-2.239831,-1.299906,-2.297437,0.124595,-0.135957,-0.050058,0.0,4.0,48.0,164.0,23.0,0.0
136030,-2.294066,-1.290259,-2.332881,0.162442,0.715302,-0.122023,0.0,4.0,48.0,164.0,23.0,0.0
136031,-2.331718,-1.27656,-2.355791,0.133297,1.013618,-0.17393599999999998,0.0,4.0,48.0,164.0,23.0,0.0
136032,-2.320639,-1.269256,-2.344472,0.035186,0.004928,0.019399,0.0,4.0,48.0,164.0,23.0,0.0
136033,-2.324824,-1.2632139999999998,-2.35053,-0.059956,0.386562,0.253589,0.0,4.0,48.0,164.0,23.0,0.0
136034,-2.369159,-1.254065,-2.397998,-0.633547,0.539579,-0.061357,0.0,4.0,48.0,164.0,23.0,0.0
136035,-2.381101,-1.247835,-2.409354,-0.204521,-0.180355,0.229371,0.0,4.0,48.0,164.0,23.0,0.0
136036,-2.400817,-1.242384,-2.41796,0.025621,0.018853,0.262384,0.0,4.0,48.0,164.0,23.0,0.0
136037,-2.421039,-1.240634,-2.429404,-0.067789,0.355158,0.30503600000000003,0.0,4.0,48.0,164.0,23.0,0.0
136038,-2.422169,-1.241867,-2.432375,-0.084138,0.306678,0.250483,0.0,4.0,48.0,164.0,23.0,0.0
136039,-2.410656,-1.243057,-2.431506,-0.048401,-0.214656,0.223606,0.0,4.0,48.0,164.0,23.0,0.0
136040,-2.41406,-1.2407860000000002,-2.449237,-0.189222,-0.058405,-0.035703,0.0,4.0,48.0,164.0,23.0,0.0
136041,-2.430843,-1.234079,-2.472931,-0.20817600000000006,-0.04118,-0.15396700000000002,0.0,4.0,48.0,164.0,23.0,0.0
136042,-2.46248,-1.220525,-2.500854,0.041127,-0.15336,-0.375454,0.0,4.0,48.0,164.0,23.0,0.0
136043,-2.518648,-1.199713,-2.542118,0.297644,-0.188985,-0.348885,0.0,4.0,48.0,164.0,23.0,0.0
136044,-2.586747,-1.166242,-2.595889,0.311368,0.031146,-0.249699,0.0,4.0,48.0,164.0,23.0,0.0
136045,-2.643606,-1.123595,-2.641902,0.031826,0.043438,-0.183595,0.0,4.0,48.0,164.0,23.0,0.0
136046,-2.667187,-1.08743,-2.659728,0.056223,0.052965,-0.062402,0.0,4.0,48.0,164.0,23.0,0.0
136047,-2.66618,-1.060202,-2.6631560000000003,0.327283,0.275937,-0.007662,0.0,4.0,48.0,164.0,23.0,0.0
136048,-2.659179,-1.034918,-2.6704950000000003,0.362666,0.367566,-0.01792,0.0,4.0,48.0,164.0,23.0,0.0
136049,-2.655813,-1.020964,-2.680573,0.15498399999999998,0.359683,0.14588199999999998,0.0,4.0,48.0,164.0,23.0,0.0
136050,-2.644185,-1.024429,-2.68653,0.001198,0.134214,0.07652,0.0,4.0,48.0,164.0,23.0,0.0
136051,-2.61961,-1.041865,-2.6809830000000003,0.054529,-0.014042,0.005078,0.0,4.0,48.0,164.0,23.0,0.0
136052,-2.593563,-1.068381,-2.671132,0.032148,-0.086841,0.054784000000000006,0.0,4.0,48.0,164.0,23.0,0.0
136053,-2.568311,-1.099043,-2.660867,-0.011635,-0.22993,0.196227,0.0,4.0,48.0,164.0,23.0,0.0
136054,-2.546107,-1.132206,-2.648347,-0.049957,-0.281709,0.328016,0.0,4.0,48.0,164.0,23.0,0.0
136055,-2.525721,-1.1633870000000002,-2.634528,-0.118255,-0.390822,0.231488,0.0,4.0,48.0,164.0,23.0,0.0
136056,-2.502002,-1.188101,-2.613579,-0.05737100000000001,-0.6030770000000001,0.037049,0.0,4.0,48.0,164.0,23.0,0.0
136057,-2.470272,-1.209767,-2.581767,0.013943,-0.6450670000000001,-0.029769,0.0,4.0,48.0,164.0,23.0,0.0
136058,-2.434832,-1.233801,-2.5407900000000003,0.071253,-0.335277,-0.078761,0.0,4.0,48.0,164.0,23.0,0.0
136059,-2.391604,-1.25924,-2.4866650000000003,-0.025387,0.25253400000000004,0.054201,0.0,4.0,48.0,164.0,23.0,0.0
136060,-2.34253,-1.270492,-2.429092,0.116725,0.283599,-0.087359,0.0,4.0,48.0,164.0,23.0,0.0
136061,-2.309816,-1.266167,-2.390803,0.308035,0.104117,-0.16459400000000002,0.0,4.0,48.0,164.0,23.0,0.0
136062,-2.292859,-1.263752,-2.3679650000000003,0.228364,0.193101,-0.260733,0.0,4.0,48.0,164.0,23.0,0.0
136063,-2.337267,-1.262943,-2.402438,0.184642,0.350938,-0.07054500000000001,0.0,4.0,48.0,164.0,23.0,0.0
136064,-2.397624,-1.265403,-2.45465,-0.036883,0.466651,-0.292508,0.0,4.0,48.0,164.0,23.0,0.0
136065,-2.408804,-1.2665030000000002,-2.4693110000000003,-0.023835,0.244259,0.045732,0.0,4.0,48.0,164.0,23.0,0.0
136066,-2.404415,-1.264071,-2.470149,0.00026000000000000003,0.312374,0.18865,0.0,4.0,48.0,164.0,23.0,0.0
136067,-2.404154,-1.257773,-2.480082,-0.264264,0.602441,0.186581,0.0,4.0,48.0,164.0,23.0,0.0
136068,-2.380002,-1.253957,-2.468451,-0.208892,-0.13935799999999998,0.025187,0.0,4.0,48.0,164.0,23.0,0.0
136069,-2.368771,-1.253241,-2.45503,-0.083173,-0.236699,-0.085359,0.0,4.0,48.0,164.0,23.0,0.0
136070,-2.3661380000000003,-1.259918,-2.438797,-0.041056,-0.08438999999999999,-0.076129,0.0,4.0,48.0,164.0,23.0,0.0
136071,-2.357122,-1.268378,-2.414747,0.071508,-0.145156,-0.017776,0.0,4.0,48.0,164.0,23.0,0.0
136072,-2.345294,-1.274913,-2.393791,0.166796,-0.225481,0.030905,0.0,4.0,48.0,164.0,23.0,0.0
136073,-2.336755,-1.279059,-2.381696,0.185139,-0.260373,0.091152,0.0,4.0,48.0,164.0,23.0,0.0
136074,-2.337372,-1.280873,-2.383789,0.083346,-0.179152,0.11666,0.0,4.0,48.0,164.0,23.0,0.0
136075,-2.345056,-1.277706,-2.398901,0.033477999999999994,-0.075459,0.029696,0.0,4.0,48.0,164.0,23.0,0.0
136076,-2.362589,-1.270785,-2.4228490000000003,-0.044056,-0.17329,0.018771,0.0,4.0,48.0,164.0,23.0,0.0
136077,-2.394849,-1.263168,-2.459823,-0.08304199999999999,-0.328207,-0.028337,0.0,4.0,48.0,164.0,23.0,0.0
136078,-2.433435,-1.256111,-2.50017,-0.120569,-0.330777,-0.00032900000000000003,0.0,4.0,48.0,164.0,23.0,0.0
136079,-2.475912,-1.246336,-2.542661,-0.073288,-0.220025,-0.17638,0.0,4.0,48.0,164.0,23.0,0.0
136080,-2.526492,-1.230093,-2.588614,0.042519,0.044632,-0.354802,0.0,4.0,48.0,164.0,23.0,0.0
136081,-2.588274,-1.20302,-2.639402,0.065443,0.383949,-0.32760900000000004,0.0,4.0,48.0,164.0,23.0,0.0
136082,-2.63934,-1.16218,-2.681726,0.032582,0.57357,0.042579,0.0,4.0,48.0,164.0,23.0,0.0
136083,-2.668086,-1.118306,-2.70666,0.096781,0.361976,0.20081,0.0,4.0,48.0,164.0,23.0,0.0
136084,-2.665549,-1.086685,-2.713882,0.093013,0.34072600000000003,0.27809,0.0,4.0,48.0,164.0,23.0,0.0
136085,-2.641573,-1.062884,-2.710941,0.193563,0.576952,0.176511,0.0,4.0,48.0,164.0,23.0,0.0
136086,-2.627316,-1.042408,-2.712377,0.075669,0.479748,0.09571,0.0,4.0,48.0,164.0,23.0,0.0
136087,-2.632912,-1.0366540000000002,-2.724501,-0.083692,-0.105212,-0.077819,0.0,4.0,48.0,164.0,23.0,0.0
136088,-2.630659,-1.043919,-2.726725,-0.004579,-0.12959500000000002,-0.060517,0.0,4.0,48.0,164.0,23.0,0.0
136089,-2.61387,-1.058936,-2.715412,0.061812,-0.133721,-0.019231,0.0,4.0,48.0,164.0,23.0,0.0
136090,-2.59283,-1.076744,-2.699977,0.186026,-0.138399,0.090748,0.0,4.0,48.0,164.0,23.0,0.0
136091,-2.5739970000000003,-1.097326,-2.685068,0.162945,-0.25569899999999995,0.060977,0.0,4.0,48.0,164.0,23.0,0.0
136092,-2.551575,-1.1220139999999998,-2.667716,0.102866,-0.33872,0.050868,0.0,4.0,48.0,164.0,23.0,0.0
136093,-2.526292,-1.150715,-2.645121,-0.061802,-0.626999,0.000785,0.0,4.0,48.0,164.0,23.0,0.0
136094,-2.501259,-1.178898,-2.618493,-0.100932,-0.682975,0.018815,0.0,4.0,48.0,164.0,23.0,0.0
136095,-2.4726220000000003,-1.201654,-2.587758,-0.019713,-0.668431,0.014094999999999996,0.0,4.0,48.0,164.0,23.0,0.0
136096,-2.441953,-1.221076,-2.554191,0.069116,-0.499192,0.074414,0.0,4.0,48.0,164.0,23.0,0.0
136097,-2.421812,-1.239983,-2.527946,0.063912,0.002723,0.077878,0.0,4.0,48.0,164.0,23.0,0.0
136098,-2.407362,-1.253864,-2.503223,0.013022999999999998,0.263137,0.161125,0.0,4.0,48.0,164.0,23.0,0.0
136099,-2.392461,-1.251277,-2.482437,0.367622,0.373825,0.025423,0.0,4.0,48.0,164.0,23.0,0.0
136100,-2.385893,-1.242171,-2.474993,0.273074,0.69571,-0.105259,0.0,4.0,48.0,164.0,23.0,0.0
136101,-2.412704,-1.235245,-2.504227,-0.189801,0.284317,-0.594126,0.0,4.0,48.0,164.0,23.0,0.0
136102,-2.428106,-1.236391,-2.518946,-0.27731100000000003,0.21150700000000006,-0.350988,0.0,4.0,48.0,164.0,23.0,0.0
136103,-2.4397450000000003,-1.237702,-2.526545,-0.133552,0.479602,0.036788,0.0,4.0,48.0,164.0,23.0,0.0
136104,-2.463092,-1.241327,-2.538896,0.057278,0.173216,-0.146784,0.0,4.0,48.0,164.0,23.0,0.0
136105,-2.470349,-1.247884,-2.540743,0.309745,0.408084,0.214035,0.0,4.0,48.0,164.0,23.0,0.0
136106,-2.465026,-1.2559790000000002,-2.548624,-0.15171099999999998,0.521452,0.16914300000000002,0.0,4.0,48.0,164.0,23.0,0.0
136107,-2.428588,-1.261959,-2.533895,-0.230357,-0.041662,0.009696,0.0,4.0,48.0,164.0,23.0,0.0
136108,-2.398795,-1.26796,-2.516588,-0.177252,-0.114712,-0.060189,0.0,4.0,48.0,164.0,23.0,0.0
136109,-2.374059,-1.278631,-2.492469,-0.074154,-0.185146,-0.055237,0.0,4.0,48.0,164.0,23.0,0.0
136110,-2.36019,-1.288231,-2.47553,0.032034,-0.17067000000000002,0.03536,0.0,4.0,48.0,164.0,23.0,0.0
136111,-2.351921,-1.295974,-2.465616,0.05807,-0.177516,0.135022,0.0,4.0,48.0,164.0,23.0,0.0
136112,-2.345971,-1.301751,-2.461,0.071112,-0.36434,0.111747,0.0,4.0,48.0,164.0,23.0,0.0
136113,-2.344807,-1.307075,-2.46078,0.044416,-0.45354,0.072513,0.0,4.0,48.0,164.0,23.0,0.0
136114,-2.346205,-1.310439,-2.463658,0.006256,-0.406499,-0.048214,0.0,4.0,48.0,164.0,23.0,0.0
136115,-2.352755,-1.311542,-2.470751,-0.09084,-0.312071,0.021973,0.0,4.0,48.0,164.0,23.0,0.0
136116,-2.3717740000000003,-1.30925,-2.487777,-0.205803,-0.126132,0.145648,0.0,4.0,48.0,164.0,23.0,0.0
136117,-2.399454,-1.302691,-2.511502,-0.237018,-0.056789,0.13717200000000002,0.0,4.0,48.0,164.0,23.0,0.0
136118,-2.43889,-1.293035,-2.543556,-0.13650199999999998,-0.127825,-0.019942,0.0,4.0,48.0,164.0,23.0,0.0
136119,-2.492826,-1.280771,-2.587691,-0.099358,-0.082611,-0.35130100000000003,0.0,4.0,48.0,164.0,23.0,0.0
136120,-2.554735,-1.258917,-2.632272,0.112175,0.017083,-0.306683,0.0,4.0,48.0,164.0,23.0,0.0
136121,-2.611921,-1.223617,-2.669201,0.181129,0.25863800000000003,0.013933,0.0,4.0,48.0,164.0,23.0,0.0
136122,-2.648057,-1.175762,-2.695121,0.262202,0.293783,0.121334,0.0,4.0,48.0,164.0,23.0,0.0
136123,-2.653988,-1.134608,-2.699763,0.21545100000000006,0.153583,0.135397,0.0,4.0,48.0,164.0,23.0,0.0
136124,-2.639945,-1.108793,-2.699479,0.06350499999999999,0.248576,0.103982,0.0,4.0,48.0,164.0,23.0,0.0
136125,-2.62991,-1.083605,-2.703317,-0.119306,0.566224,0.120156,0.0,4.0,48.0,164.0,23.0,0.0
136126,-2.634425,-1.063871,-2.710914,-0.17367,0.203777,0.249959,0.0,4.0,48.0,164.0,23.0,0.0
136127,-2.62944,-1.058499,-2.708426,-0.018685,0.194709,0.205471,0.0,4.0,48.0,164.0,23.0,0.0
136128,-2.614373,-1.065331,-2.697702,0.161831,0.213735,0.180435,0.0,4.0,48.0,164.0,23.0,0.0
136129,-2.6000970000000003,-1.081202,-2.685441,-0.038185,0.197585,0.280289,0.0,4.0,48.0,164.0,23.0,0.0
136130,-2.588924,-1.104436,-2.6742630000000003,-0.070896,0.171548,0.27104,0.0,4.0,48.0,164.0,23.0,0.0
136131,-2.5697,-1.134015,-2.65766,-0.072541,0.001551,0.319909,0.0,4.0,48.0,164.0,23.0,0.0
136132,-2.544475,-1.165336,-2.638176,0.008953000000000001,-0.426993,-0.008962999999999999,0.0,4.0,48.0,164.0,23.0,0.0
136133,-2.515878,-1.197381,-2.613051,0.060623,-0.618251,-0.171345,0.0,4.0,48.0,164.0,23.0,0.0
136134,-2.484745,-1.230466,-2.577641,0.10113,-0.787112,-0.259857,0.0,4.0,48.0,164.0,23.0,0.0
136135,-2.4579470000000003,-1.264616,-2.535047,-0.094202,-0.908448,-0.213554,0.0,4.0,48.0,164.0,23.0,0.0
136136,-2.431151,-1.298162,-2.486571,-0.179171,-0.8395600000000001,-0.055058,0.0,4.0,48.0,164.0,23.0,0.0
136137,-2.395351,-1.318605,-2.432901,-0.205618,-0.7878109999999999,0.031926,0.0,4.0,48.0,164.0,23.0,0.0
136138,-2.359461,-1.315197,-2.382261,0.261514,-0.773771,-0.222108,0.0,4.0,48.0,164.0,23.0,0.0
136139,-2.34882,-1.295562,-2.353182,0.6486149999999999,-0.5640609999999999,-0.164733,0.0,4.0,48.0,164.0,23.0,0.0
136140,-2.398606,-1.273412,-2.385761,0.657824,-0.234426,0.191386,0.0,4.0,48.0,164.0,23.0,0.0
136141,-2.41074,-1.266201,-2.386935,-0.391222,1.074276,0.441925,0.0,4.0,48.0,164.0,23.0,0.0
136142,-2.435674,-1.250873,-2.417755,-0.26047800000000004,1.063268,0.143493,0.0,4.0,48.0,164.0,23.0,0.0
136143,-2.460204,-1.242122,-2.442202,0.05833500000000001,0.196473,0.217888,0.0,4.0,48.0,164.0,23.0,0.0
136144,-2.497118,-1.237434,-2.48117,-0.049847,0.393569,0.277325,0.0,4.0,48.0,164.0,23.0,0.0
136145,-2.521999,-1.23766,-2.511109,-0.5282789999999999,0.333863,0.325379,0.0,4.0,48.0,164.0,23.0,0.0
136146,-2.518154,-1.23769,-2.507604,-0.455008,0.119483,0.176735,0.0,4.0,48.0,164.0,23.0,0.0
136147,-2.52427,-1.235731,-2.503358,-0.307446,0.071511,0.193289,0.0,4.0,48.0,164.0,23.0,0.0
136148,-2.532119,-1.231466,-2.500744,-0.210145,0.050141000000000005,0.12283,0.0,4.0,48.0,164.0,23.0,0.0
136149,-2.551013,-1.220708,-2.510689,0.092581,-0.013729,-0.128101,0.0,4.0,48.0,164.0,23.0,0.0
136150,-2.594155,-1.198451,-2.548573,0.177307,0.003353,-0.201673,0.0,4.0,48.0,164.0,23.0,0.0
136151,-2.643312,-1.165632,-2.599256,0.3564,0.216567,-0.095799,0.0,4.0,48.0,164.0,23.0,0.0
136152,-2.666788,-1.127724,-2.632801,0.310521,0.141529,-0.284877,0.0,4.0,48.0,164.0,23.0,0.0
136153,-2.662926,-1.097347,-2.63915,0.24115100000000006,0.074919,-0.331279,0.0,4.0,48.0,164.0,23.0,0.0
136154,-2.654891,-1.075468,-2.637328,0.022601,0.22886,-0.050001,0.0,4.0,48.0,164.0,23.0,0.0
136155,-2.658084,-1.055248,-2.644606,-0.152676,0.257511,0.145968,0.0,4.0,48.0,164.0,23.0,0.0
136156,-2.665408,-1.049014,-2.653491,-0.250244,0.016216,0.152581,0.0,4.0,48.0,164.0,23.0,0.0
136157,-2.66271,-1.056295,-2.651687,-0.007746999999999999,0.16686099999999998,0.15040499999999998,0.0,4.0,48.0,164.0,23.0,0.0
136158,-2.653514,-1.070207,-2.638887,0.102969,0.426579,0.457804,0.0,4.0,48.0,164.0,23.0,0.0
136159,-2.641159,-1.089587,-2.623353,0.127225,0.352456,0.468303,0.0,4.0,48.0,164.0,23.0,0.0
136160,-2.626441,-1.116526,-2.610864,-0.043999,0.079828,0.297014,0.0,4.0,48.0,164.0,23.0,0.0
136161,-2.60625,-1.149629,-2.5964,-0.157342,-0.177459,0.106785,0.0,4.0,48.0,164.0,23.0,0.0
136162,-2.578776,-1.184723,-2.573714,-0.175664,-0.27521100000000004,0.000478,0.0,4.0,48.0,164.0,23.0,0.0
136163,-2.544132,-1.2197129999999998,-2.537332,-0.048779,-0.451909,-0.259515,0.0,4.0,48.0,164.0,23.0,0.0
136164,-2.514749,-1.253343,-2.495084,0.07535900000000001,-0.575781,-0.405652,0.0,4.0,48.0,164.0,23.0,0.0
136165,-2.496514,-1.288658,-2.451915,0.056292,-0.599104,-0.416554,0.0,4.0,48.0,164.0,23.0,0.0
136166,-2.478164,-1.321935,-2.402612,-0.142583,-0.921647,-0.003271,0.0,4.0,48.0,164.0,23.0,0.0
136167,-2.438876,-1.34144,-2.344357,-0.08565299999999999,-1.080853,-0.079961,0.0,4.0,48.0,164.0,23.0,0.0
136168,-2.396249,-1.34177,-2.28478,0.086274,-1.158809,-0.269247,0.0,4.0,48.0,164.0,23.0,0.0
136169,-2.425411,-1.329257,-2.28581,0.772044,-0.631234,-0.001747,0.0,4.0,48.0,164.0,23.0,0.0
136170,-2.521674,-1.316581,-2.354973,0.091534,0.438038,-0.700322,0.0,4.0,48.0,164.0,23.0,0.0
136171,-2.543227,-1.30256,-2.372088,-0.041647,1.521417,0.181564,0.0,4.0,48.0,164.0,23.0,0.0
136172,-2.571052,-1.283179,-2.409926,-0.016641,0.7906350000000001,0.393895,0.0,4.0,48.0,164.0,23.0,0.0
136173,-2.572432,-1.270884,-2.4372830000000003,-0.083504,0.031347,0.307126,0.0,4.0,48.0,164.0,23.0,0.0
136174,-2.591733,-1.266665,-2.479942,-0.527133,0.321603,0.196844,0.0,4.0,48.0,164.0,23.0,0.0
136175,-2.627265,-1.265334,-2.522175,-0.8660889999999999,0.335858,0.118426,0.0,4.0,48.0,164.0,23.0,0.0
136176,-2.643437,-1.271147,-2.530137,-0.87249,0.121373,0.181354,0.0,4.0,48.0,164.0,23.0,0.0
136177,-2.6605990000000004,-1.273556,-2.525195,-0.461674,0.011167,0.33184600000000003,0.0,4.0,48.0,164.0,23.0,0.0
136178,-2.682709,-1.274843,-2.520359,-0.279302,0.27576,0.190477,0.0,4.0,48.0,164.0,23.0,0.0
136179,-2.697807,-1.27453,-2.5095560000000003,-0.13761099999999998,0.31500500000000003,0.057655,0.0,4.0,48.0,164.0,23.0,0.0
136180,-2.723473,-1.26846,-2.51706,0.080563,0.059166,-0.079713,0.0,4.0,48.0,164.0,23.0,0.0
136181,-2.770153,-1.251662,-2.552931,0.187098,0.112291,-0.338669,0.0,4.0,48.0,164.0,23.0,0.0
136182,-2.806775,-1.221731,-2.578937,0.272297,0.252064,-0.240642,0.0,4.0,48.0,164.0,23.0,0.0
136183,-2.810298,-1.184117,-2.574549,0.10275,0.17995799999999998,-0.193232,0.0,4.0,48.0,164.0,23.0,0.0
136184,-2.788835,-1.151192,-2.547844,0.014087,0.002155,-0.13919700000000002,0.0,4.0,48.0,164.0,23.0,0.0
136185,-2.772073,-1.127782,-2.522348,-0.230298,0.0366,-0.00235,0.0,4.0,48.0,164.0,23.0,0.0
136186,-2.771468,-1.108543,-2.502632,-0.332318,0.575943,0.219086,0.0,4.0,48.0,164.0,23.0,0.0
136187,-2.7712790000000003,-1.093527,-2.480045,-0.200348,0.752876,0.355879,0.0,4.0,48.0,164.0,23.0,0.0
136188,-2.769432,-1.089101,-2.457232,0.011999,0.053776,0.130804,0.0,4.0,48.0,164.0,23.0,0.0
136189,-2.765714,-1.095084,-2.43414,0.049586,-0.305074,-0.028681,0.0,4.0,48.0,164.0,23.0,0.0
136190,-2.762255,-1.106978,-2.410788,0.043622,-0.407031,-0.065441,0.0,4.0,48.0,164.0,23.0,0.0
136191,-2.761289,-1.121799,-2.388217,0.00254,-0.502293,-0.059000000000000004,0.0,4.0,48.0,164.0,23.0,0.0
136192,-2.760846,-1.1401290000000002,-2.365036,0.000369,-0.544262,-0.114421,0.0,4.0,48.0,164.0,23.0,0.0
136193,-2.751268,-1.161543,-2.334204,0.092443,-0.47972,-0.12831199999999998,0.0,4.0,48.0,164.0,23.0,0.0
136194,-2.731367,-1.185976,-2.294823,0.184208,-0.400865,-0.095589,0.0,4.0,48.0,164.0,23.0,0.0
136195,-2.707777,-1.2135479999999998,-2.251394,0.17211500000000002,-0.382358,-0.05534,0.0,4.0,48.0,164.0,23.0,0.0
136196,-2.6877560000000003,-1.246423,-2.211322,0.020809,-0.418294,-0.0016420000000000002,0.0,4.0,48.0,164.0,23.0,0.0
136197,-2.680916,-1.280494,-2.181606,-0.135426,-0.322415,0.024231,0.0,4.0,48.0,164.0,23.0,0.0
136198,-2.687369,-1.303635,-2.162945,-0.1217,0.211242,0.126861,0.0,4.0,48.0,164.0,23.0,0.0
136199,-2.689185,-1.312497,-2.142046,0.042783,0.383623,0.268855,0.0,4.0,48.0,164.0,23.0,0.0
136200,-2.7001630000000003,-1.306641,-2.135223,0.251062,0.461902,0.5355840000000001,0.0,4.0,48.0,164.0,23.0,0.0
136201,-2.727426,-1.2864790000000002,-2.153446,0.108508,0.257218,0.545561,0.0,4.0,48.0,164.0,23.0,0.0
136202,-2.732288,-1.268322,-2.158658,-0.28426,-0.461713,0.35733000000000004,0.0,4.0,48.0,164.0,23.0,0.0
136203,-2.731003,-1.255243,-2.1539770000000003,-0.058263,0.236097,0.056125,0.0,4.0,48.0,164.0,23.0,0.0
136204,-2.803121,-1.209819,-2.210228,-0.551367,2.383387,-0.863208,0.0,4.0,48.0,164.0,23.0,0.0
136205,-2.877767,-1.177626,-2.248184,-0.419849,2.311866,-0.495167,0.0,4.0,48.0,164.0,23.0,0.0
136206,-2.887205,-1.145343,-2.2472830000000004,-0.5182770000000001,-0.389413,-0.17115,0.0,4.0,48.0,164.0,23.0,0.0
136207,-2.850119,-1.11609,-2.204279,-0.300667,-0.845457,-0.051506,0.0,4.0,48.0,164.0,23.0,0.0
136208,-2.836735,-1.116388,-2.1635470000000003,-0.053522,0.431741,0.233831,0.0,4.0,48.0,164.0,23.0,0.0
136209,-2.842891,-1.127595,-2.149994,-0.007529000000000002,0.776197,-0.431942,0.0,4.0,48.0,164.0,23.0,0.0
136210,-2.854528,-1.1599780000000002,-2.148059,0.117424,0.778076,-0.045829,0.0,4.0,48.0,164.0,23.0,0.0
136211,-2.832288,-1.197999,-2.133853,0.12945299999999998,0.24308,-0.026637,0.0,4.0,48.0,164.0,23.0,0.0
136212,-2.8074830000000004,-1.238506,-2.118155,-0.225061,0.117263,-0.077421,0.0,4.0,48.0,164.0,23.0,0.0
136213,-2.769898,-1.280712,-2.0876080000000004,-0.139468,-0.183348,-0.17686,0.0,4.0,48.0,164.0,23.0,0.0
136214,-2.740614,-1.324865,-2.058712,-0.027543,-0.374589,-0.189203,0.0,4.0,48.0,164.0,23.0,0.0
136215,-2.7296560000000003,-1.370256,-2.042777,-0.017353999999999998,-0.362436,-0.12821400000000002,0.0,4.0,48.0,164.0,23.0,0.0
136216,-2.731326,-1.413149,-2.036736,-0.139084,-0.247167,0.016133,0.0,4.0,48.0,164.0,23.0,0.0
136217,-2.750882,-1.451234,-2.045808,-0.184879,-0.216585,0.088411,0.0,4.0,48.0,164.0,23.0,0.0
136218,-2.808889,-1.484086,-2.093625,-0.071018,-0.328244,0.137769,0.0,4.0,48.0,164.0,23.0,0.0
136219,-2.960669,-1.510028,-2.2384470000000003,-0.055784,-0.340668,-0.044719,0.0,4.0,48.0,164.0,23.0,0.0
136220,3.02509,-1.528151,-2.5318810000000003,-0.116899,-0.210822,-0.030473,0.0,4.0,48.0,164.0,23.0,0.0
136221,2.572932,-1.535725,-2.979464,-0.176373,0.193074,0.128429,0.0,4.0,48.0,164.0,23.0,0.0
136222,2.244691,-1.532072,2.983668,-0.34362800000000004,0.304018,0.294836,0.0,4.0,48.0,164.0,23.0,0.0
136223,2.151709,-1.527781,2.897046,-0.359057,0.201319,0.287074,0.0,4.0,48.0,164.0,23.0,0.0
136224,2.174996,-1.524444,2.92585,-0.439789,0.208121,0.244974,0.0,4.0,48.0,164.0,23.0,0.0
136225,2.300379,-1.51872,3.063748,-0.745412,0.32208000000000003,-0.034769,0.0,4.0,48.0,164.0,23.0,0.0
136226,2.524982,-1.509457,-2.9681450000000003,-0.544097,0.396061,-0.11004,0.0,4.0,48.0,164.0,23.0,0.0
136227,2.808188,-1.489478,-2.64735,-0.23488,0.295617,-0.230997,0.0,4.0,48.0,164.0,23.0,0.0
136228,3.007023,-1.451631,-2.407328,0.249556,0.273556,-0.194213,0.0,4.0,48.0,164.0,23.0,0.0
136229,3.088753,-1.408605,-2.27997,-0.009485,0.283663,-0.385,0.0,4.0,48.0,164.0,23.0,0.0
136230,-3.129581,-1.368958,-2.1695580000000003,-0.26392,0.329062,-0.385933,0.0,4.0,48.0,164.0,23.0,0.0
136231,-3.039369,-1.325789,-2.040395,-0.332677,0.439029,-0.350019,0.0,4.0,48.0,164.0,23.0,0.0
136232,-2.983516,-1.2841209999999998,-1.936506,-0.015175,0.274224,-0.396941,0.0,4.0,48.0,164.0,23.0,0.0
136233,-2.956227,-1.250811,-1.858859,0.177561,0.286722,-0.184547,0.0,4.0,48.0,164.0,23.0,0.0
136234,-2.927655,-1.223941,-1.789187,0.110094,0.257735,-0.13982999999999998,0.0,4.0,48.0,164.0,23.0,0.0
136235,-2.890838,-1.199993,-1.709107,-0.158343,-0.022048,-0.180035,0.0,4.0,48.0,164.0,23.0,0.0
136236,-2.863714,-1.179863,-1.624001,-0.373101,-0.217279,-0.18807,0.0,4.0,48.0,164.0,23.0,0.0
136237,-2.858834,-1.167289,-1.5491469999999998,-0.34368000000000004,-0.267056,-0.234184,0.0,4.0,48.0,164.0,23.0,0.0
136238,-2.872362,-1.160596,-1.485257,-0.194246,-0.203937,-0.287502,0.0,4.0,48.0,164.0,23.0,0.0
136239,-2.899016,-1.156309,-1.429901,0.13828900000000002,-0.300134,-0.375654,0.0,4.0,48.0,164.0,23.0,0.0
136240,-2.934414,-1.1540290000000002,-1.384496,0.21836,-0.324177,-0.398864,0.0,4.0,48.0,164.0,23.0,0.0
136241,-2.967334,-1.154525,-1.346586,0.312895,-0.33779000000000003,-0.369556,0.0,4.0,48.0,164.0,23.0,0.0
136242,-2.988935,-1.157702,-1.3125,0.356845,-0.219624,-0.183807,0.0,4.0,48.0,164.0,23.0,0.0
136243,-2.999606,-1.164317,-1.283755,0.32213200000000003,-0.190766,-0.034462,0.0,4.0,48.0,164.0,23.0,0.0
136244,-3.007225,-1.174527,-1.264158,0.17189400000000002,-0.14878,0.075695,0.0,4.0,48.0,164.0,23.0,0.0
136245,-3.015434,-1.183465,-1.250902,-0.200909,-0.25213800000000003,0.093093,0.0,4.0,48.0,164.0,23.0,0.0
136246,-3.02704,-1.191849,-1.238048,-0.321292,-0.291588,0.13659300000000002,0.0,4.0,48.0,164.0,23.0,0.0
136247,-3.042211,-1.194379,-1.222726,-0.560747,-0.182154,0.114729,0.0,4.0,48.0,164.0,23.0,0.0
136248,-3.034688,-1.184707,-1.186482,-0.510957,0.5651579999999999,0.226812,0.0,4.0,48.0,164.0,23.0,0.0
136249,-2.99717,-1.173662,-1.123901,-0.375372,0.616111,0.288685,0.0,4.0,48.0,164.0,23.0,0.0
136250,-2.965978,-1.166033,-1.062473,-0.435845,0.03341,0.240584,0.0,4.0,48.0,164.0,23.0,0.0
136251,-2.949044,-1.155703,-1.011886,-0.30900700000000003,0.802558,-0.032556,0.0,4.0,48.0,164.0,23.0,0.0
136252,-2.9400150000000003,-1.148474,-0.972612,-0.220146,1.025269,-0.338256,0.0,4.0,48.0,164.0,23.0,0.0
136253,-2.923813,-1.154929,-0.926242,0.225215,0.098692,-0.253404,0.0,4.0,48.0,164.0,23.0,0.0
136254,-2.92732,-1.159176,-0.90025,0.023495,-0.590287,-0.577635,0.0,4.0,48.0,164.0,23.0,0.0
136255,-2.93876,-1.168496,-0.8820379999999999,-0.135523,-0.356396,-0.784996,0.0,4.0,48.0,164.0,23.0,0.0
136256,-2.967274,-1.188461,-0.8713139999999999,-0.23677,0.084426,-0.5693630000000001,0.0,4.0,48.0,164.0,23.0,0.0
136257,-3.006094,-1.212668,-0.8680120000000001,-0.137747,0.451675,-0.218333,0.0,4.0,48.0,164.0,23.0,0.0
136258,-3.04365,-1.237227,-0.871609,-0.059145,0.228613,-0.202484,0.0,4.0,48.0,164.0,23.0,0.0
136259,-3.056796,-1.263158,-0.8590120000000001,-0.011606,-0.065448,-0.124596,0.0,4.0,48.0,164.0,23.0,0.0
136260,-3.045272,-1.291547,-0.8290690000000001,0.011716,-0.198949,-0.06616,0.0,4.0,48.0,164.0,23.0,0.0
136261,-3.031721,-1.320563,-0.802347,0.031646,-0.211301,-0.10875,0.0,4.0,48.0,164.0,23.0,0.0
136262,-3.02806,-1.348162,-0.787149,-0.08141,-0.158333,-0.135941,0.0,4.0,48.0,164.0,23.0,0.0
136263,-3.035136,-1.374642,-0.782189,-0.169837,-0.105762,-0.168975,0.0,4.0,48.0,164.0,23.0,0.0
136264,-3.0469630000000003,-1.401134,-0.778805,-0.138779,-0.159119,-0.08659,0.0,4.0,48.0,164.0,23.0,0.0
136265,-3.070624,-1.427208,-0.788297,-0.098138,-0.127236,-0.050977,0.0,4.0,48.0,164.0,23.0,0.0
136266,-3.111259,-1.452906,-0.817398,-0.08870700000000001,-0.082018,-0.027019,0.0,4.0,48.0,164.0,23.0,0.0
136267,3.110882,-1.477336,-0.869933,-0.113181,-0.07070900000000001,0.070477,0.0,4.0,48.0,164.0,23.0,0.0
136268,3.005588,-1.497982,-0.969145,-0.121255,-0.189641,0.104295,0.0,4.0,48.0,164.0,23.0,0.0
136269,2.820454,-1.513439,-1.149926,-0.127768,-0.227848,0.079462,0.0,4.0,48.0,164.0,23.0,0.0
136270,2.532477,-1.523092,-1.432119,-0.153872,0.040902,-0.024858,0.0,4.0,48.0,164.0,23.0,0.0
136271,2.203908,-1.5274370000000002,-1.7522799999999998,-0.116989,0.091867,0.07874500000000001,0.0,4.0,48.0,164.0,23.0,0.0
136272,1.939232,-1.527779,-2.009981,-0.080325,0.073236,0.122224,0.0,4.0,48.0,164.0,23.0,0.0
136273,1.80159,-1.52659,-2.144276,-0.28370700000000004,0.20047,0.004586,0.0,4.0,48.0,164.0,23.0,0.0
136274,1.79758,-1.525854,-2.14435,-0.486879,0.300631,0.083859,0.0,4.0,48.0,164.0,23.0,0.0
136275,1.863065,-1.526096,-2.073698,-0.57075,0.32682,0.062583,0.0,4.0,48.0,164.0,23.0,0.0
136276,2.025617,-1.530389,-1.896155,-0.572382,0.62661,0.007761,0.0,4.0,48.0,164.0,23.0,0.0
136277,2.523415,-1.534488,-1.378076,-0.220033,0.518664,-0.037486,0.0,4.0,48.0,164.0,23.0,0.0
136278,3.12144,-1.517839,-0.756116,-0.082009,0.36508,-0.112033,0.0,4.0,48.0,164.0,23.0,0.0
136279,-2.964831,-1.477182,-0.527116,0.034154000000000004,0.095001,-0.181028,0.0,4.0,48.0,164.0,23.0,0.0
136280,-2.954193,-1.42921,-0.476134,-0.08367100000000001,0.001004,-0.466669,0.0,4.0,48.0,164.0,23.0,0.0
136281,-2.945105,-1.384095,-0.42015,-0.098149,0.106917,-0.51205,0.0,4.0,48.0,164.0,23.0,0.0
136282,-2.907465,-1.336533,-0.348795,0.129961,0.532624,-0.111248,0.0,4.0,48.0,164.0,23.0,0.0
136283,-2.852579,-1.286403,-0.276622,0.262839,0.443137,-0.15152100000000002,0.0,4.0,48.0,164.0,23.0,0.0
136284,-2.803016,-1.239529,-0.216766,0.142325,0.07248099999999999,-0.2768,0.0,4.0,48.0,164.0,23.0,0.0
136285,-2.767944,-1.198028,-0.167535,0.027585,-0.020617,-0.336819,0.0,4.0,48.0,164.0,23.0,0.0
136286,-2.744448,-1.163927,-0.116179,-0.183837,-0.191146,-0.289984,0.0,4.0,48.0,164.0,23.0,0.0
136287,-2.735456,-1.1399,-0.07133099999999999,-0.10054,-0.314308,-0.251356,0.0,4.0,48.0,164.0,23.0,0.0
136288,-2.7423580000000003,-1.123248,-0.03704,-0.041532,-0.31606100000000004,-0.27378800000000003,0.0,4.0,48.0,164.0,23.0,0.0
136289,-2.75981,-1.110572,-0.010013,0.085246,-0.268374,-0.242328,0.0,4.0,48.0,164.0,23.0,0.0
136290,-2.778067,-1.102263,0.015284,0.256469,-0.250737,-0.212627,0.0,4.0,48.0,164.0,23.0,0.0
136291,-2.789492,-1.0994959999999998,0.043751,0.263153,-0.299151,-0.252791,0.0,4.0,48.0,164.0,23.0,0.0
136292,-2.791028,-1.1032540000000002,0.074237,0.286769,-0.508126,-0.271688,0.0,4.0,48.0,164.0,23.0,0.0
136293,-2.786032,-1.111855,0.100625,0.121225,-0.71511,-0.191141,0.0,4.0,48.0,164.0,23.0,0.0
136294,-2.776668,-1.124066,0.123167,0.027224,-0.639154,-0.183221,0.0,4.0,48.0,164.0,23.0,0.0
136295,-2.76201,-1.138484,0.147688,0.06945499999999999,-0.593073,-0.139027,0.0,4.0,48.0,164.0,23.0,0.0
136296,-2.748835,-1.152774,0.170156,0.113439,-0.485915,-0.022321,0.0,4.0,48.0,164.0,23.0,0.0
136297,-2.745378,-1.165415,0.182818,-0.06473999999999999,-0.439536,0.002181,0.0,4.0,48.0,164.0,23.0,0.0
136298,-2.751473,-1.178715,0.184265,-0.198178,-0.374937,-0.047904,0.0,4.0,48.0,164.0,23.0,0.0
136299,-2.756456,-1.194994,0.186025,-0.328368,0.249321,-0.174618,0.0,4.0,48.0,164.0,23.0,0.0
136300,-2.743249,-1.215098,0.20573400000000006,-0.22105,0.604985,-0.069463,0.0,4.0,48.0,164.0,23.0,0.0
136301,-2.702773,-1.234271,0.255569,-0.026338,0.246293,0.00606,0.0,4.0,48.0,164.0,23.0,0.0
136302,-2.651884,-1.247578,0.310925,0.165866,0.044046,-0.124447,0.0,4.0,48.0,164.0,23.0,0.0
136303,-2.618434,-1.2527780000000002,0.34765,0.003942,0.300845,-0.223876,0.0,4.0,48.0,164.0,23.0,0.0
136304,-2.614171,-1.254721,0.360722,-0.093674,0.354637,-0.25843,0.0,4.0,48.0,164.0,23.0,0.0
136305,-2.633582,-1.253951,0.355155,-0.06651599999999999,0.423526,-0.376924,0.0,4.0,48.0,164.0,23.0,0.0
136306,-2.685144,-1.246549,0.323606,0.071781,0.8483280000000001,-0.277611,0.0,4.0,48.0,164.0,23.0,0.0
136307,-2.757996,-1.234722,0.26902,-0.351375,1.312154,0.183037,0.0,4.0,48.0,164.0,23.0,0.0
136308,-2.77117,-1.221891,0.253863,-0.29487,-0.01061,-0.059596,0.0,4.0,48.0,164.0,23.0,0.0
136309,-2.739313,-1.217758,0.27832,0.131699,-0.471194,-0.119033,0.0,4.0,48.0,164.0,23.0,0.0
136310,-2.709934,-1.2211299999999998,0.307126,-0.017506,-0.376789,-0.147993,0.0,4.0,48.0,164.0,23.0,0.0
136311,-2.694776,-1.228709,0.326812,-0.095005,-0.241251,-0.088513,0.0,4.0,48.0,164.0,23.0,0.0
136312,-2.686035,-1.23781,0.34068200000000004,-0.203109,0.189146,0.022225,0.0,4.0,48.0,164.0,23.0,0.0
136313,-2.67727,-1.244253,0.34997,-0.162364,0.085039,0.109789,0.0,4.0,48.0,164.0,23.0,0.0
136314,-2.677929,-1.248738,0.349154,-0.065944,-0.248284,-0.069104,0.0,4.0,48.0,164.0,23.0,0.0
136315,-2.68158,-1.25504,0.349143,0.020437,-0.476242,0.057204,0.0,4.0,48.0,164.0,23.0,0.0
136316,-2.68645,-1.257772,0.346997,0.060525,-0.4899810000000001,0.007402,0.0,4.0,48.0,164.0,23.0,0.0
136317,-2.693956,-1.257829,0.342227,0.071529,-0.451668,-0.014842,0.0,4.0,48.0,164.0,23.0,0.0
136318,-2.704699,-1.253189,0.334609,-0.166775,-0.132999,-0.026771,0.0,4.0,48.0,164.0,23.0,0.0
136319,-2.706466,-1.243798,0.333514,-0.174247,-0.07449800000000001,-0.091996,0.0,4.0,48.0,164.0,23.0,0.0
136320,-2.70923,-1.2312379999999998,0.331571,-0.11498,-0.097473,-0.17143,0.0,4.0,48.0,164.0,23.0,0.0
136321,-2.730255,-1.21514,0.311861,-0.024068,-0.118311,-0.221282,0.0,4.0,48.0,164.0,23.0,0.0
136322,-2.7652240000000003,-1.192452,0.279555,-0.101378,0.001142,-0.298873,0.0,4.0,48.0,164.0,23.0,0.0
136323,-2.801295,-1.159904,0.251078,-0.149859,0.152571,-0.3749,0.0,4.0,48.0,164.0,23.0,0.0
136324,-2.821193,-1.117713,0.24128400000000005,-0.149428,0.268485,-0.076625,0.0,4.0,48.0,164.0,23.0,0.0
136325,-2.822566,-1.074097,0.245791,0.0004730000000000001,0.197164,0.185396,0.0,4.0,48.0,164.0,23.0,0.0
136326,-2.809229,-1.038691,0.256458,0.289576,0.647857,0.145321,0.0,4.0,48.0,164.0,23.0,0.0
136327,-2.786461,-1.013947,0.265836,0.612345,0.553618,0.177678,0.0,4.0,48.0,164.0,23.0,0.0
136328,-2.784201,-1.009739,0.263678,0.123792,-0.029997000000000006,0.096383,0.0,4.0,48.0,164.0,23.0,0.0
136329,-2.77412,-1.021157,0.266438,-0.178009,-0.219641,-0.097692,0.0,4.0,48.0,164.0,23.0,0.0
136330,-2.750117,-1.039295,0.281298,-0.107341,-0.111864,0.013522,0.0,4.0,48.0,164.0,23.0,0.0
136331,-2.727723,-1.062418,0.303191,-0.055241999999999986,-0.114334,0.126415,0.0,4.0,48.0,164.0,23.0,0.0
136332,-2.711941,-1.089428,0.325736,-0.148773,-0.169871,0.32673800000000003,0.0,4.0,48.0,164.0,23.0,0.0
136333,-2.691854,-1.114945,0.352565,-0.20679,-0.194319,0.315906,0.0,4.0,48.0,164.0,23.0,0.0
136334,-2.660028,-1.136377,0.38959,-0.283631,-0.234629,0.29985,0.0,4.0,48.0,164.0,23.0,0.0
136335,-2.608503,-1.157849,0.4441270000000001,-0.119218,-0.205905,0.286028,0.0,4.0,48.0,164.0,23.0,0.0
136336,-2.532991,-1.178539,0.51295,0.010775,-0.167472,0.288733,0.0,4.0,48.0,164.0,23.0,0.0
136337,-2.459362,-1.197007,0.572192,0.176899,-0.091107,0.142853,0.0,4.0,48.0,164.0,23.0,0.0
136338,-2.425757,-1.215474,0.603792,0.195719,0.029568,-0.422491,0.0,4.0,48.0,164.0,23.0,0.0
136339,-2.409373,-1.229651,0.632803,0.162102,-0.206288,-0.594489,0.0,4.0,48.0,164.0,23.0,0.0
136340,-2.392931,-1.240772,0.666094,0.10039,-0.341069,-0.506196,0.0,4.0,48.0,164.0,23.0,0.0
136341,-2.389637,-1.248055,0.690271,0.160926,-0.026693,-0.252688,0.0,4.0,48.0,164.0,23.0,0.0
136342,-2.433184,-1.2426700000000002,0.666273,0.142728,0.375816,0.135046,0.0,4.0,48.0,164.0,23.0,0.0
136343,-2.493482,-1.225694,0.611695,0.055686,0.6377550000000001,0.25455300000000003,0.0,4.0,48.0,164.0,23.0,0.0
136344,-2.516178,-1.211263,0.5882609999999999,-0.062901,-0.017162,-0.156425,0.0,4.0,48.0,164.0,23.0,0.0
136345,-2.506627,-1.212846,0.600507,-0.257707,-0.4144,0.127556,0.0,4.0,48.0,164.0,23.0,0.0
136346,-2.495618,-1.22055,0.617112,-0.228462,-0.220447,-0.086461,0.0,4.0,48.0,164.0,23.0,0.0
136347,-2.502308,-1.227081,0.6288779999999999,-0.314698,0.770817,0.389185,0.0,4.0,48.0,164.0,23.0,0.0
136348,-2.518425,-1.22282,0.628497,-0.322724,0.975814,0.027851,0.0,4.0,48.0,164.0,23.0,0.0
136349,-2.496577,-1.223365,0.662326,0.070359,-0.106709,0.327381,0.0,4.0,48.0,164.0,23.0,0.0
136350,-2.482502,-1.223342,0.67932,0.080956,-0.092754,0.112025,0.0,4.0,48.0,164.0,23.0,0.0
136351,-2.494716,-1.228309,0.665542,-0.06842899999999999,0.153369,0.107995,0.0,4.0,48.0,164.0,23.0,0.0
136352,-2.519772,-1.233331,0.635085,-0.060859,0.135383,-0.076231,0.0,4.0,48.0,164.0,23.0,0.0
136353,-2.551331,-1.23032,0.5965020000000001,-0.0004969999999999999,-0.105804,-0.079445,0.0,4.0,48.0,164.0,23.0,0.0
136354,-2.5966720000000003,-1.216372,0.543024,-0.010506,-0.193767,-0.306318,0.0,4.0,48.0,164.0,23.0,0.0
136355,-2.644917,-1.193388,0.48871,0.068988,-0.388378,-0.529776,0.0,4.0,48.0,164.0,23.0,0.0
136356,-2.689493,-1.162908,0.441348,0.153703,-0.477058,-0.459141,0.0,4.0,48.0,164.0,23.0,0.0
136357,-2.72063,-1.129946,0.404129,0.222444,-0.373704,-0.33673400000000003,0.0,4.0,48.0,164.0,23.0,0.0
136358,-2.738204,-1.100586,0.384683,0.225924,-0.360788,-0.363988,0.0,4.0,48.0,164.0,23.0,0.0
136359,-2.746777,-1.075868,0.377059,0.033517,-0.114179,-0.31011700000000003,0.0,4.0,48.0,164.0,23.0,0.0
136360,-2.75544,-1.0479379999999998,0.371829,0.067998,0.311156,0.023051,0.0,4.0,48.0,164.0,23.0,0.0
136361,-2.75238,-1.02369,0.3679,0.090955,0.567338,0.183451,0.0,4.0,48.0,164.0,23.0,0.0
136362,-2.721556,-1.016417,0.376117,0.129888,0.5126569999999999,0.435065,0.0,4.0,48.0,164.0,23.0,0.0
136363,-2.6896,-1.026639,0.378084,-0.005967,0.042812,0.262619,0.0,4.0,48.0,164.0,23.0,0.0
136364,-2.67877,-1.0456219999999998,0.367925,-0.113531,0.06461900000000001,0.14158800000000002,0.0,4.0,48.0,164.0,23.0,0.0
136365,-2.676373,-1.070502,0.355852,-0.14028,0.247513,0.274433,0.0,4.0,48.0,164.0,23.0,0.0
136366,-2.661289,-1.103405,0.356161,-0.13129100000000002,0.224029,0.46724,0.0,4.0,48.0,164.0,23.0,0.0
136367,-2.628792,-1.140369,0.367036,-0.14875,0.045192,0.49507,0.0,4.0,48.0,164.0,23.0,0.0
136368,-2.584538,-1.1724629999999998,0.3865,-0.142967,-0.123811,0.287901,0.0,4.0,48.0,164.0,23.0,0.0
136369,-2.525185,-1.195855,0.423321,-0.047184,-0.30188200000000004,-0.116584,0.0,4.0,48.0,164.0,23.0,0.0
136370,-2.459995,-1.216633,0.4778770000000001,0.048756,-0.496698,-0.376635,0.0,4.0,48.0,164.0,23.0,0.0
136371,-2.40167,-1.238851,0.541784,0.13568,-0.512961,-0.39848,0.0,4.0,48.0,164.0,23.0,0.0
136372,-2.3464560000000003,-1.257974,0.612413,0.037576,-0.7533489999999999,-0.22148,0.0,4.0,48.0,164.0,23.0,0.0
136373,-2.295467,-1.269583,0.674201,0.069159,-0.956472,-0.039306,0.0,4.0,48.0,164.0,23.0,0.0
136374,-2.267064,-1.26747,0.712144,0.41571,-0.569613,0.048671,0.0,4.0,48.0,164.0,23.0,0.0
136375,-2.298387,-1.25085,0.694317,0.457821,-0.168277,0.315965,0.0,4.0,48.0,164.0,23.0,0.0
136376,-2.379864,-1.216371,0.600815,0.340592,0.622502,-1.450702,0.0,4.0,48.0,164.0,23.0,0.0
136377,-2.423851,-1.204653,0.576324,-0.211244,0.662949,0.343555,0.0,4.0,48.0,164.0,23.0,0.0
136378,-2.465785,-1.196951,0.529403,-0.250429,0.018533,0.274197,0.0,4.0,48.0,164.0,23.0,0.0
136379,-2.488225,-1.197713,0.500891,0.14279,0.269674,0.213555,0.0,4.0,48.0,164.0,23.0,0.0
136380,-2.527627,-1.194111,0.458648,-0.416212,1.045727,0.296033,0.0,4.0,48.0,164.0,23.0,0.0
136381,-2.55068,-1.19841,0.428921,-0.726544,0.8428610000000001,0.196194,0.0,4.0,48.0,164.0,23.0,0.0
136382,-2.540184,-1.200524,0.4406310000000001,-0.40231,-0.24154,0.25378,0.0,4.0,48.0,164.0,23.0,0.0
136383,-2.536945,-1.201024,0.4523140000000001,-0.339644,-0.036551,0.3469,0.0,4.0,48.0,164.0,23.0,0.0
136384,-2.540633,-1.200552,0.458691,-0.207543,0.255276,0.126497,0.0,4.0,48.0,164.0,23.0,0.0
136385,-2.549926,-1.198636,0.457182,0.054069000000000006,0.151662,-0.09335,0.0,4.0,48.0,164.0,23.0,0.0
136386,-2.576429,-1.189648,0.435414,0.210496,-0.0289,-0.333964,0.0,4.0,48.0,164.0,23.0,0.0
136387,-2.620472,-1.171617,0.394708,0.211109,-0.17089200000000002,-0.391743,0.0,4.0,48.0,164.0,23.0,0.0
136388,-2.672558,-1.143281,0.345084,0.16168,-0.22404,-0.252938,0.0,4.0,48.0,164.0,23.0,0.0
136389,-2.707669,-1.11026,0.308635,0.16463,-0.255464,-0.253217,0.0,4.0,48.0,164.0,23.0,0.0
136390,-2.724202,-1.079182,0.290827,0.206277,-0.303005,-0.438897,0.0,4.0,48.0,164.0,23.0,0.0
136391,-2.737757,-1.055105,0.28436,0.099872,-0.081317,-0.389279,0.0,4.0,48.0,164.0,23.0,0.0
136392,-2.758404,-1.029245,0.277975,0.005084,0.293374,0.045274,0.0,4.0,48.0,164.0,23.0,0.0
136393,-2.765222,-1.007989,0.277443,0.023914,0.482105,0.35546300000000003,0.0,4.0,48.0,164.0,23.0,0.0
136394,-2.736627,-1.001639,0.296448,0.200181,0.169882,0.26563200000000003,0.0,4.0,48.0,164.0,23.0,0.0
136395,-2.693002,-1.014182,0.320604,0.127821,-0.031895,0.17959,0.0,4.0,48.0,164.0,23.0,0.0
136396,-2.666446,-1.039273,0.334594,-0.091624,-0.17413900000000002,0.154044,0.0,4.0,48.0,164.0,23.0,0.0
136397,-2.663549,-1.069144,0.335116,-0.280614,-0.15823800000000002,0.154524,0.0,4.0,48.0,164.0,23.0,0.0
136398,-2.659412,-1.100452,0.339455,-0.222045,-0.12676400000000002,0.196327,0.0,4.0,48.0,164.0,23.0,0.0
136399,-2.638709,-1.1295540000000002,0.35937,-0.077555,-0.19478,0.150632,0.0,4.0,48.0,164.0,23.0,0.0
136400,-2.606542,-1.15708,0.390207,0.0075819999999999985,-0.299209,0.155084,0.0,4.0,48.0,164.0,23.0,0.0
136401,-2.57336,-1.18351,0.42369,0.087386,-0.264133,0.113589,0.0,4.0,48.0,164.0,23.0,0.0
136402,-2.549001,-1.209646,0.455994,-0.104744,0.134211,0.020741,0.0,4.0,48.0,164.0,23.0,0.0
136403,-2.526968,-1.232036,0.492407,-0.218483,0.02456,0.014208000000000004,0.0,4.0,48.0,164.0,23.0,0.0
136404,-2.490718,-1.245356,0.538392,-0.200776,-0.187409,-0.059242,0.0,4.0,48.0,164.0,23.0,0.0
136405,-2.4563040000000003,-1.25076,0.588726,0.249852,-0.362554,-0.263364,0.0,4.0,48.0,164.0,23.0,0.0
136406,-2.451671,-1.255674,0.617203,0.397192,-0.05403,-0.394107,0.0,4.0,48.0,164.0,23.0,0.0
136407,-2.517971,-1.258508,0.579903,0.38208,0.249432,-0.245493,0.0,4.0,48.0,164.0,23.0,0.0
136408,-2.5815900000000003,-1.262019,0.536663,-0.068514,1.002876,-0.019168,0.0,4.0,48.0,164.0,23.0,0.0
136409,-2.586332,-1.261618,0.5309119999999999,0.061979999999999986,0.336448,0.103737,0.0,4.0,48.0,164.0,23.0,0.0
136410,-2.587314,-1.258191,0.521243,0.06619,0.239443,0.048361,0.0,4.0,48.0,164.0,23.0,0.0
136411,-2.58957,-1.253713,0.502777,-0.52433,0.342804,0.224302,0.0,4.0,48.0,164.0,23.0,0.0
136412,-2.562784,-1.252227,0.51345,-0.4240390000000001,-0.033608,0.057030999999999984,0.0,4.0,48.0,164.0,23.0,0.0
136413,-2.541179,-1.256819,0.536978,-0.350402,-0.030245,0.030672,0.0,4.0,48.0,164.0,23.0,0.0
136414,-2.522134,-1.267001,0.568702,-0.153369,0.06668099999999999,-0.074348,0.0,4.0,48.0,164.0,23.0,0.0
136415,-2.505441,-1.278422,0.6036600000000001,-0.04824,0.022617,0.028233,0.0,4.0,48.0,164.0,23.0,0.0
136416,-2.486478,-1.289387,0.637549,0.048852,-0.055376,0.107154,0.0,4.0,48.0,164.0,23.0,0.0
136417,-2.4667830000000004,-1.300409,0.666666,0.111607,-0.214446,0.090062,0.0,4.0,48.0,164.0,23.0,0.0
136418,-2.453328,-1.3097,0.682952,0.147565,-0.370084,-0.010764,0.0,4.0,48.0,164.0,23.0,0.0
136419,-2.451538,-1.317579,0.683476,0.157657,-0.4224270000000001,-0.113371,0.0,4.0,48.0,164.0,23.0,0.0
136420,-2.461019,-1.323388,0.670658,0.077447,-0.340339,-0.054164,0.0,4.0,48.0,164.0,23.0,0.0
136421,-2.487809,-1.322817,0.641464,-0.091126,-0.160511,0.019068,0.0,4.0,48.0,164.0,23.0,0.0
136422,-2.518757,-1.315721,0.609951,-0.175002,-0.083825,0.064228,0.0,4.0,48.0,164.0,23.0,0.0
136423,-2.55498,-1.303651,0.573837,-0.108175,-0.222356,-0.026318,0.0,4.0,48.0,164.0,23.0,0.0
136424,-2.617962,-1.287043,0.515947,-0.108171,-0.217534,-0.371704,0.0,4.0,48.0,164.0,23.0,0.0
136425,-2.695891,-1.264324,0.455761,-0.102515,0.038173,-0.31815,0.0,4.0,48.0,164.0,23.0,0.0
136426,-2.77431,-1.225237,0.403815,-0.178474,0.501893,-0.15175,0.0,4.0,48.0,164.0,23.0,0.0
136427,-2.8313490000000003,-1.178451,0.370907,-0.060229,0.731808,0.202299,0.0,4.0,48.0,164.0,23.0,0.0
136428,-2.848406,-1.139456,0.358615,0.356165,0.454494,0.255231,0.0,4.0,48.0,164.0,23.0,0.0
136429,-2.849534,-1.113842,0.34672800000000004,0.352272,0.409225,0.211475,0.0,4.0,48.0,164.0,23.0,0.0
136430,-2.85273,-1.10145,0.331377,0.030303,0.200604,0.016575,0.0,4.0,48.0,164.0,23.0,0.0
136431,-2.861251,-1.0933620000000002,0.319935,-0.066985,0.256675,-0.002579,0.0,4.0,48.0,164.0,23.0,0.0
136432,-2.851734,-1.094275,0.326514,0.000945,0.104004,0.026268,0.0,4.0,48.0,164.0,23.0,0.0
136433,-2.8231040000000003,-1.108648,0.34572,0.202924,-0.230546,-0.094403,0.0,4.0,48.0,164.0,23.0,0.0
136434,-2.785743,-1.130321,0.370961,0.203179,-0.262627,-0.050606,0.0,4.0,48.0,164.0,23.0,0.0
136435,-2.745279,-1.153784,0.399056,0.15498499999999998,-0.194409,0.052779,0.0,4.0,48.0,164.0,23.0,0.0
136436,-2.700218,-1.180123,0.429575,-0.026025,-0.363999,0.100243,0.0,4.0,48.0,164.0,23.0,0.0
136437,-2.654017,-1.208505,0.460513,-0.043646,-0.5556770000000001,0.003512,0.0,4.0,48.0,164.0,23.0,0.0
136438,-2.621946,-1.234691,0.483883,-0.054991,-0.653259,-0.066888,0.0,4.0,48.0,164.0,23.0,0.0
136439,-2.60595,-1.258785,0.503234,-0.085622,-0.7907069999999999,-0.032244,0.0,4.0,48.0,164.0,23.0,0.0
136440,-2.586235,-1.284424,0.531941,-0.112245,-0.627991,0.049914,0.0,4.0,48.0,164.0,23.0,0.0
136441,-2.549959,-1.308475,0.5755680000000001,-0.103402,-0.110459,0.007737999999999998,0.0,4.0,48.0,164.0,23.0,0.0
136442,-2.507521,-1.32718,0.628776,-0.002673,0.243914,-0.074155,0.0,4.0,48.0,164.0,23.0,0.0
136443,-2.4605240000000004,-1.335752,0.689861,0.239317,0.101303,-0.135892,0.0,4.0,48.0,164.0,23.0,0.0
136444,-2.430655,-1.332618,0.7330840000000001,0.27079699999999995,0.299059,-0.185105,0.0,4.0,48.0,164.0,23.0,0.0
136445,-2.433743,-1.325327,0.738776,0.250831,0.671654,-0.136821,0.0,4.0,48.0,164.0,23.0,0.0
136446,-2.497784,-1.318423,0.679543,0.234321,0.35373000000000004,-0.479602,0.0,4.0,48.0,164.0,23.0,0.0
136447,-2.569777,-1.318258,0.61147,-0.140648,0.65417,0.184426,0.0,4.0,48.0,164.0,23.0,0.0
136448,-2.614558,-1.315809,0.560448,-0.312156,0.959381,0.184732,0.0,4.0,48.0,164.0,23.0,0.0
136449,-2.634078,-1.31097,0.531528,-0.379924,0.33678800000000003,0.165297,0.0,4.0,48.0,164.0,23.0,0.0
136450,-2.607752,-1.3085950000000002,0.542451,-0.273847,0.04492,0.218306,0.0,4.0,48.0,164.0,23.0,0.0
136451,-2.579402,-1.311202,0.566512,-0.229445,-0.100649,-0.033304,0.0,4.0,48.0,164.0,23.0,0.0
136452,-2.550832,-1.319227,0.60067,-0.21090100000000006,-0.054613,0.044327,0.0,4.0,48.0,164.0,23.0,0.0
136453,-2.518654,-1.329654,0.641165,-0.100498,-0.092739,-0.080467,0.0,4.0,48.0,164.0,23.0,0.0
136454,-2.487266,-1.339921,0.683072,-0.0192,-0.105074,0.040322,0.0,4.0,48.0,164.0,23.0,0.0
136455,-2.463916,-1.345328,0.715023,0.093604,-0.08980199999999999,0.284451,0.0,4.0,48.0,164.0,23.0,0.0
136456,-2.462609,-1.345222,0.717966,0.108286,-0.074489,0.264732,0.0,4.0,48.0,164.0,23.0,0.0
136457,-2.478191,-1.343027,0.698033,0.040851,-0.28580300000000003,0.16203199999999998,0.0,4.0,48.0,164.0,23.0,0.0
136458,-2.49325,-1.340716,0.6761020000000001,-0.060122,-0.458923,0.15166400000000002,0.0,4.0,48.0,164.0,23.0,0.0
136459,-2.527474,-1.333224,0.636929,-0.118006,-0.496982,0.038411,0.0,4.0,48.0,164.0,23.0,0.0
136460,-2.575037,-1.321623,0.5906170000000001,-0.123499,-0.395722,-0.010538,0.0,4.0,48.0,164.0,23.0,0.0
136461,-2.631255,-1.302486,0.53997,0.005479,-0.334521,-0.33065100000000003,0.0,4.0,48.0,164.0,23.0,0.0
136462,-2.693266,-1.274446,0.488041,0.096995,-0.37189,-0.646756,0.0,4.0,48.0,164.0,23.0,0.0
136463,-2.7427,-1.235195,0.446068,0.203342,-0.229018,-0.240065,0.0,4.0,48.0,164.0,23.0,0.0
136464,-2.771432,-1.189878,0.417984,0.127468,0.101858,-0.063576,0.0,4.0,48.0,164.0,23.0,0.0
136465,-2.775943,-1.145642,0.40743,0.111798,0.41419,-0.040964,0.0,4.0,48.0,164.0,23.0,0.0
136466,-2.764718,-1.113752,0.401207,0.015931,0.5467770000000001,0.31700300000000003,0.0,4.0,48.0,164.0,23.0,0.0
136467,-2.758913,-1.084958,0.388357,-0.161045,0.916299,0.384807,0.0,4.0,48.0,164.0,23.0,0.0
136468,-2.746229,-1.065654,0.385221,-0.13178299999999998,0.7329869999999999,0.534085,0.0,4.0,48.0,164.0,23.0,0.0
136469,-2.721295,-1.067294,0.387679,-0.039094,0.264193,0.352315,0.0,4.0,48.0,164.0,23.0,0.0
136470,-2.6966080000000003,-1.084236,0.392434,-0.112565,0.10789,0.227792,0.0,4.0,48.0,164.0,23.0,0.0
136471,-2.676412,-1.113263,0.405041,-0.307042,0.265972,0.310652,0.0,4.0,48.0,164.0,23.0,0.0
136472,-2.6453330000000004,-1.151725,0.437188,-0.315467,0.24823,0.48175,0.0,4.0,48.0,164.0,23.0,0.0
136473,-2.597278,-1.192896,0.482124,-0.014139,-0.318693,0.23406,0.0,4.0,48.0,164.0,23.0,0.0
136474,-2.55215,-1.227909,0.518345,0.076736,-0.63942,-0.041287,0.0,4.0,48.0,164.0,23.0,0.0
136475,-2.540795,-1.26084,0.537662,0.15766,-1.205033,-0.685335,0.0,4.0,48.0,164.0,23.0,0.0
136476,-2.554681,-1.303344,0.552623,-0.014459,-0.7227939999999999,-0.4240060000000001,0.0,4.0,48.0,164.0,23.0,0.0
136477,-2.554599,-1.347252,0.58986,-0.12754400000000002,-0.782201,-0.074209,0.0,4.0,48.0,164.0,23.0,0.0
136478,-2.537389,-1.374585,0.636734,-0.141534,-0.787636,0.072361,0.0,4.0,48.0,164.0,23.0,0.0
136479,-2.489944,-1.377925,0.700765,0.194342,-0.963804,0.004501,0.0,4.0,48.0,164.0,23.0,0.0
136480,-2.452028,-1.364028,0.7524390000000001,0.634467,-0.7403270000000001,-0.186557,0.0,4.0,48.0,164.0,23.0,0.0
136481,-2.49749,-1.34815,0.7263609999999999,0.379071,-0.112478,-0.783212,0.0,4.0,48.0,164.0,23.0,0.0
136482,-2.554562,-1.341976,0.689634,0.081457,0.7871279999999999,0.23399999999999999,0.0,4.0,48.0,164.0,23.0,0.0
136483,-2.613303,-1.329464,0.612449,-0.306306,1.145343,0.185068,0.0,4.0,48.0,164.0,23.0,0.0
136484,-2.61803,-1.327472,0.5829529999999999,-0.185435,0.16614600000000002,0.14080399999999998,0.0,4.0,48.0,164.0,23.0,0.0
136485,-2.663012,-1.325148,0.524274,-0.584919,0.8294739999999999,0.658347,0.0,4.0,48.0,164.0,23.0,0.0
136486,-2.722352,-1.321611,0.454757,-1.372518,0.46419,0.11201300000000003,0.0,4.0,48.0,164.0,23.0,0.0
136487,-2.731367,-1.3238530000000002,0.457367,-0.710517,-0.189146,0.267027,0.0,4.0,48.0,164.0,23.0,0.0
136488,-2.759214,-1.322013,0.460844,-0.354022,-0.031774000000000004,0.178395,0.0,4.0,48.0,164.0,23.0,0.0
136489,-2.793911,-1.317248,0.461083,-0.16128399999999998,0.112889,0.028748000000000006,0.0,4.0,48.0,164.0,23.0,0.0
136490,-2.828533,-1.305998,0.459911,0.14140999999999998,0.13501300000000002,-0.048425,0.0,4.0,48.0,164.0,23.0,0.0
136491,-2.868227,-1.282642,0.444917,0.3948,0.133546,-0.175362,0.0,4.0,48.0,164.0,23.0,0.0
136492,-2.906159,-1.245423,0.414261,0.576318,0.298806,-0.050484,0.0,4.0,48.0,164.0,23.0,0.0
136493,-2.904553,-1.200476,0.403011,0.272409,0.316186,-0.06454,0.0,4.0,48.0,164.0,23.0,0.0
136494,-2.866721,-1.163574,0.419742,-0.172211,0.161411,-0.21375500000000006,0.0,4.0,48.0,164.0,23.0,0.0
136495,-2.821998,-1.136516,0.451908,-0.464139,0.183113,-0.018015,0.0,4.0,48.0,164.0,23.0,0.0
136496,-2.806114,-1.1100139999999998,0.477966,-0.621256,0.28534,0.134471,0.0,4.0,48.0,164.0,23.0,0.0
136497,-2.812725,-1.090594,0.49587,-0.358403,0.28563,0.218646,0.0,4.0,48.0,164.0,23.0,0.0
136498,-2.820502,-1.084979,0.514878,-0.059487,-0.04622,0.085796,0.0,4.0,48.0,164.0,23.0,0.0
136499,-2.8256900000000003,-1.091854,0.537038,0.14615899999999998,-0.319398,-0.036233,0.0,4.0,48.0,164.0,23.0,0.0
136500,-2.829466,-1.106199,0.558932,0.222093,-0.40627,-0.038051,0.0,4.0,48.0,164.0,23.0,0.0
136501,-2.835435,-1.123587,0.574819,0.176021,-0.358002,-0.020011,0.0,4.0,48.0,164.0,23.0,0.0
136502,-2.843496,-1.138644,0.5841310000000001,0.105872,-0.314469,-0.007809999999999998,0.0,4.0,48.0,164.0,23.0,0.0
136503,-2.845178,-1.152684,0.595676,0.166418,-0.4822770000000001,-0.160608,0.0,4.0,48.0,164.0,23.0,0.0
136504,-2.840185,-1.175122,0.612309,0.218146,-0.726036,-0.250241,0.0,4.0,48.0,164.0,23.0,0.0
136505,-2.834083,-1.207276,0.628529,0.073272,-0.639378,-0.05735800000000001,0.0,4.0,48.0,164.0,23.0,0.0
136506,-2.822209,-1.240148,0.644595,-0.051987,-0.28930700000000004,0.268506,0.0,4.0,48.0,164.0,23.0,0.0
136507,-2.81672,-1.260745,0.653163,-0.240452,0.20558,0.364673,0.0,4.0,48.0,164.0,23.0,0.0
136508,-2.812314,-1.264769,0.6678569999999999,-0.52579,0.427184,0.291588,0.0,4.0,48.0,164.0,23.0,0.0
136509,-2.815896,-1.256965,0.682153,-0.313862,0.29452399999999995,0.322497,0.0,4.0,48.0,164.0,23.0,0.0
136510,-2.824417,-1.245912,0.691225,-0.202045,-0.076304,0.454439,0.0,4.0,48.0,164.0,23.0,0.0
136511,-2.842699,-1.230014,0.6921430000000001,0.028541000000000007,0.060879,0.4169310000000001,0.0,4.0,48.0,164.0,23.0,0.0
136512,-2.911943,-1.171748,0.6479199999999999,-0.039026,2.338823,-1.530437,0.0,4.0,48.0,164.0,23.0,0.0
136513,-2.98721,-1.135095,0.612991,-0.490684,1.164943,0.47009,0.0,4.0,48.0,164.0,23.0,0.0
136514,-2.988684,-1.106203,0.6066819999999999,-0.301698,-0.8428260000000001,-0.520271,0.0,4.0,48.0,164.0,23.0,0.0
136515,-2.973588,-1.0937629999999998,0.629801,-0.197083,-0.355311,-0.138596,0.0,4.0,48.0,164.0,23.0,0.0
136516,-2.976691,-1.08411,0.633629,0.019607,0.8547290000000001,-0.497919,0.0,4.0,48.0,164.0,23.0,0.0
136517,-3.007245,-1.103046,0.618875,-0.34633800000000003,1.250466,0.044606,0.0,4.0,48.0,164.0,23.0,0.0
136518,-2.989659,-1.135506,0.631892,-0.097475,0.645041,0.120417,0.0,4.0,48.0,164.0,23.0,0.0
136519,-2.986384,-1.172689,0.632827,-0.268435,0.278979,-0.106199,0.0,4.0,48.0,164.0,23.0,0.0
136520,-2.9970060000000003,-1.214318,0.626831,-0.28501,0.097948,-0.126162,0.0,4.0,48.0,164.0,23.0,0.0
136521,-3.008729,-1.261057,0.623467,-0.124182,-0.196599,-0.105267,0.0,4.0,48.0,164.0,23.0,0.0
136522,-3.023664,-1.310491,0.6166560000000001,-0.106082,-0.33472,-0.151508,0.0,4.0,48.0,164.0,23.0,0.0
136523,-3.047603,-1.360164,0.6030220000000001,-0.180827,-0.370462,-0.085382,0.0,4.0,48.0,164.0,23.0,0.0
136524,-3.0944700000000003,-1.405532,0.57325,-0.212197,-0.287645,0.011371,0.0,4.0,48.0,164.0,23.0,0.0
136525,3.085971,-1.440928,0.49328,-0.19083,-0.222429,-0.027987,0.0,4.0,48.0,164.0,23.0,0.0
136526,2.916812,-1.4664,0.346566,-0.103535,-0.34883400000000003,-0.101314,0.0,4.0,48.0,164.0,23.0,0.0
136527,2.690905,-1.483286,0.139921,-0.065433,-0.451679,0.052398,0.0,4.0,48.0,164.0,23.0,0.0
136528,2.395842,-1.49076,-0.143236,-0.145783,-0.278964,0.067935,0.0,4.0,48.0,164.0,23.0,0.0
136529,2.100066,-1.48776,-0.433406,-0.296635,0.008466,-0.004021,0.0,4.0,48.0,164.0,23.0,0.0
136530,1.895461,-1.479952,-0.6292760000000001,-0.31311700000000003,0.164554,0.199035,0.0,4.0,48.0,164.0,23.0,0.0
136531,1.792159,-1.473475,-0.721619,-0.336043,0.22365,0.217342,0.0,4.0,48.0,164.0,23.0,0.0
136532,1.745712,-1.469434,-0.757066,-0.488254,0.194433,0.084413,0.0,4.0,48.0,164.0,23.0,0.0
136533,1.7543369999999998,-1.4644,-0.733205,-0.7862100000000001,0.275293,-0.047471,0.0,4.0,48.0,164.0,23.0,0.0
136534,1.804431,-1.4598799999999998,-0.6557470000000001,-0.774596,0.465892,-0.078351,0.0,4.0,48.0,164.0,23.0,0.0
136535,1.924149,-1.460976,-0.496355,-0.29585500000000003,0.365033,-0.1372,0.0,4.0,48.0,164.0,23.0,0.0
136536,2.162094,-1.462123,-0.21200700000000006,0.040384,0.283624,-0.178081,0.0,4.0,48.0,164.0,23.0,0.0
136537,2.445066,-1.449193,0.12343,-0.134449,0.287795,-0.369106,0.0,4.0,48.0,164.0,23.0,0.0
136538,2.660607,-1.427747,0.396258,-0.485308,0.4594180000000001,-0.2443,0.0,4.0,48.0,164.0,23.0,0.0
136539,2.860605,-1.402417,0.647985,-0.344318,0.313688,-0.343216,0.0,4.0,48.0,164.0,23.0,0.0
136540,3.02129,-1.372662,0.8631489999999999,0.006633,0.253421,-0.425164,0.0,4.0,48.0,164.0,23.0,0.0
136541,3.124593,-1.343557,1.022474,0.159121,0.344907,-0.233488,0.0,4.0,48.0,164.0,23.0,0.0
136542,-3.090558,-1.315384,1.139338,0.032583,0.295289,-0.232067,0.0,4.0,48.0,164.0,23.0,0.0
136543,-3.035591,-1.289795,1.242812,-0.192027,0.09069,-0.275782,0.0,4.0,48.0,164.0,23.0,0.0
136544,-2.990346,-1.267508,1.3478139999999998,-0.319546,0.02057,-0.32931900000000003,0.0,4.0,48.0,164.0,23.0,0.0
136545,-2.96755,-1.2479790000000002,1.447846,-0.37826,0.148563,-0.28990900000000003,0.0,4.0,48.0,164.0,23.0,0.0
136546,-2.965419,-1.231473,1.539888,-0.349239,0.097395,-0.333926,0.0,4.0,48.0,164.0,23.0,0.0
136547,-2.969619,-1.217318,1.632487,-0.296823,-0.023288,-0.382032,0.0,4.0,48.0,164.0,23.0,0.0
136548,-2.98028,-1.205317,1.7201419999999998,-0.206708,-0.149056,-0.417078,0.0,4.0,48.0,164.0,23.0,0.0
136549,-2.998845,-1.195265,1.799227,0.158887,-0.334671,-0.553183,0.0,4.0,48.0,164.0,23.0,0.0
136550,-3.019631,-1.187194,1.86854,0.252296,-0.308731,-0.5707399999999999,0.0,4.0,48.0,164.0,23.0,0.0
136551,-3.036876,-1.182496,1.928811,0.31534,-0.191194,-0.473962,0.0,4.0,48.0,164.0,23.0,0.0
136552,-3.048273,-1.186496,1.979633,0.373079,-0.237562,-0.344891,0.0,4.0,48.0,164.0,23.0,0.0
136553,-3.054667,-1.197478,2.019339,0.374186,-0.288468,-0.266642,0.0,4.0,48.0,164.0,23.0,0.0
136554,-3.061091,-1.20974,2.04389,0.243261,-0.308464,0.147449,0.0,4.0,48.0,164.0,23.0,0.0
136555,-3.0707150000000003,-1.21831,2.056506,0.060165,-0.244547,0.235662,0.0,4.0,48.0,164.0,23.0,0.0
136556,-3.083119,-1.223612,2.06604,-0.323015,-0.236584,0.386463,0.0,4.0,48.0,164.0,23.0,0.0
136557,-3.088341,-1.229182,2.083143,-0.767894,-0.161377,0.233229,0.0,4.0,48.0,164.0,23.0,0.0
136558,-3.066601,-1.225008,2.126932,-0.839541,0.273486,0.207941,0.0,4.0,48.0,164.0,23.0,0.0
136559,-3.026527,-1.219908,2.1955720000000003,-0.6353479999999999,0.368428,0.416335,0.0,4.0,48.0,164.0,23.0,0.0
136560,-2.988889,-1.217952,2.2719970000000003,-0.497617,0.110709,0.457934,0.0,4.0,48.0,164.0,23.0,0.0
136561,-2.965306,-1.201939,2.336697,-0.349318,0.912933,-0.094562,0.0,4.0,48.0,164.0,23.0,0.0
136562,-2.956145,-1.194526,2.387821,0.032066000000000004,1.267956,-0.411821,0.0,4.0,48.0,164.0,23.0,0.0
136563,-2.963942,-1.199045,2.419788,0.615617,0.29165,-0.371775,0.0,4.0,48.0,164.0,23.0,0.0
136564,-2.97038,-1.199805,2.434543,0.380955,-0.5917279999999999,-0.390267,0.0,4.0,48.0,164.0,23.0,0.0
136565,-2.954678,-1.204979,2.460918,0.0868,-0.487298,-0.648319,0.0,4.0,48.0,164.0,23.0,0.0
136566,-2.941253,-1.225506,2.488303,-0.194392,0.329683,-0.475243,0.0,4.0,48.0,164.0,23.0,0.0
136567,-2.949494,-1.250801,2.502322,-0.205737,0.66322,-0.052565,0.0,4.0,48.0,164.0,23.0,0.0
136568,-2.95264,-1.274214,2.518208,-0.074287,-0.002102,-0.063598,0.0,4.0,48.0,164.0,23.0,0.0
136569,-2.920919,-1.298802,2.561282,0.073724,-0.337596,-0.03099,0.0,4.0,48.0,164.0,23.0,0.0
136570,-2.887883,-1.325798,2.603425,-0.019038,-0.356643,0.032712,0.0,4.0,48.0,164.0,23.0,0.0
136571,-2.865595,-1.352405,2.631695,-0.147789,-0.199315,-0.028916000000000008,0.0,4.0,48.0,164.0,23.0,0.0
136572,-2.836477,-1.376819,2.665775,-0.212193,-0.116347,-0.107001,0.0,4.0,48.0,164.0,23.0,0.0
136573,-2.7951,-1.401109,2.718208,-0.124593,-0.091503,-0.056592,0.0,4.0,48.0,164.0,23.0,0.0
136574,-2.749995,-1.424834,2.780329,-0.068049,-0.130388,0.009452,0.0,4.0,48.0,164.0,23.0,0.0
136575,-2.695196,-1.446834,2.849157,-0.039313,-0.17885,0.050396,0.0,4.0,48.0,164.0,23.0,0.0
136576,-2.627938,-1.468494,2.922768,-0.076611,-0.06573999999999999,0.083987,0.0,4.0,48.0,164.0,23.0,0.0
136577,-2.531748,-1.4901870000000002,3.020127,-0.12829400000000002,-0.093143,0.130271,0.0,4.0,48.0,164.0,23.0,0.0
136578,-2.383331,-1.510516,-3.115587,-0.056634,-0.208313,0.120268,0.0,4.0,48.0,164.0,23.0,0.0
136579,-2.129089,-1.528032,-2.863127,-0.030711,-0.207414,0.078391,0.0,4.0,48.0,164.0,23.0,0.0
136580,-1.702638,-1.541147,-2.438261,-0.059507,-0.17934,0.021807,0.0,4.0,48.0,164.0,23.0,0.0
136581,-1.007238,-1.546074,-1.743505,-0.172381,0.097596,0.007148000000000002,0.0,4.0,48.0,164.0,23.0,0.0
136582,-0.464371,-1.541341,-1.201667,-0.161592,0.209739,0.13328199999999998,0.0,4.0,48.0,164.0,23.0,0.0
136583,-0.27468200000000004,-1.534698,-1.0146879999999998,-0.109305,0.158397,0.249553,0.0,4.0,48.0,164.0,23.0,0.0
136584,-0.275243,-1.530562,-1.021417,-0.329996,0.179032,0.15685,0.0,4.0,48.0,164.0,23.0,0.0
136585,-0.330415,-1.532416,-1.081107,-0.586584,0.364948,-0.008975,0.0,4.0,48.0,164.0,23.0,0.0
136586,-0.491003,-1.537766,-1.238375,-0.5555859999999999,0.465465,-0.058806,0.0,4.0,48.0,164.0,23.0,0.0
136587,-0.935236,-1.5407540000000002,-1.668781,-0.167451,0.486154,0.021699,0.0,4.0,48.0,164.0,23.0,0.0
136588,-1.702757,-1.530177,-2.416061,-0.010257,0.354127,-0.160599,0.0,4.0,48.0,164.0,23.0,0.0
136589,-2.203471,-1.499622,-2.89275,-0.037224,0.145919,-0.157895,0.0,4.0,48.0,164.0,23.0,0.0
136590,-2.475812,-1.457233,-3.133121,-0.111913,0.136294,-0.363036,0.0,4.0,48.0,164.0,23.0,0.0
136591,-2.61957,-1.414266,3.044646,-0.092106,0.288288,-0.209029,0.0,4.0,48.0,164.0,23.0,0.0
136592,-2.667068,-1.369743,3.0299150000000004,0.081933,0.418611,-0.102249,0.0,4.0,48.0,164.0,23.0,0.0
136593,-2.669509,-1.321181,3.049492,0.221423,0.331804,-0.07686,0.0,4.0,48.0,164.0,23.0,0.0
136594,-2.661233,-1.272986,3.072368,0.223216,0.156049,-0.20102,0.0,4.0,48.0,164.0,23.0,0.0
136595,-2.655968,-1.230545,3.092726,0.076176,0.051546,-0.256806,0.0,4.0,48.0,164.0,23.0,0.0
136596,-2.658042,-1.193603,3.116776,-0.08209,-0.078704,-0.244543,0.0,4.0,48.0,164.0,23.0,0.0
136597,-2.6637470000000003,-1.161536,-3.13506,-0.053286,-0.261104,-0.230253,0.0,4.0,48.0,164.0,23.0,0.0
136598,-2.673248,-1.136273,-3.105674,0.045017,-0.294232,-0.235088,0.0,4.0,48.0,164.0,23.0,0.0
136599,-2.684916,-1.118025,-3.080621,0.156334,-0.304588,-0.226697,0.0,4.0,48.0,164.0,23.0,0.0
136600,-2.695744,-1.105673,-3.057261,0.239794,-0.338148,-0.260712,0.0,4.0,48.0,164.0,23.0,0.0
136601,-2.701048,-1.099509,-3.030657,0.282075,-0.373345,-0.295929,0.0,4.0,48.0,164.0,23.0,0.0
136602,-2.701131,-1.100142,-3.0033,0.273225,-0.503958,-0.24422600000000005,0.0,4.0,48.0,164.0,23.0,0.0
136603,-2.7012400000000003,-1.107959,-2.983521,0.182542,-0.572142,-0.195603,0.0,4.0,48.0,164.0,23.0,0.0
136604,-2.695067,-1.122948,-2.966932,0.101506,-0.619505,-0.163129,0.0,4.0,48.0,164.0,23.0,0.0
136605,-2.677084,-1.142281,-2.944839,0.067222,-0.603905,-0.032937,0.0,4.0,48.0,164.0,23.0,0.0
136606,-2.6561630000000003,-1.1613790000000002,-2.920516,0.052727,-0.603144,0.046865,0.0,4.0,48.0,164.0,23.0,0.0
136607,-2.648645,-1.176415,-2.907885,0.0026,-0.515092,0.033501,0.0,4.0,48.0,164.0,23.0,0.0
136608,-2.660301,-1.186208,-2.908326,-0.226407,-0.319714,-0.024986,0.0,4.0,48.0,164.0,23.0,0.0
136609,-2.672967,-1.195765,-2.907769,-0.30468,0.451401,-0.125135,0.0,4.0,48.0,164.0,23.0,0.0
136610,-2.673452,-1.212466,-2.894712,-0.206284,0.690546,-0.07710499999999999,0.0,4.0,48.0,164.0,23.0,0.0
136611,-2.651581,-1.235241,-2.853817,-0.09132,0.669618,0.007937999999999999,0.0,4.0,48.0,164.0,23.0,0.0
136612,-2.60569,-1.2552370000000002,-2.790534,0.206067,-0.24925300000000006,-0.16109,0.0,4.0,48.0,164.0,23.0,0.0
136613,-2.55468,-1.272924,-2.729969,0.232843,-0.34372,-0.262645,0.0,4.0,48.0,164.0,23.0,0.0
136614,-2.526929,-1.283318,-2.6875880000000003,0.284022,-0.34977,-0.381976,0.0,4.0,48.0,164.0,23.0,0.0
136615,-2.539863,-1.283547,-2.676046,-0.002101,0.116535,-0.29368,0.0,4.0,48.0,164.0,23.0,0.0
136616,-2.586414,-1.276199,-2.696368,-0.099898,0.317495,-0.278794,0.0,4.0,48.0,164.0,23.0,0.0
136617,-2.633252,-1.260565,-2.717238,-0.061962,0.451866,-0.170766,0.0,4.0,48.0,164.0,23.0,0.0
136618,-2.665693,-1.243911,-2.732954,0.201727,1.076467,0.174325,0.0,4.0,48.0,164.0,23.0,0.0
136619,-2.677955,-1.219902,-2.749619,-0.034666,0.513754,0.145466,0.0,4.0,48.0,164.0,23.0,0.0
136620,-2.678826,-1.207573,-2.7715,-0.40937,-0.420032,-0.08390700000000001,0.0,4.0,48.0,164.0,23.0,0.0
136621,-2.677335,-1.205447,-2.782989,-0.483538,-0.302941,-0.164655,0.0,4.0,48.0,164.0,23.0,0.0
136622,-2.690142,-1.2104629999999998,-2.783023,-0.425876,-0.009647,-0.179881,0.0,4.0,48.0,164.0,23.0,0.0
136623,-2.698933,-1.219234,-2.763962,-0.024294,0.352317,0.240927,0.0,4.0,48.0,164.0,23.0,0.0
136624,-2.697117,-1.225808,-2.737867,0.032131,0.5147619999999999,0.354244,0.0,4.0,48.0,164.0,23.0,0.0
136625,-2.686553,-1.229547,-2.716894,-0.040602,0.449447,0.308254,0.0,4.0,48.0,164.0,23.0,0.0
136626,-2.6581360000000003,-1.229293,-2.689035,-0.126477,-0.028174,0.07547899999999999,0.0,4.0,48.0,164.0,23.0,0.0
136627,-2.636776,-1.22333,-2.671216,-8e-05,-0.378242,-0.120974,0.0,4.0,48.0,164.0,23.0,0.0
136628,-2.6456060000000003,-1.213627,-2.682658,0.086517,-0.350312,-0.2196,0.0,4.0,48.0,164.0,23.0,0.0
136629,-2.673486,-1.19789,-2.71306,0.218152,-0.355925,-0.299204,0.0,4.0,48.0,164.0,23.0,0.0
136630,-2.711589,-1.17133,-2.757071,0.29507,-0.354679,-0.381032,0.0,4.0,48.0,164.0,23.0,0.0
136631,-2.746173,-1.137318,-2.798409,0.182917,-0.27511,-0.247376,0.0,4.0,48.0,164.0,23.0,0.0
136632,-2.749121,-1.0997,-2.813478,0.066465,-0.121098,-0.167283,0.0,4.0,48.0,164.0,23.0,0.0
136633,-2.729727,-1.062995,-2.806168,0.08895299999999999,-0.009482,-0.26866100000000004,0.0,4.0,48.0,164.0,23.0,0.0
136634,-2.710829,-1.032197,-2.798034,-0.029752,0.414308,-0.179786,0.0,4.0,48.0,164.0,23.0,0.0
136635,-2.701826,-1.00842,-2.794378,-0.239898,0.465594,0.328589,0.0,4.0,48.0,164.0,23.0,0.0
136636,-2.681997,-0.998319,-2.780511,0.014246,0.096252,0.142657,0.0,4.0,48.0,164.0,23.0,0.0
136637,-2.6578060000000003,-1.002242,-2.760399,0.127898,-0.016981,0.016263999999999997,0.0,4.0,48.0,164.0,23.0,0.0
136638,-2.641498,-1.020043,-2.741585,-0.000901,-0.055576,0.159947,0.0,4.0,48.0,164.0,23.0,0.0
136639,-2.631852,-1.044317,-2.727513,-0.098463,0.15978699999999998,0.413106,0.0,4.0,48.0,164.0,23.0,0.0
136640,-2.622104,-1.064765,-2.717824,-0.06215,0.218327,0.457444,0.0,4.0,48.0,164.0,23.0,0.0
136641,-2.612827,-1.085647,-2.712514,-0.048985,-0.027077,0.17013599999999998,0.0,4.0,48.0,164.0,23.0,0.0
136642,-2.5959060000000003,-1.114053,-2.703168,-0.135408,-0.158861,0.068202,0.0,4.0,48.0,164.0,23.0,0.0
136643,-2.561243,-1.148477,-2.678433,-0.107216,-0.172181,0.061611,0.0,4.0,48.0,164.0,23.0,0.0
136644,-2.513602,-1.184907,-2.635164,0.043909,-0.132427,-0.111023,0.0,4.0,48.0,164.0,23.0,0.0
136645,-2.463283,-1.21469,-2.58426,0.173929,-0.243017,-0.28539200000000003,0.0,4.0,48.0,164.0,23.0,0.0
136646,-2.408449,-1.236204,-2.524242,0.215086,-0.5577489999999999,-0.334552,0.0,4.0,48.0,164.0,23.0,0.0
136647,-2.361928,-1.2539209999999998,-2.465226,0.126744,-0.881656,-0.26266300000000004,0.0,4.0,48.0,164.0,23.0,0.0
136648,-2.325654,-1.269831,-2.41387,0.180218,-0.960285,-0.27618400000000004,0.0,4.0,48.0,164.0,23.0,0.0
136649,-2.318089,-1.276683,-2.386123,0.22873,-0.7151310000000001,-0.42622,0.0,4.0,48.0,164.0,23.0,0.0
136650,-2.353672,-1.277033,-2.388407,0.17210899999999998,0.133644,-0.233942,0.0,4.0,48.0,164.0,23.0,0.0
136651,-2.3967970000000003,-1.268216,-2.394243,-0.094537,0.989887,0.258909,0.0,4.0,48.0,164.0,23.0,0.0
136652,-2.417084,-1.250932,-2.3964830000000004,0.059178,0.685472,0.06994199999999999,0.0,4.0,48.0,164.0,23.0,0.0
136653,-2.442967,-1.242799,-2.413518,0.240349,0.27824,0.224008,0.0,4.0,48.0,164.0,23.0,0.0
136654,-2.480029,-1.226272,-2.463233,-0.394096,0.272417,0.139249,0.0,4.0,48.0,164.0,23.0,0.0
136655,-2.488992,-1.218769,-2.493868,-0.5216189999999999,0.096649,0.248923,0.0,4.0,48.0,164.0,23.0,0.0
136656,-2.478986,-1.209612,-2.496381,-0.44438,-0.11329000000000003,0.109987,0.0,4.0,48.0,164.0,23.0,0.0
136657,-2.485098,-1.202161,-2.504038,-0.397466,0.283061,0.189424,0.0,4.0,48.0,164.0,23.0,0.0
136658,-2.500477,-1.198112,-2.511895,-0.399623,0.284528,0.183051,0.0,4.0,48.0,164.0,23.0,0.0
136659,-2.515283,-1.189431,-2.520486,0.045223,0.26006,0.095118,0.0,4.0,48.0,164.0,23.0,0.0
136660,-2.534583,-1.174608,-2.537927,0.175302,-0.085136,-0.446121,0.0,4.0,48.0,164.0,23.0,0.0
136661,-2.5653740000000003,-1.151531,-2.569987,0.289443,-0.098599,-0.452248,0.0,4.0,48.0,164.0,23.0,0.0
136662,-2.607113,-1.117019,-2.611898,0.366975,-0.015497,-0.24993,0.0,4.0,48.0,164.0,23.0,0.0
136663,-2.639949,-1.073774,-2.652494,0.205069,0.045859,-0.232526,0.0,4.0,48.0,164.0,23.0,0.0
136664,-2.643911,-1.038707,-2.667467,0.139204,-0.057275,-0.164919,0.0,4.0,48.0,164.0,23.0,0.0
136665,-2.632017,-1.01222,-2.671161,0.08844199999999999,0.060589,-0.107847,0.0,4.0,48.0,164.0,23.0,0.0
136666,-2.624165,-0.982672,-2.6784790000000003,-0.083017,0.327456,0.13637,0.0,4.0,48.0,164.0,23.0,0.0
136667,-2.612968,-0.971571,-2.678587,-0.072995,0.333666,0.131528,0.0,4.0,48.0,164.0,23.0,0.0
136668,-2.598887,-0.980218,-2.670729,-0.041209,-0.271857,-0.139292,0.0,4.0,48.0,164.0,23.0,0.0
136669,-2.582955,-1.00452,-2.65573,0.027936,-0.165743,0.136221,0.0,4.0,48.0,164.0,23.0,0.0
136670,-2.565852,-1.034463,-2.635242,0.021787,-0.106475,0.277322,0.0,4.0,48.0,164.0,23.0,0.0
136671,-2.533145,-1.060523,-2.607259,0.155578,-0.17864100000000002,0.256952,0.0,4.0,48.0,164.0,23.0,0.0
136672,-2.494513,-1.0841040000000002,-2.581688,0.147206,-0.374989,0.20895,0.0,4.0,48.0,164.0,23.0,0.0
136673,-2.466029,-1.109268,-2.566647,-0.111914,-0.454867,0.113829,0.0,4.0,48.0,164.0,23.0,0.0
136674,-2.435675,-1.142402,-2.540947,-0.171041,-0.38023,0.018904,0.0,4.0,48.0,164.0,23.0,0.0
136675,-2.39451,-1.179725,-2.494117,0.039348,-0.060426,0.023654,0.0,4.0,48.0,164.0,23.0,0.0
136676,-2.367505,-1.212087,-2.448618,0.086052,0.05753,-0.190513,0.0,4.0,48.0,164.0,23.0,0.0
136677,-2.355521,-1.23469,-2.413341,0.205197,0.110458,-0.352848,0.0,4.0,48.0,164.0,23.0,0.0
136678,-2.355591,-1.242846,-2.385303,0.305804,0.259167,-0.108553,0.0,4.0,48.0,164.0,23.0,0.0
136679,-2.369362,-1.245516,-2.377056,0.122127,0.214014,-0.021448,0.0,4.0,48.0,164.0,23.0,0.0
136680,-2.420014,-1.244115,-2.415684,0.208008,0.035554,-0.735052,0.0,4.0,48.0,164.0,23.0,0.0
136681,-2.458032,-1.248046,-2.4408,0.017649,0.34380900000000003,0.068566,0.0,4.0,48.0,164.0,23.0,0.0
136682,-2.485746,-1.243336,-2.466019,-0.118308,0.980598,0.027621,0.0,4.0,48.0,164.0,23.0,0.0
136683,-2.500293,-1.23304,-2.484086,-0.353121,0.056088,-0.01868,0.0,4.0,48.0,164.0,23.0,0.0
136684,-2.475466,-1.223793,-2.469366,-0.283011,-0.169049,0.100933,0.0,4.0,48.0,164.0,23.0,0.0
136685,-2.461545,-1.218834,-2.456918,-0.044171,-0.30262,-0.064307,0.0,4.0,48.0,164.0,23.0,0.0
136686,-2.466603,-1.22078,-2.451759,0.034155,-0.028967000000000007,-0.007988,0.0,4.0,48.0,164.0,23.0,0.0
136687,-2.476658,-1.225144,-2.451838,0.030523,0.029986,0.03764,0.0,4.0,48.0,164.0,23.0,0.0
136688,-2.48267,-1.227186,-2.453118,0.057052,-0.049531,0.123343,0.0,4.0,48.0,164.0,23.0,0.0
136689,-2.482852,-1.226246,-2.452056,0.050679,-0.247273,0.039643,0.0,4.0,48.0,164.0,23.0,0.0
136690,-2.47894,-1.225689,-2.447392,0.064724,-0.318771,0.110628,0.0,4.0,48.0,164.0,23.0,0.0
136691,-2.47428,-1.2244540000000002,-2.445332,-0.021253,-0.251015,-0.049941,0.0,4.0,48.0,164.0,23.0,0.0
136692,-2.4756400000000003,-1.22389,-2.449661,-0.096117,-0.15251099999999998,-0.073501,0.0,4.0,48.0,164.0,23.0,0.0
136693,-2.481695,-1.221374,-2.458952,-0.015844999999999998,-0.178203,0.104973,0.0,4.0,48.0,164.0,23.0,0.0
136694,-2.4896,-1.214669,-2.473796,-0.041178,-0.094221,-0.014793,0.0,4.0,48.0,164.0,23.0,0.0
136695,-2.502561,-1.205323,-2.493955,-0.115575,0.023489,-0.208658,0.0,4.0,48.0,164.0,23.0,0.0
136696,-2.526314,-1.189129,-2.520701,-0.032705,0.247279,-0.361511,0.0,4.0,48.0,164.0,23.0,0.0
136697,-2.567543,-1.162496,-2.553289,-0.08997899999999999,0.471501,-0.033044,0.0,4.0,48.0,164.0,23.0,0.0
136698,-2.6120400000000004,-1.1210440000000002,-2.5897360000000003,-0.018505,0.637104,0.060433000000000014,0.0,4.0,48.0,164.0,23.0,0.0
136699,-2.644952,-1.076177,-2.614995,0.102679,0.381767,0.16508599999999998,0.0,4.0,48.0,164.0,23.0,0.0
136700,-2.653634,-1.044345,-2.625513,0.151864,0.43141,0.277308,0.0,4.0,48.0,164.0,23.0,0.0
136701,-2.644137,-1.021007,-2.628154,0.256985,0.560329,0.124882,0.0,4.0,48.0,164.0,23.0,0.0
136702,-2.641136,-1.004378,-2.6371450000000003,-0.047537,0.009397,0.062598,0.0,4.0,48.0,164.0,23.0,0.0
136703,-2.637216,-1.003044,-2.644641,-0.062209,-0.318942,-0.172253,0.0,4.0,48.0,164.0,23.0,0.0
136704,-2.623291,-1.0150370000000002,-2.638946,0.110266,-0.350553,-0.184278,0.0,4.0,48.0,164.0,23.0,0.0
136705,-2.604611,-1.039222,-2.622892,0.14241700000000002,-0.32162,-0.061325,0.0,4.0,48.0,164.0,23.0,0.0
136706,-2.580164,-1.068796,-2.596756,0.085127,-0.357579,0.066075,0.0,4.0,48.0,164.0,23.0,0.0
136707,-2.550664,-1.0956860000000002,-2.568061,0.065443,-0.424338,0.124257,0.0,4.0,48.0,164.0,23.0,0.0
136708,-2.514688,-1.120667,-2.5392490000000003,0.035551,-0.485779,0.089518,0.0,4.0,48.0,164.0,23.0,0.0
136709,-2.47753,-1.147132,-2.50895,-0.020303,-0.509794,0.003365,0.0,4.0,48.0,164.0,23.0,0.0
136710,-2.453093,-1.17414,-2.481475,-0.106775,-0.451167,-0.037719,0.0,4.0,48.0,164.0,23.0,0.0
136711,-2.438241,-1.198816,-2.455521,-0.135953,-0.432571,0.066415,0.0,4.0,48.0,164.0,23.0,0.0
136712,-2.422995,-1.222097,-2.425385,-0.115429,-0.341521,0.051749,0.0,4.0,48.0,164.0,23.0,0.0
