,attitude.roll,attitude.pitch,attitude.yaw,userAcceleration.x,userAcceleration.y,userAcceleration.z,act,id,weight,height,age,gender
289456,-1.529818,-0.176289,0.808758,-0.081867,0.000312,-0.055387,0.0,9.0,72.0,164.0,31.0,0.0
289457,-1.517146,-0.169138,0.815176,-0.095008,-0.004942,0.016482,0.0,9.0,72.0,164.0,31.0,0.0
289458,-1.513839,-0.166153,0.8191149999999999,-0.050472,-0.080947,-0.085551,0.0,9.0,72.0,164.0,31.0,0.0
289459,-1.519404,-0.166329,0.817491,-0.059115,-0.016666999999999998,-0.06275800000000001,0.0,9.0,72.0,164.0,31.0,0.0
289460,-1.533914,-0.166594,0.812348,-0.051295000000000014,0.019295,-0.060118,0.0,9.0,72.0,164.0,31.0,0.0
289461,-1.559053,-0.16853800000000002,0.804945,-0.045203,-0.016816,0.02917,0.0,9.0,72.0,164.0,31.0,0.0
289462,-1.591523,-0.174015,0.795144,-0.07376100000000001,0.00101,0.116352,0.0,9.0,72.0,164.0,31.0,0.0
289463,-1.619475,-0.181943,0.782578,-0.036994,0.014738,0.07362,0.0,9.0,72.0,164.0,31.0,0.0
289464,-1.6397959999999998,-0.192851,0.770954,-0.046957,0.098518,0.148291,0.0,9.0,72.0,164.0,31.0,0.0
289465,-1.650583,-0.207147,0.769842,0.26274899999999995,-0.083583,0.166235,0.0,9.0,72.0,164.0,31.0,0.0
289466,-1.644118,-0.212932,0.776816,0.139227,-0.148811,-0.035544,0.0,9.0,72.0,164.0,31.0,0.0
289467,-1.642564,-0.211048,0.778251,-0.06266000000000001,0.019458,0.018219,0.0,9.0,72.0,164.0,31.0,0.0
289468,-1.6403759999999998,-0.210251,0.7799229999999999,-0.02798,-0.004190999999999999,-0.004804999999999999,0.0,9.0,72.0,164.0,31.0,0.0
289469,-1.642432,-0.210894,0.779253,-0.037946,0.027329000000000003,0.05553,0.0,9.0,72.0,164.0,31.0,0.0
289470,-1.642875,-0.212812,0.780738,0.017056,0.022967,0.018705,0.0,9.0,72.0,164.0,31.0,0.0
289471,-1.644936,-0.214563,0.781362,0.018888,0.00528,0.052124,0.0,9.0,72.0,164.0,31.0,0.0
289472,-1.642738,-0.214909,0.784263,0.001027,0.016554,-0.008229,0.0,9.0,72.0,164.0,31.0,0.0
289473,-1.640019,-0.214943,0.789546,0.009935,-0.015095,0.018682,0.0,9.0,72.0,164.0,31.0,0.0
289474,-1.639,-0.215818,0.793979,0.002707,-0.025441,0.009862,0.0,9.0,72.0,164.0,31.0,0.0
289475,-1.639373,-0.215312,0.795421,0.012433,0.010896,0.067383,0.0,9.0,72.0,164.0,31.0,0.0
289476,-1.633631,-0.213939,0.799873,-0.013166999999999998,0.427154,0.279658,0.0,9.0,72.0,164.0,31.0,0.0
289477,-1.605066,-0.210407,0.818126,-0.005011,0.058354,-0.192748,0.0,9.0,72.0,164.0,31.0,0.0
289478,-1.599429,-0.21000700000000005,0.826369,0.0792,-0.208436,-0.060836,0.0,9.0,72.0,164.0,31.0,0.0
289479,-1.606966,-0.210405,0.828823,-0.001993,-0.13530899999999998,0.053457000000000005,0.0,9.0,72.0,164.0,31.0,0.0
289480,-1.607381,-0.20919,0.8279280000000001,0.0007469999999999999,-0.008173999999999999,0.073276,0.0,9.0,72.0,164.0,31.0,0.0
289481,-1.606198,-0.207667,0.8253530000000001,0.006292,0.015044,0.026325,0.0,9.0,72.0,164.0,31.0,0.0
289482,-1.6022610000000002,-0.206498,0.824932,0.256523,-0.141572,0.707186,0.0,9.0,72.0,164.0,31.0,0.0
289483,-1.578294,-0.202378,0.837305,0.038502,0.041662,-0.17281,0.0,9.0,72.0,164.0,31.0,0.0
289484,-1.586151,-0.200093,0.834009,-0.074823,0.00763,0.101972,0.0,9.0,72.0,164.0,31.0,0.0
289485,-1.585163,-0.198221,0.830909,-0.023199,0.111348,-0.002412,0.0,9.0,72.0,164.0,31.0,0.0
289486,-1.578019,-0.198013,0.8335229999999999,-0.034526,0.168772,0.0008380000000000001,0.0,9.0,72.0,164.0,31.0,0.0
289487,-1.574842,-0.200463,0.8394780000000001,-0.018224,0.132771,-0.010922,0.0,9.0,72.0,164.0,31.0,0.0
289488,-1.579122,-0.203473,0.8442790000000001,0.026358,-0.065506,-0.000998,0.0,9.0,72.0,164.0,31.0,0.0
289489,-1.589202,-0.206114,0.844385,0.018822,-0.151969,-0.108073,0.0,9.0,72.0,164.0,31.0,0.0
289490,-1.604619,-0.206233,0.836044,0.031237,-0.065752,0.195752,0.0,9.0,72.0,164.0,31.0,0.0
289491,-1.602085,-0.205692,0.833881,-0.006093,0.074549,0.017516999999999998,0.0,9.0,72.0,164.0,31.0,0.0
289492,-1.599984,-0.205363,0.8325030000000001,0.014741999999999996,0.082363,-0.037313,0.0,9.0,72.0,164.0,31.0,0.0
289493,-1.600193,-0.204935,0.830076,0.011176,0.061359,-0.025084,0.0,9.0,72.0,164.0,31.0,0.0
289494,-1.602287,-0.204663,0.827204,0.0031420000000000003,0.019145,0.022669,0.0,9.0,72.0,164.0,31.0,0.0
289495,-1.60307,-0.205874,0.822256,-0.010343,0.003311,0.029068,0.0,9.0,72.0,164.0,31.0,0.0
289496,-1.603463,-0.20692600000000005,0.8152159999999999,-0.007306,0.026023,0.024311000000000003,0.0,9.0,72.0,164.0,31.0,0.0
289497,-1.604251,-0.207015,0.807617,0.001852,0.042003,0.025478,0.0,9.0,72.0,164.0,31.0,0.0
289498,-1.605186,-0.207116,0.79956,-0.011979,0.056462,0.03021,0.0,9.0,72.0,164.0,31.0,0.0
289499,-1.607061,-0.206503,0.791134,-0.014954,0.037104000000000005,0.025625,0.0,9.0,72.0,164.0,31.0,0.0
289500,-1.608695,-0.206091,0.782606,-0.003729,0.04216,0.042807,0.0,9.0,72.0,164.0,31.0,0.0
289501,-1.610756,-0.206398,0.77389,-0.011102,0.051458,0.048484,0.0,9.0,72.0,164.0,31.0,0.0
289502,-1.61255,-0.206905,0.764528,-0.015826,0.055829,0.052075,0.0,9.0,72.0,164.0,31.0,0.0
289503,-1.614461,-0.206822,0.755208,-0.031056,0.029741000000000007,0.058644000000000016,0.0,9.0,72.0,164.0,31.0,0.0
289504,-1.617268,-0.207072,0.7463770000000001,-0.035702,0.021394,0.031258999999999995,0.0,9.0,72.0,164.0,31.0,0.0
289505,-1.624106,-0.207481,0.735265,-0.002291,0.034452,0.065077,0.0,9.0,72.0,164.0,31.0,0.0
289506,-1.630573,-0.206302,0.722264,0.017613,0.01014,0.047728,0.0,9.0,72.0,164.0,31.0,0.0
289507,-1.6389470000000002,-0.2038,0.706929,0.009556,0.007812999999999999,0.014702000000000003,0.0,9.0,72.0,164.0,31.0,0.0
289508,-1.650782,-0.199376,0.690078,0.024931,0.039064,-0.007898,0.0,9.0,72.0,164.0,31.0,0.0
289509,-1.662453,-0.194009,0.674503,0.034654000000000004,-0.020752,0.0048850000000000005,0.0,9.0,72.0,164.0,31.0,0.0
289510,-1.67288,-0.188219,0.660262,0.045562,-0.092185,0.044639,0.0,9.0,72.0,164.0,31.0,0.0
289511,-1.680057,-0.1822,0.649939,-0.011514,-0.096721,0.06656000000000001,0.0,9.0,72.0,164.0,31.0,0.0
289512,-1.684581,-0.176433,0.643872,-0.050171,-0.037610000000000005,0.087244,0.0,9.0,72.0,164.0,31.0,0.0
289513,-1.690624,-0.170222,0.636559,-0.004147,0.124727,0.112534,0.0,9.0,72.0,164.0,31.0,0.0
289514,-1.700807,-0.16501400000000002,0.6255890000000001,0.067288,0.14329,0.119569,0.0,9.0,72.0,164.0,31.0,0.0
289515,-1.712449,-0.162055,0.6108399999999999,0.074022,0.073837,0.096221,0.0,9.0,72.0,164.0,31.0,0.0
289516,-1.724718,-0.160748,0.5909,0.059919000000000014,0.020043,0.08477799999999999,0.0,9.0,72.0,164.0,31.0,0.0
289517,-1.73842,-0.160652,0.56711,0.042037,-0.017567,0.08250199999999999,0.0,9.0,72.0,164.0,31.0,0.0
289518,-1.7504560000000002,-0.161053,0.542888,0.036579,-0.041034,0.073665,0.0,9.0,72.0,164.0,31.0,0.0
289519,-1.758279,-0.15948900000000002,0.52071,0.040252,-0.045578,0.064485,0.0,9.0,72.0,164.0,31.0,0.0
289520,-1.765045,-0.157802,0.501401,0.075089,-0.054395000000000006,0.068511,0.0,9.0,72.0,164.0,31.0,0.0
289521,-1.770909,-0.157032,0.484451,0.090919,-0.058136,0.088214,0.0,9.0,72.0,164.0,31.0,0.0
289522,-1.775778,-0.157914,0.468808,0.083758,-0.063981,0.111393,0.0,9.0,72.0,164.0,31.0,0.0
289523,-1.77948,-0.160262,0.454093,0.083437,-0.06855800000000001,0.115125,0.0,9.0,72.0,164.0,31.0,0.0
289524,-1.783307,-0.163735,0.440666,0.07799600000000001,-0.08164500000000001,0.14321,0.0,9.0,72.0,164.0,31.0,0.0
289525,-1.786145,-0.168492,0.428696,0.079105,-0.073534,0.15288,0.0,9.0,72.0,164.0,31.0,0.0
289526,-1.787305,-0.173832,0.41864,0.083022,-0.055328,0.132076,0.0,9.0,72.0,164.0,31.0,0.0
289527,-1.787724,-0.179474,0.410765,0.05926,-0.037292,0.134252,0.0,9.0,72.0,164.0,31.0,0.0
289528,-1.788007,-0.184636,0.405031,0.001402,-0.031748,0.152294,0.0,9.0,72.0,164.0,31.0,0.0
289529,-1.787424,-0.188619,0.40089,-0.065999,-0.026507,0.138653,0.0,9.0,72.0,164.0,31.0,0.0
289530,-1.7868849999999998,-0.190066,0.397316,-0.093968,-0.0072980000000000015,0.09684,0.0,9.0,72.0,164.0,31.0,0.0
289531,-1.782385,-0.190863,0.393065,-0.085244,0.009513,0.084543,0.0,9.0,72.0,164.0,31.0,0.0
289532,-1.777182,-0.189258,0.385726,-0.104914,0.082775,0.042481,0.0,9.0,72.0,164.0,31.0,0.0
289533,-1.771281,-0.187621,0.377154,-0.08829,0.191666,0.021652,0.0,9.0,72.0,164.0,31.0,0.0
289534,-1.7681509999999998,-0.187329,0.367234,0.055635,0.192854,0.036207,0.0,9.0,72.0,164.0,31.0,0.0
289535,-1.766591,-0.186205,0.35699200000000003,0.082949,0.034382,-0.038319,0.0,9.0,72.0,164.0,31.0,0.0
289536,-1.760844,-0.186573,0.349111,0.122859,-0.027731,-0.06589099999999999,0.0,9.0,72.0,164.0,31.0,0.0
289537,-1.7503349999999998,-0.187387,0.343458,0.083577,-0.034101,-0.052112,0.0,9.0,72.0,164.0,31.0,0.0
289538,-1.736994,-0.188457,0.337246,0.024706,0.064442,-0.024457,0.0,9.0,72.0,164.0,31.0,0.0
289539,-1.723758,-0.187554,0.329759,-0.021019,0.135168,-0.000858,0.0,9.0,72.0,164.0,31.0,0.0
289540,-1.7128439999999998,-0.186094,0.318703,0.022253,0.13645,-0.000591,0.0,9.0,72.0,164.0,31.0,0.0
289541,-1.703271,-0.184902,0.30245900000000003,0.034851,0.089434,-0.077284,0.0,9.0,72.0,164.0,31.0,0.0
289542,-1.69501,-0.184708,0.286858,0.034095,0.060786,-0.150488,0.0,9.0,72.0,164.0,31.0,0.0
289543,-1.6836830000000005,-0.185617,0.270373,0.048276,-0.001172,-0.165246,0.0,9.0,72.0,164.0,31.0,0.0
289544,-1.674298,-0.185648,0.254678,0.024227,-0.053144,-0.13842100000000002,0.0,9.0,72.0,164.0,31.0,0.0
289545,-1.66388,-0.184189,0.23975,0.013658000000000002,-0.043272000000000005,-0.142051,0.0,9.0,72.0,164.0,31.0,0.0
289546,-1.651027,-0.181952,0.22505100000000006,-0.004816,-0.031398,-0.115747,0.0,9.0,72.0,164.0,31.0,0.0
289547,-1.638694,-0.17906,0.208549,-0.002179,0.008129,-0.046451,0.0,9.0,72.0,164.0,31.0,0.0
289548,-1.628652,-0.17618,0.189384,-0.013272999999999998,0.012413,-0.051298,0.0,9.0,72.0,164.0,31.0,0.0
289549,-1.620168,-0.174521,0.17064400000000002,-0.018792,-0.009452,-0.097231,0.0,9.0,72.0,164.0,31.0,0.0
289550,-1.612846,-0.174401,0.154321,-0.027475,-0.028056,-0.150515,0.0,9.0,72.0,164.0,31.0,0.0
289551,-1.605202,-0.175426,0.140087,-0.033270999999999995,-0.025678,-0.153347,0.0,9.0,72.0,164.0,31.0,0.0
289552,-1.598957,-0.176739,0.125539,-0.030181,-0.027887,-0.111733,0.0,9.0,72.0,164.0,31.0,0.0
289553,-1.594436,-0.177525,0.108238,-0.018729,-0.026906,-0.058605999999999984,0.0,9.0,72.0,164.0,31.0,0.0
289554,-1.590799,-0.178324,0.088886,-0.031457,-0.039868,-0.078705,0.0,9.0,72.0,164.0,31.0,0.0
289555,-1.585313,-0.178137,0.07048600000000001,-0.019627,-0.08514,-0.109852,0.0,9.0,72.0,164.0,31.0,0.0
289556,-1.578771,-0.176398,0.053798,-0.00022,-0.118478,-0.111397,0.0,9.0,72.0,164.0,31.0,0.0
289557,-1.572367,-0.174126,0.037699,0.00013000000000000002,-0.119766,-0.09577,0.0,9.0,72.0,164.0,31.0,0.0
289558,-1.565865,-0.172098,0.020794,-0.000691,-0.068359,-0.03721,0.0,9.0,72.0,164.0,31.0,0.0
289559,-1.55947,-0.17089100000000002,0.002927,-0.0047020000000000005,-0.046922000000000005,-0.003777,0.0,9.0,72.0,164.0,31.0,0.0
289560,-1.553836,-0.171034,-0.014846000000000003,-0.000609,-0.041524,0.003208,0.0,9.0,72.0,164.0,31.0,0.0
289561,-1.548443,-0.171488,-0.031054,0.010135,-0.051081,-0.012507,0.0,9.0,72.0,164.0,31.0,0.0
289562,-1.543308,-0.171762,-0.045575,-0.002718,-0.100835,0.004222,0.0,9.0,72.0,164.0,31.0,0.0
289563,-1.539487,-0.171779,-0.059644,-0.030785000000000007,-0.099753,0.035711,0.0,9.0,72.0,164.0,31.0,0.0
289564,-1.536326,-0.171244,-0.07428,-0.039403,-0.085814,0.032617,0.0,9.0,72.0,164.0,31.0,0.0
289565,-1.533599,-0.170139,-0.088738,-0.034749,-0.087838,0.025711,0.0,9.0,72.0,164.0,31.0,0.0
289566,-1.530666,-0.168932,-0.101833,-0.027318,-0.091255,0.02519,0.0,9.0,72.0,164.0,31.0,0.0
289567,-1.527153,-0.16699999999999998,-0.113074,-0.004801,-0.100078,0.015128999999999997,0.0,9.0,72.0,164.0,31.0,0.0
289568,-1.523251,-0.164506,-0.122599,0.009793,-0.08538,0.014735,0.0,9.0,72.0,164.0,31.0,0.0
289569,-1.5193020000000002,-0.162537,-0.132053,-0.006528,-0.048678,0.01437,0.0,9.0,72.0,164.0,31.0,0.0
289570,-1.514642,-0.161557,-0.142122,-0.012905000000000002,-0.039059,0.011463,0.0,9.0,72.0,164.0,31.0,0.0
289571,-1.510945,-0.160261,-0.15211,-0.02597,-0.016403,0.015134,0.0,9.0,72.0,164.0,31.0,0.0
289572,-1.509248,-0.160184,-0.162583,-0.033888,-0.015533000000000003,0.050529,0.0,9.0,72.0,164.0,31.0,0.0
289573,-1.508239,-0.162299,-0.173725,-0.020037,-0.032482,0.043811,0.0,9.0,72.0,164.0,31.0,0.0
289574,-1.506699,-0.164569,-0.18446,0.013175,-0.069375,0.025605000000000003,0.0,9.0,72.0,164.0,31.0,0.0
289575,-1.505254,-0.166727,-0.193696,0.016878,-0.099519,0.032483,0.0,9.0,72.0,164.0,31.0,0.0
289576,-1.504099,-0.16893699999999998,-0.202115,-0.005721,-0.06777799999999999,0.060282,0.0,9.0,72.0,164.0,31.0,0.0
289577,-1.502378,-0.171433,-0.211057,-0.021501,-0.0065780000000000005,0.070201,0.0,9.0,72.0,164.0,31.0,0.0
289578,-1.499993,-0.174439,-0.221159,-0.002924,0.009443,0.045836,0.0,9.0,72.0,164.0,31.0,0.0
289579,-1.498332,-0.178059,-0.23125,0.021045,-0.033076999999999995,0.045926,0.0,9.0,72.0,164.0,31.0,0.0
289580,-1.498109,-0.182142,-0.240166,0.015508,-0.093719,0.054576,0.0,9.0,72.0,164.0,31.0,0.0
289581,-1.497539,-0.186411,-0.247921,-0.039344,-0.132172,0.027367,0.0,9.0,72.0,164.0,31.0,0.0
289582,-1.495036,-0.189751,-0.254013,-0.082722,-0.104752,0.004673,0.0,9.0,72.0,164.0,31.0,0.0
289583,-1.49195,-0.190593,-0.25802800000000004,-0.12573199999999998,-0.115116,-0.003061,0.0,9.0,72.0,164.0,31.0,0.0
289584,-1.489124,-0.189717,-0.261435,-0.096203,-0.020734,-0.006476999999999999,0.0,9.0,72.0,164.0,31.0,0.0
289585,-1.487447,-0.188588,-0.26754,-0.04533,0.053372,0.012242,0.0,9.0,72.0,164.0,31.0,0.0
289586,-1.490295,-0.188553,-0.276258,-0.05920900000000001,-0.00891,0.103723,0.0,9.0,72.0,164.0,31.0,0.0
289587,-1.494556,-0.189185,-0.284939,-0.101419,-0.08438999999999999,0.153588,0.0,9.0,72.0,164.0,31.0,0.0
289588,-1.497907,-0.189979,-0.292672,-0.093374,-0.091457,0.131909,0.0,9.0,72.0,164.0,31.0,0.0
289589,-1.503036,-0.189811,-0.298719,-0.095674,-0.081511,0.085458,0.0,9.0,72.0,164.0,31.0,0.0
289590,-1.512592,-0.187756,-0.303329,-0.09038,-0.006936,0.089956,0.0,9.0,72.0,164.0,31.0,0.0
289591,-1.528357,-0.183145,-0.309764,-0.031577,-0.007776000000000002,0.100524,0.0,9.0,72.0,164.0,31.0,0.0
289592,-1.5521040000000002,-0.175702,-0.321847,0.058508,-0.007365000000000002,0.110398,0.0,9.0,72.0,164.0,31.0,0.0
289593,-1.580188,-0.164974,-0.339809,0.069931,0.028919,0.105482,0.0,9.0,72.0,164.0,31.0,0.0
289594,-1.607694,-0.151829,-0.361245,0.022867,0.10205,0.093693,0.0,9.0,72.0,164.0,31.0,0.0
289595,-1.628981,-0.136717,-0.383396,-0.092938,0.21905500000000006,-0.043006,0.0,9.0,72.0,164.0,31.0,0.0
289596,-1.6443580000000002,-0.118838,-0.404492,-0.118905,0.255999,-0.11625,0.0,9.0,72.0,164.0,31.0,0.0
289597,-1.659698,-0.098835,-0.422385,-0.102947,0.286412,-0.202334,0.0,9.0,72.0,164.0,31.0,0.0
289598,-1.678464,-0.076584,-0.436318,-0.026471,0.173156,-0.22755100000000006,0.0,9.0,72.0,164.0,31.0,0.0
289599,-1.702975,-0.053546,-0.449537,-0.012316,0.135994,-0.19917,0.0,9.0,72.0,164.0,31.0,0.0
289600,-1.731052,-0.031544,-0.467304,0.010539,0.06805599999999999,0.021815,0.0,9.0,72.0,164.0,31.0,0.0
289601,-1.7570400000000002,-0.009587,-0.488423,0.047108,0.040386,0.030478,0.0,9.0,72.0,164.0,31.0,0.0
289602,-1.77315,0.010417,-0.507441,0.077864,0.040782,-0.009649,0.0,9.0,72.0,164.0,31.0,0.0
289603,-1.784616,0.027176,-0.5206529999999999,0.107964,-0.028385000000000007,-0.03911,0.0,9.0,72.0,164.0,31.0,0.0
289604,-1.794619,0.040679,-0.5287850000000001,0.110855,-0.082623,0.018064,0.0,9.0,72.0,164.0,31.0,0.0
289605,-1.800499,0.05181,-0.533454,0.116724,-0.071001,0.033635000000000005,0.0,9.0,72.0,164.0,31.0,0.0
289606,-1.803098,0.059732000000000014,-0.534944,0.131645,-0.033275,0.038917,0.0,9.0,72.0,164.0,31.0,0.0
289607,-1.805677,0.06342,-0.533525,0.134796,-0.005943,-0.001255,0.0,9.0,72.0,164.0,31.0,0.0
289608,-1.806815,0.063203,-0.529378,0.12809,-0.033869,-0.041364,0.0,9.0,72.0,164.0,31.0,0.0
289609,-1.805717,0.05971,-0.523414,0.139509,-0.035525,-0.045475,0.0,9.0,72.0,164.0,31.0,0.0
289610,-1.806449,0.053487,-0.519229,0.205355,-0.002142,0.057889,0.0,9.0,72.0,164.0,31.0,0.0
289611,-1.810002,0.045079,-0.5174270000000001,0.168577,0.008458,0.101599,0.0,9.0,72.0,164.0,31.0,0.0
289612,-1.815861,0.035342,-0.515648,0.112118,0.006114,0.097454,0.0,9.0,72.0,164.0,31.0,0.0
289613,-1.817353,0.02648,-0.510989,0.046378,-0.063123,-0.003196,0.0,9.0,72.0,164.0,31.0,0.0
289614,-1.81523,0.01878,-0.501815,0.128804,-0.06653300000000001,0.010112,0.0,9.0,72.0,164.0,31.0,0.0
289615,-1.814864,0.01122,-0.488479,0.196751,-0.042155,0.0284,0.0,9.0,72.0,164.0,31.0,0.0
289616,-1.814611,0.002616,-0.473882,0.30327,-0.005181,-0.001139,0.0,9.0,72.0,164.0,31.0,0.0
289617,-1.810267,-0.008114,-0.458717,0.32868,-0.005397,-0.039441,0.0,9.0,72.0,164.0,31.0,0.0
289618,-1.805654,-0.020939,-0.443433,0.322563,0.020704,-0.052828,0.0,9.0,72.0,164.0,31.0,0.0
289619,-1.8029,-0.033649,-0.429599,0.257784,0.060611,-0.010167,0.0,9.0,72.0,164.0,31.0,0.0
289620,-1.798131,-0.043686,-0.4182,0.21833,0.088911,0.019632,0.0,9.0,72.0,164.0,31.0,0.0
289621,-1.786137,-0.051366,-0.409178,0.223366,0.061876,-0.026309,0.0,9.0,72.0,164.0,31.0,0.0
289622,-1.768366,-0.05969,-0.402586,0.2934,-0.023735,-0.03961,0.0,9.0,72.0,164.0,31.0,0.0
289623,-1.751977,-0.06947,-0.39537,0.305945,-0.088487,0.000695,0.0,9.0,72.0,164.0,31.0,0.0
289624,-1.738431,-0.080148,-0.386065,0.266731,-0.10205,0.041968,0.0,9.0,72.0,164.0,31.0,0.0
289625,-1.729018,-0.09118,-0.376493,0.11983,-0.07115700000000001,0.14965699999999998,0.0,9.0,72.0,164.0,31.0,0.0
289626,-1.733468,-0.101012,-0.365709,-0.308262,0.123708,0.398579,0.0,9.0,72.0,164.0,31.0,0.0
289627,-1.745725,-0.106665,-0.35514,-0.60465,0.319807,0.537874,0.0,9.0,72.0,164.0,31.0,0.0
289628,-1.7318939999999998,-0.101903,-0.354847,-0.6019359999999999,0.619526,-0.194648,0.0,9.0,72.0,164.0,31.0,0.0
289629,-1.7407580000000002,-0.099033,-0.380737,-1.1824059999999998,0.8187,0.110357,0.0,9.0,72.0,164.0,31.0,0.0
289630,-1.772102,-0.092537,-0.423057,-0.277123,0.027896,0.15780999999999998,0.0,9.0,72.0,164.0,31.0,0.0
289631,-1.7964939999999998,-0.074822,-0.446346,-0.01868,-0.319,-0.203978,0.0,9.0,72.0,164.0,31.0,0.0
289632,-1.818439,-0.061562,-0.449617,-0.164338,-0.217621,-0.275385,0.0,9.0,72.0,164.0,31.0,0.0
289633,-1.834961,-0.057289,-0.440833,-0.270394,-0.10456,-0.135078,0.0,9.0,72.0,164.0,31.0,0.0
289634,-1.837604,-0.058479,-0.431414,-0.274357,0.062495,-0.270129,0.0,9.0,72.0,164.0,31.0,0.0
289635,-1.826512,-0.060792999999999986,-0.424617,-0.084207,0.087484,-0.209638,0.0,9.0,72.0,164.0,31.0,0.0
289636,-1.797712,-0.064804,-0.419033,-0.057547,-0.091584,-0.233365,0.0,9.0,72.0,164.0,31.0,0.0
289637,-1.763051,-0.069445,-0.4135390000000001,-0.036268,-0.242362,-0.24572600000000006,0.0,9.0,72.0,164.0,31.0,0.0
289638,-1.749931,-0.073939,-0.402558,-0.107701,-0.268071,-0.043047,0.0,9.0,72.0,164.0,31.0,0.0
289639,-1.736889,-0.075537,-0.388229,-0.193581,-0.059062,0.045637,0.0,9.0,72.0,164.0,31.0,0.0
289640,-1.703936,-0.074818,-0.369068,-0.132508,0.030583,0.039074,0.0,9.0,72.0,164.0,31.0,0.0
289641,-1.676354,-0.073559,-0.346824,0.037089,0.352823,-0.12862,0.0,9.0,72.0,164.0,31.0,0.0
289642,-1.6729080000000005,-0.074395,-0.326675,0.057525,0.320404,-0.115003,0.0,9.0,72.0,164.0,31.0,0.0
289643,-1.679355,-0.07798200000000001,-0.315331,0.07911499999999999,0.283059,-0.081603,0.0,9.0,72.0,164.0,31.0,0.0
289644,-1.679096,-0.080871,-0.317706,0.107189,0.078046,0.015465,0.0,9.0,72.0,164.0,31.0,0.0
289645,-1.677021,-0.084261,-0.323376,0.113053,-0.084527,-0.056957000000000015,0.0,9.0,72.0,164.0,31.0,0.0
289646,-1.6744139999999998,-0.08778899999999999,-0.319695,0.067156,-0.234863,-0.137991,0.0,9.0,72.0,164.0,31.0,0.0
289647,-1.666895,-0.090237,-0.309963,0.063581,-0.295635,-0.078439,0.0,9.0,72.0,164.0,31.0,0.0
289648,-1.653877,-0.091223,-0.300024,0.08281000000000001,-0.13228,-0.013594,0.0,9.0,72.0,164.0,31.0,0.0
289649,-1.641154,-0.09238,-0.286935,0.052548,-0.037134,-0.001594,0.0,9.0,72.0,164.0,31.0,0.0
289650,-1.6308790000000002,-0.094873,-0.271293,-0.036206,0.033076999999999995,0.009713,0.0,9.0,72.0,164.0,31.0,0.0
289651,-1.622849,-0.098845,-0.256299,-0.029351,0.07013899999999999,-0.024965,0.0,9.0,72.0,164.0,31.0,0.0
289652,-1.618419,-0.102619,-0.244531,-0.010468,0.094292,-0.042716,0.0,9.0,72.0,164.0,31.0,0.0
289653,-1.61887,-0.105263,-0.236059,0.014185,0.094944,-0.031981,0.0,9.0,72.0,164.0,31.0,0.0
289654,-1.620714,-0.107096,-0.22960100000000006,0.050187,0.071515,0.006816,0.0,9.0,72.0,164.0,31.0,0.0
289655,-1.621372,-0.108445,-0.22665700000000005,0.000357,0.004331000000000001,0.040411,0.0,9.0,72.0,164.0,31.0,0.0
289656,-1.62037,-0.109436,-0.226366,0.015054,-0.05569,0.019576,0.0,9.0,72.0,164.0,31.0,0.0
289657,-1.617637,-0.110443,-0.22433000000000006,0.023513,-0.072911,0.017259,0.0,9.0,72.0,164.0,31.0,0.0
289658,-1.614592,-0.113073,-0.219434,0.06248,-0.031625,-0.010405,0.0,9.0,72.0,164.0,31.0,0.0
289659,-1.614296,-0.114912,-0.214823,0.081189,-0.006352,0.032194,0.0,9.0,72.0,164.0,31.0,0.0
289660,-1.617244,-0.1166,-0.213838,0.083259,0.008634000000000001,0.06379299999999999,0.0,9.0,72.0,164.0,31.0,0.0
289661,-1.621298,-0.117734,-0.218108,0.062179,0.040497000000000005,0.075419,0.0,9.0,72.0,164.0,31.0,0.0
289662,-1.62427,-0.118899,-0.22374,0.013198,0.016422,0.055359000000000005,0.0,9.0,72.0,164.0,31.0,0.0
289663,-1.626278,-0.120636,-0.225573,0.022693,-0.048429,-0.015774,0.0,9.0,72.0,164.0,31.0,0.0
289664,-1.629193,-0.122786,-0.224351,0.146032,-0.122707,-0.062928,0.0,9.0,72.0,164.0,31.0,0.0
289665,-1.635641,-0.123092,-0.225428,0.169435,-0.134623,0.006858,0.0,9.0,72.0,164.0,31.0,0.0
289666,-1.6434349999999998,-0.121489,-0.232169,0.126526,-0.086507,0.034238,0.0,9.0,72.0,164.0,31.0,0.0
289667,-1.6446009999999998,-0.120127,-0.243054,0.089633,0.05698,-0.025782,0.0,9.0,72.0,164.0,31.0,0.0
289668,-1.645085,-0.120492,-0.25153400000000004,0.05688500000000001,-0.045692,-0.033063,0.0,9.0,72.0,164.0,31.0,0.0
289669,-1.648754,-0.12248599999999997,-0.254607,0.03528,-0.109149,0.032019,0.0,9.0,72.0,164.0,31.0,0.0
289670,-1.655362,-0.123839,-0.257448,0.035223000000000004,-0.126926,0.059585,0.0,9.0,72.0,164.0,31.0,0.0
289671,-1.661989,-0.12396300000000003,-0.263394,0.025612,-0.126148,0.025173,0.0,9.0,72.0,164.0,31.0,0.0
289672,-1.664555,-0.125029,-0.269339,0.112159,-0.121636,-0.033487,0.0,9.0,72.0,164.0,31.0,0.0
289673,-1.6637830000000002,-0.127814,-0.271575,0.207523,-0.070994,-0.054085,0.0,9.0,72.0,164.0,31.0,0.0
289674,-1.662809,-0.131267,-0.270805,0.239883,-0.015321,-0.030912,0.0,9.0,72.0,164.0,31.0,0.0
289675,-1.6633830000000005,-0.13401300000000002,-0.269809,0.200788,-0.025473,0.014058,0.0,9.0,72.0,164.0,31.0,0.0
289676,-1.662203,-0.135663,-0.27165500000000004,0.14136400000000002,-0.092752,-0.001451,0.0,9.0,72.0,164.0,31.0,0.0
289677,-1.659766,-0.136198,-0.278252,0.122649,-0.128727,-0.024796,0.0,9.0,72.0,164.0,31.0,0.0
289678,-1.660886,-0.136006,-0.289048,0.156252,-0.138837,0.01618,0.0,9.0,72.0,164.0,31.0,0.0
289679,-1.666424,-0.134927,-0.304005,0.119389,-0.122662,0.091757,0.0,9.0,72.0,164.0,31.0,0.0
289680,-1.678238,-0.129879,-0.32202,0.006606999999999999,-0.053861,0.096381,0.0,9.0,72.0,164.0,31.0,0.0
289681,-1.6984259999999998,-0.117985,-0.34126300000000004,-0.07723,-0.010152,0.0324,0.0,9.0,72.0,164.0,31.0,0.0
289682,-1.727552,-0.095967,-0.360112,-0.26466,-0.053369000000000014,0.179489,0.0,9.0,72.0,164.0,31.0,0.0
289683,-1.7555150000000002,-0.057892999999999986,-0.377101,-0.973758,-0.030242,0.293094,0.0,9.0,72.0,164.0,31.0,0.0
289684,-1.751579,-0.010334,-0.394468,-1.479642,0.246411,-0.102488,0.0,9.0,72.0,164.0,31.0,0.0
289685,-1.739263,0.035998,-0.414704,-0.809403,0.287669,-0.21372,0.0,9.0,72.0,164.0,31.0,0.0
289686,-1.747937,0.069742,-0.413776,0.182027,-0.002367,-0.07017999999999999,0.0,9.0,72.0,164.0,31.0,0.0
289687,-1.76751,0.084627,-0.405773,0.363292,-0.120018,-0.009795,0.0,9.0,72.0,164.0,31.0,0.0
289688,-1.7882919999999998,0.089753,-0.407739,-0.316954,0.016863999999999997,0.156209,0.0,9.0,72.0,164.0,31.0,0.0
289689,-1.804734,0.097728,-0.409078,-0.341487,0.495369,0.194712,0.0,9.0,72.0,164.0,31.0,0.0
289690,-1.81528,0.104495,-0.40656,-0.180543,0.572964,0.123326,0.0,9.0,72.0,164.0,31.0,0.0
289691,-1.825202,0.10826,-0.404138,-0.020036,0.568208,0.048678,0.0,9.0,72.0,164.0,31.0,0.0
289692,-1.841076,0.110736,-0.409407,0.472742,0.393758,-0.090818,0.0,9.0,72.0,164.0,31.0,0.0
289693,-1.853938,0.111507,-0.425235,0.559682,0.135141,-0.079471,0.0,9.0,72.0,164.0,31.0,0.0
289694,-1.848954,0.111839,-0.454475,0.349959,0.109348,-0.202204,0.0,9.0,72.0,164.0,31.0,0.0
289695,-1.836242,0.109029,-0.493376,0.279415,0.146472,-0.185478,0.0,9.0,72.0,164.0,31.0,0.0
289696,-1.825268,0.102293,-0.535169,0.272943,0.196856,-0.118306,0.0,9.0,72.0,164.0,31.0,0.0
289697,-1.819042,0.090537,-0.574298,0.26560100000000003,0.201376,-0.057226,0.0,9.0,72.0,164.0,31.0,0.0
289698,-1.814159,0.074555,-0.6080479999999999,0.23692,-0.037987,-0.07332000000000001,0.0,9.0,72.0,164.0,31.0,0.0
289699,-1.809992,0.05678,-0.638131,0.16907,-0.369261,-0.07886900000000001,0.0,9.0,72.0,164.0,31.0,0.0
289700,-1.805182,0.036851,-0.6677489999999999,0.055731,-0.5807720000000001,-0.06655900000000001,0.0,9.0,72.0,164.0,31.0,0.0
289701,-1.7942209999999998,0.012416,-0.6953590000000001,0.045345,-0.609502,-0.048013,0.0,9.0,72.0,164.0,31.0,0.0
289702,-1.778631,-0.012979,-0.718124,0.127302,-0.433328,0.014151,0.0,9.0,72.0,164.0,31.0,0.0
289703,-1.766084,-0.032967,-0.731338,0.198761,-0.299639,0.064756,0.0,9.0,72.0,164.0,31.0,0.0
289704,-1.7567099999999998,-0.046472,-0.7340899999999999,0.274334,-0.148506,0.032473,0.0,9.0,72.0,164.0,31.0,0.0
289705,-1.7494759999999998,-0.055903,-0.732687,0.223564,-0.052349,0.029152,0.0,9.0,72.0,164.0,31.0,0.0
289706,-1.738276,-0.063709,-0.7319869999999999,0.14348699999999998,-0.027716,0.001793,0.0,9.0,72.0,164.0,31.0,0.0
289707,-1.718738,-0.06779,-0.731675,0.218977,-0.004322,-0.025634,0.0,9.0,72.0,164.0,31.0,0.0
289708,-1.700538,-0.068759,-0.731001,0.271198,0.019994,-0.0006230000000000001,0.0,9.0,72.0,164.0,31.0,0.0
289709,-1.6863720000000002,-0.071212,-0.732248,0.241721,0.286423,0.231685,0.0,9.0,72.0,164.0,31.0,0.0
289710,-1.6780560000000002,-0.07296699999999999,-0.73744,0.117335,0.320682,0.336057,0.0,9.0,72.0,164.0,31.0,0.0
289711,-1.669104,-0.07274299999999999,-0.744404,-0.220692,0.400923,0.184902,0.0,9.0,72.0,164.0,31.0,0.0
289712,-1.643886,-0.073946,-0.747488,-0.126326,0.419163,-0.215647,0.0,9.0,72.0,164.0,31.0,0.0
289713,-1.631721,-0.080756,-0.75579,-0.252763,0.482503,-0.152333,0.0,9.0,72.0,164.0,31.0,0.0
289714,-1.646105,-0.084663,-0.781469,-0.323153,0.510836,-0.272584,0.0,9.0,72.0,164.0,31.0,0.0
289715,-1.657749,-0.08704400000000001,-0.822699,-1.064973,0.476603,-0.367764,0.0,9.0,72.0,164.0,31.0,0.0
289716,-1.679976,-0.084523,-0.873767,-1.153657,-0.288249,-0.043189,0.0,9.0,72.0,164.0,31.0,0.0
289717,-1.687343,-0.071984,-0.908121,-0.376945,-0.76754,-0.088088,0.0,9.0,72.0,164.0,31.0,0.0
289718,-1.705952,-0.062452,-0.915976,0.007162999999999998,-0.771777,0.042475,0.0,9.0,72.0,164.0,31.0,0.0
289719,-1.713747,-0.064496,-0.899776,0.087438,-0.22508000000000006,-0.07833999999999999,0.0,9.0,72.0,164.0,31.0,0.0
289720,-1.7022970000000002,-0.074036,-0.8814719999999999,-0.0077680000000000015,0.075843,-0.116786,0.0,9.0,72.0,164.0,31.0,0.0
289721,-1.686076,-0.08514400000000001,-0.875549,0.060377,-0.156651,-0.119307,0.0,9.0,72.0,164.0,31.0,0.0
289722,-1.665196,-0.093861,-0.871749,0.108761,-0.4533430000000001,-0.186542,0.0,9.0,72.0,164.0,31.0,0.0
289723,-1.661358,-0.10078,-0.869605,0.129669,-0.340767,0.093752,0.0,9.0,72.0,164.0,31.0,0.0
289724,-1.652638,-0.104542,-0.8711559999999999,0.037976,-0.196926,0.295848,0.0,9.0,72.0,164.0,31.0,0.0
289725,-1.626141,-0.10854,-0.868632,0.074361,0.024272,0.180895,0.0,9.0,72.0,164.0,31.0,0.0
289726,-1.606453,-0.112364,-0.8555709999999999,0.158539,0.130502,0.062491,0.0,9.0,72.0,164.0,31.0,0.0
289727,-1.605025,-0.112955,-0.8373870000000001,0.27719,-0.04959,-0.007392,0.0,9.0,72.0,164.0,31.0,0.0
289728,-1.615817,-0.113327,-0.821392,0.393819,-0.195406,0.011863,0.0,9.0,72.0,164.0,31.0,0.0
289729,-1.626307,-0.111959,-0.812562,0.404649,-0.270722,-0.010685,0.0,9.0,72.0,164.0,31.0,0.0
289730,-1.630615,-0.108384,-0.814581,0.42312,-0.168292,0.037339,0.0,9.0,72.0,164.0,31.0,0.0
289731,-1.631114,-0.104663,-0.8224,0.347557,0.015248,0.029847,0.0,9.0,72.0,164.0,31.0,0.0
289732,-1.631612,-0.102308,-0.828701,0.35735300000000003,0.078947,-5e-06,0.0,9.0,72.0,164.0,31.0,0.0
289733,-1.633925,-0.102133,-0.8263,0.288869,-0.023113,-0.165785,0.0,9.0,72.0,164.0,31.0,0.0
289734,-1.6477529999999998,-0.101318,-0.818675,0.218377,-0.28139699999999995,-0.197351,0.0,9.0,72.0,164.0,31.0,0.0
289735,-1.6778970000000002,-0.088839,-0.813167,0.169619,-0.515724,0.008623,0.0,9.0,72.0,164.0,31.0,0.0
289736,-1.713018,-0.059831,-0.816104,-0.120973,-0.510265,0.210624,0.0,9.0,72.0,164.0,31.0,0.0
289737,-1.746492,-0.022343,-0.818924,-0.449026,-0.071368,0.272044,0.0,9.0,72.0,164.0,31.0,0.0
289738,-1.7754029999999998,0.019672,-0.818018,-0.867368,0.24103,0.144439,0.0,9.0,72.0,164.0,31.0,0.0
289739,-1.790393,0.05794,-0.8141010000000001,-0.8642350000000001,0.8508450000000001,-0.30243000000000003,0.0,9.0,72.0,164.0,31.0,0.0
289740,-1.814269,0.093215,-0.805882,-0.787115,0.940583,-0.350546,0.0,9.0,72.0,164.0,31.0,0.0
289741,-1.836345,0.131444,-0.8126369999999999,-0.128465,0.400658,-0.035289,0.0,9.0,72.0,164.0,31.0,0.0
289742,-1.844036,0.17001,-0.8293799999999999,-0.016868,-0.035871,0.15576199999999998,0.0,9.0,72.0,164.0,31.0,0.0
289743,-1.836763,0.193322,-0.8395959999999999,-0.07714299999999999,-0.18404,0.123007,0.0,9.0,72.0,164.0,31.0,0.0
289744,-1.82346,0.196504,-0.842844,-0.142553,-0.298227,-0.021142,0.0,9.0,72.0,164.0,31.0,0.0
289745,-1.810977,0.186863,-0.839023,0.054494000000000015,-0.033293,-0.027162,0.0,9.0,72.0,164.0,31.0,0.0
289746,-1.800613,0.17366800000000002,-0.836167,0.153544,0.038657,0.024439,0.0,9.0,72.0,164.0,31.0,0.0
289747,-1.788746,0.159339,-0.8347979999999999,0.39152,0.199254,0.151899,0.0,9.0,72.0,164.0,31.0,0.0
289748,-1.7746509999999998,0.141855,-0.8332729999999999,0.578124,0.168494,0.086957,0.0,9.0,72.0,164.0,31.0,0.0
289749,-1.758994,0.11597,-0.835211,0.754837,0.07708999999999999,-0.044398,0.0,9.0,72.0,164.0,31.0,0.0
289750,-1.745053,0.07647000000000001,-0.841146,0.769813,0.056406,-0.109712,0.0,9.0,72.0,164.0,31.0,0.0
289751,-1.73324,0.025552,-0.848584,0.55125,0.049902,-0.09112,0.0,9.0,72.0,164.0,31.0,0.0
289752,-1.724643,-0.023492,-0.847564,-0.065221,0.006998000000000001,-0.042586,0.0,9.0,72.0,164.0,31.0,0.0
289753,-1.7147419999999998,-0.050337,-0.834124,-0.37026,0.021187,0.021651,0.0,9.0,72.0,164.0,31.0,0.0
289754,-1.699852,-0.047771,-0.8188300000000001,0.025886000000000003,-0.074853,0.068486,0.0,9.0,72.0,164.0,31.0,0.0
289755,-1.6878259999999998,-0.04632,-0.818163,0.462334,0.01435,0.115511,0.0,9.0,72.0,164.0,31.0,0.0
289756,-1.679375,-0.053882000000000006,-0.83226,0.5758840000000001,-0.015435,0.121041,0.0,9.0,72.0,164.0,31.0,0.0
289757,-1.662021,-0.059030999999999986,-0.8531709999999999,0.264625,-0.248038,-0.012158,0.0,9.0,72.0,164.0,31.0,0.0
289758,-1.65222,-0.05654500000000001,-0.861001,-0.137281,-0.170681,0.163456,0.0,9.0,72.0,164.0,31.0,0.0
289759,-1.628212,-0.055958,-0.8507170000000001,-0.259411,0.13833099999999998,0.110278,0.0,9.0,72.0,164.0,31.0,0.0
289760,-1.607774,-0.064325,-0.8369030000000001,-0.130853,0.631322,0.269046,0.0,9.0,72.0,164.0,31.0,0.0
289761,-1.617767,-0.07331599999999999,-0.834623,-0.363197,0.04615,-0.729627,0.0,9.0,72.0,164.0,31.0,0.0
289762,-1.626999,-0.07455099999999999,-0.8588879999999999,-1.658716,-0.267307,0.33428800000000003,0.0,9.0,72.0,164.0,31.0,0.0
289763,-1.6459259999999998,-0.07373099999999999,-0.875604,-0.5683560000000001,-0.877345,0.238789,0.0,9.0,72.0,164.0,31.0,0.0
289764,-1.6662119999999998,-0.077827,-0.85611,-0.580566,-0.208577,-0.06744,0.0,9.0,72.0,164.0,31.0,0.0
289765,-1.6828900000000002,-0.072392,-0.8298459999999999,-0.194462,0.140226,-0.067788,0.0,9.0,72.0,164.0,31.0,0.0
289766,-1.675473,-0.072127,-0.8107800000000001,-0.189965,0.216617,-0.184505,0.0,9.0,72.0,164.0,31.0,0.0
289767,-1.669043,-0.075321,-0.799716,0.079112,0.136466,0.051512,0.0,9.0,72.0,164.0,31.0,0.0
289768,-1.65732,-0.087778,-0.788817,0.107362,-0.121937,-0.092614,0.0,9.0,72.0,164.0,31.0,0.0
289769,-1.635059,-0.102366,-0.774629,0.14793399999999998,-0.274658,-0.299829,0.0,9.0,72.0,164.0,31.0,0.0
289770,-1.619658,-0.11124,-0.764142,0.315687,-0.299945,0.10948,0.0,9.0,72.0,164.0,31.0,0.0
289771,-1.617474,-0.114234,-0.761786,0.289331,-0.2746,0.287643,0.0,9.0,72.0,164.0,31.0,0.0
289772,-1.61076,-0.115982,-0.760392,0.316168,-0.15908699999999998,0.327244,0.0,9.0,72.0,164.0,31.0,0.0
289773,-1.603898,-0.117531,-0.755571,0.567655,0.138003,-0.041656,0.0,9.0,72.0,164.0,31.0,0.0
289774,-1.609785,-0.115925,-0.756728,0.5186970000000001,-0.063038,-0.034352999999999995,0.0,9.0,72.0,164.0,31.0,0.0
289775,-1.621785,-0.111773,-0.763608,0.477524,-0.13629000000000002,0.049724,0.0,9.0,72.0,164.0,31.0,0.0
289776,-1.633983,-0.104703,-0.773101,0.366786,-0.166554,-0.050179,0.0,9.0,72.0,164.0,31.0,0.0
289777,-1.64681,-0.096028,-0.786254,0.243749,-0.13373800000000002,-0.049299,0.0,9.0,72.0,164.0,31.0,0.0
289778,-1.663053,-0.083928,-0.8055399999999999,0.078251,-0.205258,0.039272,0.0,9.0,72.0,164.0,31.0,0.0
289779,-1.687598,-0.063457,-0.829815,-0.401015,-0.209563,0.060075,0.0,9.0,72.0,164.0,31.0,0.0
289780,-1.716662,-0.029686,-0.8523360000000001,-0.826659,0.037182,-0.139516,0.0,9.0,72.0,164.0,31.0,0.0
289781,-1.757248,0.016717,-0.865419,-1.060368,0.30378,-0.122953,0.0,9.0,72.0,164.0,31.0,0.0
289782,-1.7995720000000002,0.064176,-0.860475,-0.886343,0.600494,-0.125059,0.0,9.0,72.0,164.0,31.0,0.0
289783,-1.831215,0.102421,-0.8532540000000001,-0.485214,0.558373,-0.004441,0.0,9.0,72.0,164.0,31.0,0.0
289784,-1.842431,0.130774,-0.8566530000000001,-0.172279,0.062454,0.145821,0.0,9.0,72.0,164.0,31.0,0.0
289785,-1.840006,0.155606,-0.861975,-0.139316,-0.06339,0.093523,0.0,9.0,72.0,164.0,31.0,0.0
289786,-1.828639,0.173396,-0.8605309999999999,0.055998,-0.043719,0.033132,0.0,9.0,72.0,164.0,31.0,0.0
289787,-1.814326,0.182217,-0.853268,0.178007,0.054395000000000006,0.022676,0.0,9.0,72.0,164.0,31.0,0.0
289788,-1.803806,0.180997,-0.8420270000000001,0.191573,0.024997,0.026757,0.0,9.0,72.0,164.0,31.0,0.0
289789,-1.7984950000000002,0.168985,-0.829657,0.266611,-0.033875,0.03279,0.0,9.0,72.0,164.0,31.0,0.0
289790,-1.7967259999999998,0.1488,-0.820364,0.421391,0.064984,0.07335499999999999,0.0,9.0,72.0,164.0,31.0,0.0
289791,-1.791938,0.125023,-0.8169569999999999,0.433725,0.023532,0.08335,0.0,9.0,72.0,164.0,31.0,0.0
289792,-1.779979,0.098608,-0.818561,0.517602,0.032927,-0.012254,0.0,9.0,72.0,164.0,31.0,0.0
289793,-1.7649439999999998,0.066261,-0.8196120000000001,0.62122,-0.003444,-0.080888,0.0,9.0,72.0,164.0,31.0,0.0
289794,-1.745777,0.027593,-0.817127,0.596074,-0.041807,-0.093104,0.0,9.0,72.0,164.0,31.0,0.0
289795,-1.7187130000000002,-0.010837,-0.8102600000000001,0.385379,-0.005939,-0.167205,0.0,9.0,72.0,164.0,31.0,0.0
289796,-1.69813,-0.041639,-0.797558,0.11317,0.036559,-0.16318,0.0,9.0,72.0,164.0,31.0,0.0
289797,-1.693887,-0.058602,-0.7789,-0.074399,0.052027,-0.004313,0.0,9.0,72.0,164.0,31.0,0.0
289798,-1.690909,-0.061769,-0.766865,0.006659,0.088325,0.162601,0.0,9.0,72.0,164.0,31.0,0.0
289799,-1.685281,-0.061389,-0.773281,-0.183136,0.17416900000000002,0.414087,0.0,9.0,72.0,164.0,31.0,0.0
289800,-1.657525,-0.058151,-0.794508,-0.177292,0.200487,-0.004442,0.0,9.0,72.0,164.0,31.0,0.0
289801,-1.620264,-0.059235,-0.817918,-0.283619,0.412358,-0.237181,0.0,9.0,72.0,164.0,31.0,0.0
289802,-1.60379,-0.065958,-0.8325239999999999,-0.169317,0.418602,-0.147281,0.0,9.0,72.0,164.0,31.0,0.0
289803,-1.622274,-0.06787,-0.835909,-0.482907,0.017952000000000003,0.126383,0.0,9.0,72.0,164.0,31.0,0.0
289804,-1.641037,-0.066903,-0.8401780000000001,-0.728457,-0.474552,-0.117054,0.0,9.0,72.0,164.0,31.0,0.0
289805,-1.655825,-0.061539,-0.848158,-0.544566,-1.051017,0.04463,0.0,9.0,72.0,164.0,31.0,0.0
289806,-1.671075,-0.054174,-0.847857,-0.6227600000000001,0.038168,0.049542,0.0,9.0,72.0,164.0,31.0,0.0
289807,-1.669762,-0.04548,-0.840572,-0.327093,0.157005,-0.003914,0.0,9.0,72.0,164.0,31.0,0.0
289808,-1.662669,-0.041559,-0.826224,-0.078537,0.062777,-0.092289,0.0,9.0,72.0,164.0,31.0,0.0
289809,-1.649906,-0.047295,-0.803603,0.109554,0.121699,-0.218556,0.0,9.0,72.0,164.0,31.0,0.0
289810,-1.640798,-0.05868200000000001,-0.781925,0.117351,0.062201,-0.24267600000000006,0.0,9.0,72.0,164.0,31.0,0.0
289811,-1.626403,-0.06809,-0.765651,0.172346,-0.097685,-0.269774,0.0,9.0,72.0,164.0,31.0,0.0
289812,-1.616435,-0.075517,-0.751462,0.22322,-0.260443,-0.053549,0.0,9.0,72.0,164.0,31.0,0.0
289813,-1.627883,-0.07814199999999999,-0.747291,-0.0017350000000000002,-0.17639000000000002,0.456058,0.0,9.0,72.0,164.0,31.0,0.0
289814,-1.625643,-0.080756,-0.752966,0.173995,0.093694,0.308382,0.0,9.0,72.0,164.0,31.0,0.0
289815,-1.616548,-0.087654,-0.753559,0.370176,0.022931,-0.034803,0.0,9.0,72.0,164.0,31.0,0.0
289816,-1.620052,-0.094424,-0.748712,0.478664,-0.121292,-0.12409,0.0,9.0,72.0,164.0,31.0,0.0
289817,-1.628225,-0.097589,-0.7433960000000001,0.511359,-0.127646,-0.139995,0.0,9.0,72.0,164.0,31.0,0.0
289818,-1.636397,-0.096407,-0.7428130000000001,0.500292,-0.13909000000000002,-0.123354,0.0,9.0,72.0,164.0,31.0,0.0
289819,-1.647375,-0.090785,-0.752093,0.32007800000000003,-0.167259,-0.05887000000000001,0.0,9.0,72.0,164.0,31.0,0.0
289820,-1.655285,-0.081302,-0.7691279999999999,0.309773,-0.154668,-0.042224,0.0,9.0,72.0,164.0,31.0,0.0
289821,-1.663717,-0.069948,-0.7847609999999999,0.241585,-0.209158,-0.029724,0.0,9.0,72.0,164.0,31.0,0.0
289822,-1.6791459999999998,-0.055117,-0.7970010000000001,-0.140952,-0.313649,0.06114,0.0,9.0,72.0,164.0,31.0,0.0
289823,-1.699816,-0.030935,-0.808878,-0.578674,-0.235825,0.17166199999999998,0.0,9.0,72.0,164.0,31.0,0.0
289824,-1.726429,0.004138,-0.814883,-0.85446,0.046375,0.025081,0.0,9.0,72.0,164.0,31.0,0.0
289825,-1.761732,0.047242,-0.817786,-0.8289639999999999,0.437911,-0.205282,0.0,9.0,72.0,164.0,31.0,0.0
289826,-1.798196,0.089943,-0.821084,-0.812263,0.686547,-0.194961,0.0,9.0,72.0,164.0,31.0,0.0
289827,-1.810497,0.12106,-0.829509,-0.503981,0.500571,0.14218,0.0,9.0,72.0,164.0,31.0,0.0
289828,-1.813928,0.14615699999999998,-0.836577,-0.177581,0.187873,0.167296,0.0,9.0,72.0,164.0,31.0,0.0
289829,-1.808527,0.16734300000000002,-0.839424,-0.089282,-0.12979300000000002,0.044496,0.0,9.0,72.0,164.0,31.0,0.0
289830,-1.799089,0.180417,-0.8367370000000001,-0.00671,-0.13969700000000002,0.051804,0.0,9.0,72.0,164.0,31.0,0.0
289831,-1.788541,0.182089,-0.8288780000000001,0.13834200000000002,0.0071340000000000015,0.018181,0.0,9.0,72.0,164.0,31.0,0.0
289832,-1.77917,0.17423699999999998,-0.819118,0.245106,0.04584,0.078429,0.0,9.0,72.0,164.0,31.0,0.0
289833,-1.771859,0.15853299999999998,-0.8089850000000001,0.324711,0.091463,0.100493,0.0,9.0,72.0,164.0,31.0,0.0
289834,-1.765497,0.141275,-0.800239,0.535796,0.183927,0.024398,0.0,9.0,72.0,164.0,31.0,0.0
289835,-1.759913,0.12361099999999997,-0.793708,0.689196,0.116598,0.000699,0.0,9.0,72.0,164.0,31.0,0.0
289836,-1.7540209999999998,0.099817,-0.78832,0.786667,0.102856,-0.001103,0.0,9.0,72.0,164.0,31.0,0.0
289837,-1.747075,0.066695,-0.784187,0.802775,0.129619,-0.040883,0.0,9.0,72.0,164.0,31.0,0.0
289838,-1.732457,0.02698,-0.784231,0.575343,0.128326,-0.12507,0.0,9.0,72.0,164.0,31.0,0.0
289839,-1.715902,-0.013775999999999998,-0.787552,-0.00191,-0.023557,-0.170905,0.0,9.0,72.0,164.0,31.0,0.0
289840,-1.713404,-0.042622,-0.7862779999999999,-0.425223,-0.072242,-0.023922,0.0,9.0,72.0,164.0,31.0,0.0
289841,-1.710867,-0.05026,-0.780011,-0.192734,-0.201377,0.149977,0.0,9.0,72.0,164.0,31.0,0.0
289842,-1.701484,-0.054093,-0.77625,-0.076769,-0.101384,0.432512,0.0,9.0,72.0,164.0,31.0,0.0
289843,-1.685288,-0.06014,-0.777475,-0.18422,0.073197,0.364206,0.0,9.0,72.0,164.0,31.0,0.0
289844,-1.6475990000000005,-0.062325,-0.778752,-0.216374,0.265856,-0.285029,0.0,9.0,72.0,164.0,31.0,0.0
289845,-1.61022,-0.068616,-0.784431,-0.091633,0.538036,-0.27323800000000004,0.0,9.0,72.0,164.0,31.0,0.0
289846,-1.603198,-0.073015,-0.794185,0.317304,0.32419000000000003,-0.061683,0.0,9.0,72.0,164.0,31.0,0.0
289847,-1.624974,-0.075366,-0.799039,-0.917498,-0.096474,0.007145,0.0,9.0,72.0,164.0,31.0,0.0
289848,-1.621293,-0.08479400000000001,-0.805032,-1.062103,-0.26465500000000003,-0.155945,0.0,9.0,72.0,164.0,31.0,0.0
289849,-1.612143,-0.08187699999999999,-0.809296,-0.7500859999999999,-0.834197,0.277911,0.0,9.0,72.0,164.0,31.0,0.0
289850,-1.630542,-0.075425,-0.8185640000000001,-0.7216359999999999,-0.345342,-0.117599,0.0,9.0,72.0,164.0,31.0,0.0
289851,-1.641706,-0.067209,-0.811253,-0.080178,-0.01415,-0.028316,0.0,9.0,72.0,164.0,31.0,0.0
289852,-1.627573,-0.067844,-0.777076,0.047022,0.164676,-0.185155,0.0,9.0,72.0,164.0,31.0,0.0
289853,-1.616592,-0.076212,-0.7406590000000001,0.143952,0.283252,-0.209328,0.0,9.0,72.0,164.0,31.0,0.0
289854,-1.611054,-0.08620499999999999,-0.718327,0.082054,-0.077645,-0.245679,0.0,9.0,72.0,164.0,31.0,0.0
289855,-1.594021,-0.098152,-0.6995439999999999,0.17290899999999998,-0.34070100000000003,-0.31254,0.0,9.0,72.0,164.0,31.0,0.0
289856,-1.582718,-0.113271,-0.672505,0.27962,-0.396888,-0.153721,0.0,9.0,72.0,164.0,31.0,0.0
289857,-1.584883,-0.125917,-0.65067,0.158211,-0.06818099999999999,0.319888,0.0,9.0,72.0,164.0,31.0,0.0
289858,-1.580177,-0.13686800000000002,-0.637502,0.217286,0.083591,0.154831,0.0,9.0,72.0,164.0,31.0,0.0
289859,-1.575272,-0.146297,-0.625627,0.312867,0.022696,-0.073321,0.0,9.0,72.0,164.0,31.0,0.0
289860,-1.574674,-0.155574,-0.609122,0.407788,-0.152597,-0.141557,0.0,9.0,72.0,164.0,31.0,0.0
289861,-1.572781,-0.161573,-0.591292,0.534684,-0.244306,-0.153632,0.0,9.0,72.0,164.0,31.0,0.0
289862,-1.576358,-0.16280999999999998,-0.580156,0.6613020000000001,-0.243192,-0.013209,0.0,9.0,72.0,164.0,31.0,0.0
289863,-1.593643,-0.160752,-0.579163,0.522338,-0.186885,0.151706,0.0,9.0,72.0,164.0,31.0,0.0
289864,-1.608023,-0.156841,-0.582907,0.377403,-0.174524,0.13078,0.0,9.0,72.0,164.0,31.0,0.0
289865,-1.616214,-0.15190499999999998,-0.587151,0.12296,-0.277878,0.014096,0.0,9.0,72.0,164.0,31.0,0.0
289866,-1.628851,-0.144601,-0.589562,0.036812,-0.267907,0.067827,0.0,9.0,72.0,164.0,31.0,0.0
289867,-1.652554,-0.13205999999999998,-0.589737,-0.142058,-0.231316,0.251732,0.0,9.0,72.0,164.0,31.0,0.0
289868,-1.689557,-0.111506,-0.586546,-0.318787,-0.139046,0.042716,0.0,9.0,72.0,164.0,31.0,0.0
289869,-1.727588,-0.08455599999999999,-0.578448,-0.650153,-0.062116,-0.063078,0.0,9.0,72.0,164.0,31.0,0.0
289870,-1.763816,-0.055048,-0.574512,-1.238643,0.127978,-0.271168,0.0,9.0,72.0,164.0,31.0,0.0
289871,-1.780877,-0.028608,-0.589869,-1.440221,0.347785,-0.31802600000000003,0.0,9.0,72.0,164.0,31.0,0.0
289872,-1.793805,0.003258,-0.615696,-0.15875999999999998,0.124535,-0.067277,0.0,9.0,72.0,164.0,31.0,0.0
289873,-1.7940490000000002,0.039142,-0.6409199999999999,-0.124507,0.039284,-0.046306,0.0,9.0,72.0,164.0,31.0,0.0
289874,-1.795279,0.072867,-0.660309,-0.14111600000000002,-0.003995,0.094182,0.0,9.0,72.0,164.0,31.0,0.0
289875,-1.785255,0.091451,-0.654725,-0.049624,-0.16829000000000002,0.200716,0.0,9.0,72.0,164.0,31.0,0.0
289876,-1.768711,0.098758,-0.624442,0.018895,-0.125646,0.082471,0.0,9.0,72.0,164.0,31.0,0.0
289877,-1.759377,0.0975,-0.5772609999999999,0.132631,-0.071508,-0.031713,0.0,9.0,72.0,164.0,31.0,0.0
289878,-1.7616740000000002,0.085625,-0.528429,0.493542,0.119791,-0.05551,0.0,9.0,72.0,164.0,31.0,0.0
289879,-1.768876,0.06666,-0.489368,0.652031,0.188925,-0.024245,0.0,9.0,72.0,164.0,31.0,0.0
289880,-1.773993,0.043819,-0.464367,0.719357,0.200497,-0.041176,0.0,9.0,72.0,164.0,31.0,0.0
289881,-1.7760330000000002,0.0196,-0.450207,0.6199640000000001,0.266181,-0.024438,0.0,9.0,72.0,164.0,31.0,0.0
289882,-1.773459,-0.008125,-0.442943,0.5435989999999999,0.316948,-0.026314,0.0,9.0,72.0,164.0,31.0,0.0
289883,-1.756277,-0.037522,-0.442434,0.232686,0.318352,-0.059456,0.0,9.0,72.0,164.0,31.0,0.0
289884,-1.727023,-0.063958,-0.448646,-0.025921,0.171971,-0.048187,0.0,9.0,72.0,164.0,31.0,0.0
289885,-1.7175349999999998,-0.080746,-0.458154,-0.458859,-0.134476,0.109666,0.0,9.0,72.0,164.0,31.0,0.0
289886,-1.730536,-0.080058,-0.471739,0.151384,-0.513033,0.28847,0.0,9.0,72.0,164.0,31.0,0.0
289887,-1.733653,-0.074393,-0.496763,0.214137,-1.001052,0.166757,0.0,9.0,72.0,164.0,31.0,0.0
289888,-1.7266849999999998,-0.060851,-0.522109,-0.137585,-1.067375,-0.002154,0.0,9.0,72.0,164.0,31.0,0.0
289889,-1.708364,-0.045261,-0.5185109999999999,-0.480116,-0.07236000000000001,-0.004745,0.0,9.0,72.0,164.0,31.0,0.0
289890,-1.679858,-0.048257,-0.489099,-0.238533,0.675868,-0.26663200000000004,0.0,9.0,72.0,164.0,31.0,0.0
289891,-1.640742,-0.059201,-0.467057,-0.026002,0.8909530000000001,-0.583178,0.0,9.0,72.0,164.0,31.0,0.0
289892,-1.629505,-0.07106599999999999,-0.464947,-0.718846,1.030816,-0.115274,0.0,9.0,72.0,164.0,31.0,0.0
289893,-1.651305,-0.092197,-0.464989,-0.802917,0.611089,-0.10898,0.0,9.0,72.0,164.0,31.0,0.0
289894,-1.648875,-0.104817,-0.457916,-0.8679889999999999,-0.907772,0.005818,0.0,9.0,72.0,164.0,31.0,0.0
289895,-1.6563900000000005,-0.118784,-0.432559,-0.63976,-1.167257,0.14482,0.0,9.0,72.0,164.0,31.0,0.0
289896,-1.6537380000000002,-0.130056,-0.392462,-0.165194,-0.213018,-0.444314,0.0,9.0,72.0,164.0,31.0,0.0
289897,-1.630436,-0.13878800000000002,-0.352823,-0.071363,0.11686,-0.449808,0.0,9.0,72.0,164.0,31.0,0.0
289898,-1.597113,-0.146583,-0.323542,0.082527,0.496398,-0.496444,0.0,9.0,72.0,164.0,31.0,0.0
289899,-1.545983,-0.15971300000000002,-0.302156,0.384792,0.379692,-0.458201,0.0,9.0,72.0,164.0,31.0,0.0
289900,-1.5251629999999998,-0.179566,-0.271054,0.25009000000000003,-0.132415,0.08329,0.0,9.0,72.0,164.0,31.0,0.0
289901,-1.528827,-0.20045,-0.22881,0.249252,-0.260115,0.541117,0.0,9.0,72.0,164.0,31.0,0.0
289902,-1.514908,-0.221735,-0.202178,0.228339,0.149401,0.268862,0.0,9.0,72.0,164.0,31.0,0.0
289903,-1.498248,-0.240052,-0.193217,0.10727,0.039758,0.12568900000000002,0.0,9.0,72.0,164.0,31.0,0.0
289904,-1.498572,-0.255373,-0.189072,0.071274,-0.274975,0.156918,0.0,9.0,72.0,164.0,31.0,0.0
289905,-1.504192,-0.263235,-0.18481,0.045821,-0.5942350000000001,0.28521,0.0,9.0,72.0,164.0,31.0,0.0
289906,-1.505856,-0.26602,-0.182346,0.109531,-0.699967,-0.039286,0.0,9.0,72.0,164.0,31.0,0.0
289907,-1.526104,-0.267174,-0.169998,0.121863,-0.496505,0.05005,0.0,9.0,72.0,164.0,31.0,0.0
289908,-1.545534,-0.261877,-0.152294,-0.248045,-0.549848,0.14801,0.0,9.0,72.0,164.0,31.0,0.0
289909,-1.559531,-0.25087800000000005,-0.13259500000000002,-0.311446,-0.370249,0.023211,0.0,9.0,72.0,164.0,31.0,0.0
289910,-1.58257,-0.233073,-0.116711,-0.251324,0.012882,-0.206402,0.0,9.0,72.0,164.0,31.0,0.0
289911,-1.624515,-0.212258,-0.109936,-0.43914,0.041301,-0.195935,0.0,9.0,72.0,164.0,31.0,0.0
289912,-1.674825,-0.18575,-0.110547,-0.392973,0.10418,-0.141513,0.0,9.0,72.0,164.0,31.0,0.0
289913,-1.7095619999999998,-0.158878,-0.106663,-0.37347,0.108376,-0.248348,0.0,9.0,72.0,164.0,31.0,0.0
289914,-1.729713,-0.137512,-0.101073,-0.244217,0.203024,-0.308518,0.0,9.0,72.0,164.0,31.0,0.0
289915,-1.740566,-0.119359,-0.101446,-0.163469,0.26776500000000003,-0.303571,0.0,9.0,72.0,164.0,31.0,0.0
289916,-1.742256,-0.097866,-0.103797,-0.204702,0.243996,-0.34264,0.0,9.0,72.0,164.0,31.0,0.0
289917,-1.7480060000000002,-0.072756,-0.101808,-0.256567,0.131501,-0.280248,0.0,9.0,72.0,164.0,31.0,0.0
289918,-1.760549,-0.042827,-0.08957000000000001,-0.218624,-0.094114,-0.19984,0.0,9.0,72.0,164.0,31.0,0.0
289919,-1.776543,-0.012753,-0.064236,-0.181059,-0.231488,-0.122722,0.0,9.0,72.0,164.0,31.0,0.0
289920,-1.793561,0.009894,-0.026975,-0.101714,-0.222574,-0.08529400000000001,0.0,9.0,72.0,164.0,31.0,0.0
289921,-1.808585,0.026812,0.023526,0.085825,-0.026597000000000003,-0.102319,0.0,9.0,72.0,164.0,31.0,0.0
289922,-1.822101,0.03992,0.074865,0.346396,0.211143,-0.236475,0.0,9.0,72.0,164.0,31.0,0.0
289923,-1.840388,0.050903,0.11979,0.383844,0.181755,-0.124832,0.0,9.0,72.0,164.0,31.0,0.0
289924,-1.847988,0.057378,0.153836,0.363711,0.096333,-0.101313,0.0,9.0,72.0,164.0,31.0,0.0
289925,-1.840559,0.048728,0.189273,0.428748,-0.078916,-0.229075,0.0,9.0,72.0,164.0,31.0,0.0
289926,-1.826967,0.027549,0.226237,0.426451,-0.135785,-0.238296,0.0,9.0,72.0,164.0,31.0,0.0
289927,-1.808312,-0.001553,0.260481,0.289056,-0.145627,-0.17178,0.0,9.0,72.0,164.0,31.0,0.0
289928,-1.793724,-0.032588,0.292662,-0.145296,-0.131429,0.122966,0.0,9.0,72.0,164.0,31.0,0.0
289929,-1.7892580000000002,-0.052158,0.32073,-0.284059,-0.211772,0.064635,0.0,9.0,72.0,164.0,31.0,0.0
289930,-1.790134,-0.048706,0.343588,-0.219092,-0.404323,0.056159,0.0,9.0,72.0,164.0,31.0,0.0
289931,-1.795017,-0.028422000000000006,0.366522,-0.195889,-0.46778,-0.259456,0.0,9.0,72.0,164.0,31.0,0.0
289932,-1.803541,-0.009722,0.40296,-0.525841,0.127928,-0.323685,0.0,9.0,72.0,164.0,31.0,0.0
289933,-1.798382,0.003905,0.447879,-0.382261,0.162322,-0.338187,0.0,9.0,72.0,164.0,31.0,0.0
289934,-1.783757,0.001895,0.489109,0.32363800000000004,0.22238400000000005,-0.330677,0.0,9.0,72.0,164.0,31.0,0.0
289935,-1.7790169999999998,-0.010293,0.52083,0.303186,0.32907800000000004,-0.415951,0.0,9.0,72.0,164.0,31.0,0.0
289936,-1.779464,-0.033460000000000004,0.548722,-0.068785,0.413003,-0.395516,0.0,9.0,72.0,164.0,31.0,0.0
289937,-1.782532,-0.065123,0.584051,-0.193707,0.197664,-0.4492890000000001,0.0,9.0,72.0,164.0,31.0,0.0
289938,-1.769716,-0.094751,0.633911,-0.189985,0.059658,-0.316474,0.0,9.0,72.0,164.0,31.0,0.0
289939,-1.747713,-0.121265,0.697932,-0.177766,-0.157406,-0.177036,0.0,9.0,72.0,164.0,31.0,0.0
289940,-1.727799,-0.145606,0.760772,-0.117194,-0.178264,-0.151895,0.0,9.0,72.0,164.0,31.0,0.0
289941,-1.715364,-0.167331,0.810909,-0.035505,-0.100724,-0.190086,0.0,9.0,72.0,164.0,31.0,0.0
289942,-1.6943720000000002,-0.182443,0.850741,-0.015359,-0.080557,-0.33018400000000003,0.0,9.0,72.0,164.0,31.0,0.0
289943,-1.664198,-0.192359,0.8933709999999999,-0.01986,-0.035123,-0.425209,0.0,9.0,72.0,164.0,31.0,0.0
289944,-1.635981,-0.201877,0.945631,0.014486,-0.001854,-0.307849,0.0,9.0,72.0,164.0,31.0,0.0
289945,-1.610881,-0.213433,1.001856,0.064028,-0.007227,-0.070735,0.0,9.0,72.0,164.0,31.0,0.0
289946,-1.587025,-0.225063,1.050899,0.064734,-0.081719,-0.007319,0.0,9.0,72.0,164.0,31.0,0.0
289947,-1.563958,-0.23490100000000005,1.09238,0.050421,-0.122273,-0.049136,0.0,9.0,72.0,164.0,31.0,0.0
289948,-1.541835,-0.244407,1.130034,0.079335,-0.164131,-0.165446,0.0,9.0,72.0,164.0,31.0,0.0
289949,-1.524388,-0.255166,1.169976,0.148948,-0.097118,-0.023806,0.0,9.0,72.0,164.0,31.0,0.0
289950,-1.513234,-0.26634,1.210241,0.054828,-0.197224,0.148931,0.0,9.0,72.0,164.0,31.0,0.0
289951,-1.505423,-0.276021,1.24612,0.022679,-0.270012,0.161975,0.0,9.0,72.0,164.0,31.0,0.0
289952,-1.499101,-0.282935,1.279042,0.009572,-0.300446,0.161391,0.0,9.0,72.0,164.0,31.0,0.0
289953,-1.497061,-0.28723000000000004,1.303955,-0.080154,-0.278216,0.166155,0.0,9.0,72.0,164.0,31.0,0.0
289954,-1.503159,-0.288182,1.316743,-0.130807,-0.248489,0.109552,0.0,9.0,72.0,164.0,31.0,0.0
289955,-1.514124,-0.285239,1.3250620000000002,-0.443883,-0.289443,-0.008177,0.0,9.0,72.0,164.0,31.0,0.0
289956,-1.523487,-0.278213,1.336393,-0.138577,-0.216288,-0.12620399999999998,0.0,9.0,72.0,164.0,31.0,0.0
289957,-1.540281,-0.264231,1.347316,-0.068196,-0.198225,-0.103437,0.0,9.0,72.0,164.0,31.0,0.0
289958,-1.577772,-0.241985,1.354885,-0.115026,-0.122534,0.012851,0.0,9.0,72.0,164.0,31.0,0.0
289959,-1.629029,-0.213286,1.359322,-0.246413,0.027235,0.038303,0.0,9.0,72.0,164.0,31.0,0.0
289960,-1.6709,-0.186398,1.359903,-0.319442,0.203748,-0.170653,0.0,9.0,72.0,164.0,31.0,0.0
289961,-1.696092,-0.16781400000000002,1.360044,-0.212731,0.207667,-0.265729,0.0,9.0,72.0,164.0,31.0,0.0
289962,-1.707623,-0.148835,1.363618,-0.22027,0.261946,-0.29993000000000003,0.0,9.0,72.0,164.0,31.0,0.0
289963,-1.719327,-0.12292,1.3661709999999998,-0.188599,0.18554,-0.28644000000000003,0.0,9.0,72.0,164.0,31.0,0.0
289964,-1.732695,-0.090008,1.369326,-0.147617,-0.026761,-0.22899,0.0,9.0,72.0,164.0,31.0,0.0
289965,-1.7457470000000002,-0.05523,1.37885,-0.055255,-0.17361,-0.21014,0.0,9.0,72.0,164.0,31.0,0.0
289966,-1.762371,-0.019037,1.402032,-0.096755,-0.389504,-0.171205,0.0,9.0,72.0,164.0,31.0,0.0
289967,-1.784677,0.013386000000000002,1.443801,-0.135961,-0.273343,-0.13151400000000002,0.0,9.0,72.0,164.0,31.0,0.0
289968,-1.807802,0.034842000000000005,1.495249,0.023391,0.150054,-0.121933,0.0,9.0,72.0,164.0,31.0,0.0
289969,-1.826286,0.050497,1.544672,0.295311,0.480224,-0.14447000000000002,0.0,9.0,72.0,164.0,31.0,0.0
289970,-1.836305,0.066028,1.586911,0.409506,0.364655,-0.109849,0.0,9.0,72.0,164.0,31.0,0.0
289971,-1.839669,0.075791,1.624227,0.405084,0.31108600000000003,-0.139606,0.0,9.0,72.0,164.0,31.0,0.0
289972,-1.840404,0.07518999999999999,1.657289,0.382731,0.08693,-0.192052,0.0,9.0,72.0,164.0,31.0,0.0
289973,-1.837955,0.064288,1.685283,0.35779,-0.065807,-0.181216,0.0,9.0,72.0,164.0,31.0,0.0
289974,-1.827961,0.046443,1.707427,0.185122,-0.194495,-0.154134,0.0,9.0,72.0,164.0,31.0,0.0
289975,-1.811673,0.02514,1.724709,-0.119027,-0.263086,-0.029248000000000007,0.0,9.0,72.0,164.0,31.0,0.0
289976,-1.799584,0.006344,1.741054,-0.413092,-0.254062,0.049637,0.0,9.0,72.0,164.0,31.0,0.0
289977,-1.792812,-0.00111,1.7580240000000005,-0.463989,-0.216198,0.100011,0.0,9.0,72.0,164.0,31.0,0.0
289978,-1.7879169999999998,0.007356999999999998,1.777759,-0.222729,-0.337934,0.045986,0.0,9.0,72.0,164.0,31.0,0.0
289979,-1.7853,0.024683,1.799899,0.192797,-0.231712,0.036364,0.0,9.0,72.0,164.0,31.0,0.0
289980,-1.787378,0.038089,1.81958,0.144289,0.022027,-0.04373,0.0,9.0,72.0,164.0,31.0,0.0
289981,-1.791396,0.041032,1.836798,-0.560538,0.172277,-0.165529,0.0,9.0,72.0,164.0,31.0,0.0
289982,-1.789143,0.039487,1.855133,-0.7591289999999999,0.294741,-0.488449,0.0,9.0,72.0,164.0,31.0,0.0
289983,-1.765482,0.036009,1.875601,-0.124774,0.266226,-0.241931,0.0,9.0,72.0,164.0,31.0,0.0
289984,-1.763329,0.031776,1.899023,0.416766,0.112657,-0.056711,0.0,9.0,72.0,164.0,31.0,0.0
289985,-1.77584,0.030945,1.91788,0.234559,0.042064,-0.212575,0.0,9.0,72.0,164.0,31.0,0.0
289986,-1.782131,0.017463,1.942336,0.082928,0.180594,-0.342697,0.0,9.0,72.0,164.0,31.0,0.0
289987,-1.784775,-0.004758,1.979075,-0.022137,0.399447,-0.342366,0.0,9.0,72.0,164.0,31.0,0.0
289988,-1.773292,-0.029362,2.013452,0.103819,0.4306640000000001,-0.26313000000000003,0.0,9.0,72.0,164.0,31.0,0.0
289989,-1.7512299999999998,-0.051226,2.037059,0.157503,0.253148,-0.068334,0.0,9.0,72.0,164.0,31.0,0.0
289990,-1.741615,-0.067861,2.04645,0.06412000000000001,-0.107131,-0.153865,0.0,9.0,72.0,164.0,31.0,0.0
289991,-1.742114,-0.081524,2.051098,-0.046757,-0.365888,-0.192619,0.0,9.0,72.0,164.0,31.0,0.0
289992,-1.743754,-0.092386,2.065825,-0.024742,-0.38794,-0.12914,0.0,9.0,72.0,164.0,31.0,0.0
289993,-1.740631,-0.10132,2.094069,0.095512,-0.123821,-0.068405,0.0,9.0,72.0,164.0,31.0,0.0
289994,-1.726213,-0.106928,2.123009,0.188948,-0.138325,-0.095969,0.0,9.0,72.0,164.0,31.0,0.0
289995,-1.709023,-0.109831,2.147717,0.17397200000000002,-0.079489,-0.146905,0.0,9.0,72.0,164.0,31.0,0.0
289996,-1.698163,-0.110984,2.169528,0.192914,-0.05938,-0.131733,0.0,9.0,72.0,164.0,31.0,0.0
289997,-1.692889,-0.111856,2.191834,0.178318,-0.019887,-0.117534,0.0,9.0,72.0,164.0,31.0,0.0
289998,-1.691122,-0.112066,2.212166,0.097971,0.034363,-0.004414,0.0,9.0,72.0,164.0,31.0,0.0
289999,-1.6909470000000002,-0.111527,2.226675,0.098051,0.034898,-0.004248,0.0,9.0,72.0,164.0,31.0,0.0
290000,-1.6901810000000002,-0.108732,2.236522,0.247922,0.046801,-0.082173,0.0,9.0,72.0,164.0,31.0,0.0
290001,-1.6885709999999998,-0.106036,2.245522,0.283204,0.003522,-0.103185,0.0,9.0,72.0,164.0,31.0,0.0
290002,-1.686783,-0.105195,2.253952,0.261648,-0.000234,-0.092442,0.0,9.0,72.0,164.0,31.0,0.0
290003,-1.68789,-0.104852,2.256766,0.284627,-0.029679,-0.034214,0.0,9.0,72.0,164.0,31.0,0.0
290004,-1.689121,-0.103361,2.25082,0.430389,-0.127851,-0.102495,0.0,9.0,72.0,164.0,31.0,0.0
290005,-1.687505,-0.101752,2.24059,0.437501,-0.181762,-0.139156,0.0,9.0,72.0,164.0,31.0,0.0
290006,-1.682875,-0.099468,2.230695,0.406273,-0.217376,-0.192345,0.0,9.0,72.0,164.0,31.0,0.0
290007,-1.677261,-0.092734,2.222977,0.17893199999999998,-0.312252,-0.078386,0.0,9.0,72.0,164.0,31.0,0.0
290008,-1.6817380000000002,-0.077891,2.215244,-0.066968,-0.275108,0.038838,0.0,9.0,72.0,164.0,31.0,0.0
290009,-1.700838,-0.053436,2.202864,-0.671639,-0.196584,0.194943,0.0,9.0,72.0,164.0,31.0,0.0
290010,-1.717786,-0.017396000000000002,2.188806,-1.268096,0.043701,-0.076186,0.0,9.0,72.0,164.0,31.0,0.0
290011,-1.748832,0.036997,2.180387,-1.394599,0.44124,-0.127414,0.0,9.0,72.0,164.0,31.0,0.0
290012,-1.789054,0.093302,2.183866,-0.484673,0.957058,-0.16923,0.0,9.0,72.0,164.0,31.0,0.0
290013,-1.812025,0.135989,2.183739,-0.047174,0.5575220000000001,0.06453500000000001,0.0,9.0,72.0,164.0,31.0,0.0
290014,-1.815701,0.16802,2.168928,-0.14740599999999998,-0.008276,0.077252,0.0,9.0,72.0,164.0,31.0,0.0
290015,-1.812483,0.192489,2.1565990000000004,-0.007545,-0.232464,-0.015192,0.0,9.0,72.0,164.0,31.0,0.0
290016,-1.806509,0.206597,2.160084,0.0797,-0.199594,0.019128,0.0,9.0,72.0,164.0,31.0,0.0
290017,-1.801808,0.206988,2.176445,0.17893699999999998,-0.023415,0.05118,0.0,9.0,72.0,164.0,31.0,0.0
290018,-1.799527,0.198914,2.199498,0.429887,0.090854,0.023733,0.0,9.0,72.0,164.0,31.0,0.0
290019,-1.8001349999999998,0.182738,2.2210970000000003,0.5052800000000001,0.13228399999999998,0.033441000000000005,0.0,9.0,72.0,164.0,31.0,0.0
290020,-1.7982049999999998,0.161003,2.233035,0.585548,0.15423499999999998,0.052885,0.0,9.0,72.0,164.0,31.0,0.0
290021,-1.790728,0.13508,2.233262,0.622838,0.215923,-0.00539,0.0,9.0,72.0,164.0,31.0,0.0
290022,-1.779309,0.103503,2.226181,0.636977,0.19365,-0.035364,0.0,9.0,72.0,164.0,31.0,0.0
290023,-1.764185,0.063527,2.2172970000000003,0.357149,0.057304,-0.138559,0.0,9.0,72.0,164.0,31.0,0.0
290024,-1.743359,0.019613,2.21073,-0.051929,-0.005871,-0.169965,0.0,9.0,72.0,164.0,31.0,0.0
290025,-1.72038,-0.017621,2.215021,-0.195943,-0.033794,-0.143326,0.0,9.0,72.0,164.0,31.0,0.0
290026,-1.70028,-0.034868,2.235431,0.06423,-0.10808800000000003,0.11883599999999997,0.0,9.0,72.0,164.0,31.0,0.0
290027,-1.685053,-0.036246,2.253751,0.111076,-0.003844,0.216573,0.0,9.0,72.0,164.0,31.0,0.0
290028,-1.671331,-0.036929,2.251446,-0.318021,-0.056849,0.384521,0.0,9.0,72.0,164.0,31.0,0.0
290029,-1.6436650000000002,-0.036009,2.240725,-0.244274,0.1728,-0.178668,0.0,9.0,72.0,164.0,31.0,0.0
290030,-1.6070719999999998,-0.041241,2.23745,-0.424808,0.393692,-0.22627,0.0,9.0,72.0,164.0,31.0,0.0
290031,-1.599722,-0.048364,2.23481,-0.351387,0.031595,-0.088077,0.0,9.0,72.0,164.0,31.0,0.0
290032,-1.612242,-0.047192000000000005,2.236049,-0.560496,-0.34528600000000004,0.12417,0.0,9.0,72.0,164.0,31.0,0.0
290033,-1.62205,-0.044718,2.240511,-0.705749,-0.345637,-0.098757,0.0,9.0,72.0,164.0,31.0,0.0
290034,-1.632588,-0.036286,2.240945,-0.234827,0.025749,-0.19344,0.0,9.0,72.0,164.0,31.0,0.0
290035,-1.646316,-0.031306,2.243646,-0.30367,0.12726800000000002,-0.094179,0.0,9.0,72.0,164.0,31.0,0.0
290036,-1.64258,-0.033637,2.254169,-0.0237,-0.036178,-0.028728,0.0,9.0,72.0,164.0,31.0,0.0
290037,-1.633833,-0.039214,2.274295,0.135377,-0.044361000000000005,-0.112507,0.0,9.0,72.0,164.0,31.0,0.0
290038,-1.619987,-0.050641000000000005,2.300101,0.199224,-0.033575,-0.154912,0.0,9.0,72.0,164.0,31.0,0.0
290039,-1.604706,-0.064887,2.325392,0.27472,-0.067146,-0.120867,0.0,9.0,72.0,164.0,31.0,0.0
290040,-1.59503,-0.073956,2.343435,0.306598,-0.223684,-0.06893400000000001,0.0,9.0,72.0,164.0,31.0,0.0
290041,-1.591348,-0.073511,2.35224,0.222179,-0.135166,-0.029467,0.0,9.0,72.0,164.0,31.0,0.0
290042,-1.601509,-0.069886,2.353692,0.101665,0.06493600000000001,0.186287,0.0,9.0,72.0,164.0,31.0,0.0
290043,-1.615374,-0.064902,2.347269,0.277032,0.022347,0.189204,0.0,9.0,72.0,164.0,31.0,0.0
290044,-1.617027,-0.062875,2.338645,0.386019,-0.045424,0.095158,0.0,9.0,72.0,164.0,31.0,0.0
290045,-1.61874,-0.06244400000000001,2.330955,0.419138,-0.192241,-0.033504,0.0,9.0,72.0,164.0,31.0,0.0
290046,-1.62997,-0.059915,2.32496,0.327979,-0.171726,-0.068005,0.0,9.0,72.0,164.0,31.0,0.0
290047,-1.646843,-0.05158,2.317813,0.220874,-0.143949,-0.033254,0.0,9.0,72.0,164.0,31.0,0.0
290048,-1.670589,-0.033891000000000004,2.30363,0.00708,-0.106516,0.018274,0.0,9.0,72.0,164.0,31.0,0.0
290049,-1.697775,-0.005287,2.283803,-0.675446,0.090981,0.003782,0.0,9.0,72.0,164.0,31.0,0.0
290050,-1.721251,0.035273,2.270058,-1.089282,0.314288,-0.096448,0.0,9.0,72.0,164.0,31.0,0.0
290051,-1.748659,0.08971599999999999,2.261381,-1.289075,0.426464,-0.056218,0.0,9.0,72.0,164.0,31.0,0.0
290052,-1.7718650000000002,0.140008,2.246322,0.303921,0.440333,-0.417899,0.0,9.0,72.0,164.0,31.0,0.0
290053,-1.795049,0.177605,2.226147,0.11266099999999997,0.104956,0.289881,0.0,9.0,72.0,164.0,31.0,0.0
290054,-1.798514,0.201972,2.199782,-0.14218499999999998,-0.125433,0.347425,0.0,9.0,72.0,164.0,31.0,0.0
290055,-1.787861,0.208427,2.191275,-0.022332,0.040234,-0.030449,0.0,9.0,72.0,164.0,31.0,0.0
290056,-1.7790119999999998,0.208645,2.200317,0.051366,0.06502999999999999,-0.028737,0.0,9.0,72.0,164.0,31.0,0.0
290057,-1.7761939999999998,0.201742,2.220319,0.350093,0.066511,0.06454,0.0,9.0,72.0,164.0,31.0,0.0
290058,-1.777641,0.184034,2.240801,0.469672,0.07939,0.131563,0.0,9.0,72.0,164.0,31.0,0.0
290059,-1.776013,0.158371,2.251195,0.6789,0.152064,0.225744,0.0,9.0,72.0,164.0,31.0,0.0
290060,-1.7650279999999998,0.13050599999999998,2.248953,0.8002060000000001,0.132043,0.018287,0.0,9.0,72.0,164.0,31.0,0.0
290061,-1.7523540000000002,0.098293,2.24084,0.817537,0.056432,-0.052537,0.0,9.0,72.0,164.0,31.0,0.0
290062,-1.7458599999999995,0.054682000000000015,2.233197,0.61115,-0.073152,-0.119877,0.0,9.0,72.0,164.0,31.0,0.0
290063,-1.741413,0.004399,2.229717,-0.200634,-0.076,-0.037905,0.0,9.0,72.0,164.0,31.0,0.0
290064,-1.734976,-0.036493,2.237732,-0.4176,-0.110078,0.006253,0.0,9.0,72.0,164.0,31.0,0.0
290065,-1.716636,-0.051292,2.259491,-0.181007,-0.143295,0.044932,0.0,9.0,72.0,164.0,31.0,0.0
290066,-1.693316,-0.050513,2.278743,0.103123,0.115264,0.318069,0.0,9.0,72.0,164.0,31.0,0.0
290067,-1.682938,-0.053492,2.277403,-0.419255,0.188828,0.407069,0.0,9.0,72.0,164.0,31.0,0.0
290068,-1.6617080000000002,-0.05596,2.266919,-0.239842,0.223823,0.035348000000000004,0.0,9.0,72.0,164.0,31.0,0.0
290069,-1.613455,-0.061538,2.258124,-0.226822,0.621499,-0.367928,0.0,9.0,72.0,164.0,31.0,0.0
290070,-1.595699,-0.073058,2.244725,-0.374886,0.294485,-0.014946,0.0,9.0,72.0,164.0,31.0,0.0
290071,-1.6282219999999998,-0.07228899999999999,2.233522,-1.146505,0.073236,0.149284,0.0,9.0,72.0,164.0,31.0,0.0
290072,-1.631981,-0.06353099999999999,2.223891,-0.46956,-0.667751,-0.10628,0.0,9.0,72.0,164.0,31.0,0.0
290073,-1.635442,-0.052783,2.224084,-0.400352,-0.133935,-0.107205,0.0,9.0,72.0,164.0,31.0,0.0
290074,-1.657256,-0.047019,2.229686,-0.298362,-0.07217799999999999,0.033342000000000004,0.0,9.0,72.0,164.0,31.0,0.0
290075,-1.658593,-0.041999,2.245935,0.127083,0.059865,-0.171423,0.0,9.0,72.0,164.0,31.0,0.0
290076,-1.641186,-0.044636,2.271219,0.23312600000000006,0.16228800000000002,-0.259195,0.0,9.0,72.0,164.0,31.0,0.0
290077,-1.619935,-0.056914,2.29441,0.343635,-0.003798,-0.168698,0.0,9.0,72.0,164.0,31.0,0.0
290078,-1.601677,-0.069518,2.30971,0.178117,-0.237247,-0.200479,0.0,9.0,72.0,164.0,31.0,0.0
290079,-1.584044,-0.07823200000000001,2.321418,0.308004,-0.397274,-0.047707,0.0,9.0,72.0,164.0,31.0,0.0
290080,-1.589341,-0.08089099999999999,2.325949,0.293808,-0.386848,0.280177,0.0,9.0,72.0,164.0,31.0,0.0
290081,-1.6112229999999998,-0.078362,2.317149,0.244523,0.182033,0.278847,0.0,9.0,72.0,164.0,31.0,0.0
290082,-1.61206,-0.08087799999999999,2.3105580000000003,0.378718,0.14598599999999998,0.091253,0.0,9.0,72.0,164.0,31.0,0.0
290083,-1.60744,-0.083374,2.308161,0.486221,-0.09672,-0.077737,0.0,9.0,72.0,164.0,31.0,0.0
290084,-1.61175,-0.083018,2.307523,0.5359649999999999,-0.079626,-0.202345,0.0,9.0,72.0,164.0,31.0,0.0
290085,-1.621823,-0.07952999999999999,2.308256,0.406026,-0.065576,-0.27215700000000004,0.0,9.0,72.0,164.0,31.0,0.0
290086,-1.635078,-0.07387200000000001,2.306375,0.352582,-0.12068,-0.229803,0.0,9.0,72.0,164.0,31.0,0.0
290087,-1.653687,-0.062727,2.2966330000000004,-0.096343,-0.298816,0.207773,0.0,9.0,72.0,164.0,31.0,0.0
290088,-1.678798,-0.041817,2.273671,-0.525578,-0.163418,0.099273,0.0,9.0,72.0,164.0,31.0,0.0
290089,-1.693164,-0.01107,2.250425,-0.718072,0.083214,-0.190581,0.0,9.0,72.0,164.0,31.0,0.0
290090,-1.718608,0.029302,2.235162,-0.962493,0.197725,-0.062524,0.0,9.0,72.0,164.0,31.0,0.0
290091,-1.7594759999999998,0.073972,2.229018,-0.935389,0.45423,-0.2582,0.0,9.0,72.0,164.0,31.0,0.0
290092,-1.800588,0.119562,2.224338,-0.500866,0.4836720000000001,0.144246,0.0,9.0,72.0,164.0,31.0,0.0
290093,-1.814381,0.15423,2.2091220000000003,-0.144304,0.224557,0.190576,0.0,9.0,72.0,164.0,31.0,0.0
290094,-1.81419,0.173796,2.20269,-0.01235,0.076288,0.001038,0.0,9.0,72.0,164.0,31.0,0.0
290095,-1.805654,0.183998,2.206722,0.027457,0.031289,-0.018737,0.0,9.0,72.0,164.0,31.0,0.0
290096,-1.794556,0.18578,2.21909,0.070771,-0.009379,-0.023085,0.0,9.0,72.0,164.0,31.0,0.0
290097,-1.784166,0.177395,2.234819,0.344042,0.003065,0.033682,0.0,9.0,72.0,164.0,31.0,0.0
290098,-1.7768,0.159233,2.250057,0.463305,0.009986,0.07205700000000001,0.0,9.0,72.0,164.0,31.0,0.0
290099,-1.768627,0.134855,2.261619,0.5642050000000001,0.011766,0.12664,0.0,9.0,72.0,164.0,31.0,0.0
290100,-1.752947,0.108528,2.267515,0.6801149999999999,0.08457200000000001,0.028434,0.0,9.0,72.0,164.0,31.0,0.0
290101,-1.73463,0.077738,2.267691,0.695978,0.022621,-0.035517,0.0,9.0,72.0,164.0,31.0,0.0
290102,-1.7209470000000002,0.039957,2.265957,0.46044,0.009215,-0.117423,0.0,9.0,72.0,164.0,31.0,0.0
290103,-1.7109869999999998,0.000293,2.269988,0.115395,-0.005062,-0.027578,0.0,9.0,72.0,164.0,31.0,0.0
290104,-1.7014169999999995,-0.032343000000000004,2.285239,-0.034375,0.050197000000000006,0.016411000000000002,0.0,9.0,72.0,164.0,31.0,0.0
290105,-1.687918,-0.046903,2.306915,-0.021272,0.17674700000000002,-0.04838,0.0,9.0,72.0,164.0,31.0,0.0
290106,-1.666346,-0.046578,2.317664,0.271665,0.206109,0.088812,0.0,9.0,72.0,164.0,31.0,0.0
290107,-1.655648,-0.048169,2.302866,0.182708,-0.049631,0.284627,0.0,9.0,72.0,164.0,31.0,0.0
290108,-1.6549470000000002,-0.047972,2.276925,-0.446099,0.08754400000000001,0.328339,0.0,9.0,72.0,164.0,31.0,0.0
290109,-1.626756,-0.050706,2.265215,-0.127551,0.4328520000000001,-0.381038,0.0,9.0,72.0,164.0,31.0,0.0
290110,-1.592633,-0.063453,2.265315,-0.15551700000000002,0.577184,-0.390489,0.0,9.0,72.0,164.0,31.0,0.0
290111,-1.591904,-0.081451,2.264113,-0.34348,0.254637,-0.104349,0.0,9.0,72.0,164.0,31.0,0.0
290112,-1.609559,-0.091553,2.262712,-0.821319,-0.109858,-0.194246,0.0,9.0,72.0,164.0,31.0,0.0
290113,-1.617841,-0.088045,2.258342,-1.105569,-0.8905290000000001,0.425719,0.0,9.0,72.0,164.0,31.0,0.0
290114,-1.623933,-0.078463,2.24566,-0.563146,-0.844526,0.199325,0.0,9.0,72.0,164.0,31.0,0.0
290115,-1.640049,-0.065815,2.237946,-0.379534,-0.33571,-0.10673599999999997,0.0,9.0,72.0,164.0,31.0,0.0
290116,-1.6466040000000002,-0.055283000000000006,2.258771,0.051414,0.274198,-0.285869,0.0,9.0,72.0,164.0,31.0,0.0
290117,-1.621242,-0.053198,2.293488,0.277063,0.5245850000000001,-0.232253,0.0,9.0,72.0,164.0,31.0,0.0
290118,-1.611693,-0.056077,2.316728,0.11659,0.399015,0.06567100000000001,0.0,9.0,72.0,164.0,31.0,0.0
290119,-1.609224,-0.067713,2.326289,0.158159,-0.190052,-0.241974,0.0,9.0,72.0,164.0,31.0,0.0
290120,-1.5920219999999998,-0.07915,2.336455,0.365016,-0.5256,-0.211511,0.0,9.0,72.0,164.0,31.0,0.0
290121,-1.586094,-0.089245,2.3526860000000003,0.262422,-0.640594,0.340843,0.0,9.0,72.0,164.0,31.0,0.0
290122,-1.60073,-0.091162,2.354766,0.273654,-0.154176,0.4144100000000001,0.0,9.0,72.0,164.0,31.0,0.0
290123,-1.598685,-0.096747,2.350463,0.404231,0.263969,0.157395,0.0,9.0,72.0,164.0,31.0,0.0
290124,-1.591033,-0.103603,2.353655,0.5112270000000001,0.08658500000000001,-0.156022,0.0,9.0,72.0,164.0,31.0,0.0
290125,-1.589817,-0.105778,2.3582240000000003,0.561133,-0.063223,-0.196281,0.0,9.0,72.0,164.0,31.0,0.0
290126,-1.595516,-0.107093,2.360526,0.5768909999999999,-0.202439,-0.209299,0.0,9.0,72.0,164.0,31.0,0.0
290127,-1.605604,-0.103267,2.364063,0.35594000000000003,-0.249019,-0.08254299999999999,0.0,9.0,72.0,164.0,31.0,0.0
290128,-1.620274,-0.094734,2.362527,0.29285900000000004,-0.15678699999999998,0.037496,0.0,9.0,72.0,164.0,31.0,0.0
290129,-1.638997,-0.08395,2.3457830000000004,-0.144533,-0.091938,0.1887,0.0,9.0,72.0,164.0,31.0,0.0
290130,-1.6555650000000002,-0.067878,2.319331,-0.568714,-0.124588,0.034379,0.0,9.0,72.0,164.0,31.0,0.0
290131,-1.667358,-0.044403,2.2959400000000003,-0.7720060000000001,-0.085115,-0.08290299999999999,0.0,9.0,72.0,164.0,31.0,0.0
290132,-1.698432,-0.007534000000000002,2.277456,-0.704308,0.102147,-0.16708,0.0,9.0,72.0,164.0,31.0,0.0
290133,-1.7452299999999998,0.038052,2.265988,-0.6038640000000001,0.378863,0.003976,0.0,9.0,72.0,164.0,31.0,0.0
290134,-1.778684,0.078454,2.260812,-0.7023149999999999,0.396565,0.064309,0.0,9.0,72.0,164.0,31.0,0.0
290135,-1.7972439999999998,0.112257,2.256518,-0.5150100000000001,0.540396,0.254391,0.0,9.0,72.0,164.0,31.0,0.0
290136,-1.800346,0.15024300000000002,2.246291,-0.160593,0.249456,0.085833,0.0,9.0,72.0,164.0,31.0,0.0
290137,-1.789316,0.183564,2.241918,0.005234,-0.028876,-0.03002,0.0,9.0,72.0,164.0,31.0,0.0
290138,-1.778529,0.201623,2.245413,0.120948,-0.082089,0.020488,0.0,9.0,72.0,164.0,31.0,0.0
290139,-1.770217,0.204669,2.255232,0.220853,-0.111454,-0.03683,0.0,9.0,72.0,164.0,31.0,0.0
290140,-1.764142,0.194448,2.270853,0.357425,-0.046872,-0.083128,0.0,9.0,72.0,164.0,31.0,0.0
290141,-1.762066,0.17511600000000002,2.287821,0.555531,0.025968,0.008879000000000001,0.0,9.0,72.0,164.0,31.0,0.0
290142,-1.759955,0.152026,2.300597,0.7304689999999999,0.07131799999999999,0.105458,0.0,9.0,72.0,164.0,31.0,0.0
290143,-1.749202,0.12659,2.305548,0.828417,0.142854,0.105516,0.0,9.0,72.0,164.0,31.0,0.0
290144,-1.730411,0.09699,2.303814,0.8542370000000001,0.140249,0.022078,0.0,9.0,72.0,164.0,31.0,0.0
290145,-1.7116790000000002,0.05718300000000001,2.298471,0.540132,0.226005,-0.061619000000000014,0.0,9.0,72.0,164.0,31.0,0.0
290146,-1.6987290000000002,0.008831,2.294363,0.040029,0.208309,-0.069839,0.0,9.0,72.0,164.0,31.0,0.0
290147,-1.69216,-0.033929,2.301057,-0.301774,0.101042,0.028205,0.0,9.0,72.0,164.0,31.0,0.0
290148,-1.685939,-0.05662200000000001,2.31663,-0.288526,0.024921,-0.009875,0.0,9.0,72.0,164.0,31.0,0.0
290149,-1.661778,-0.052989,2.325034,-0.261783,-0.093842,0.080491,0.0,9.0,72.0,164.0,31.0,0.0
290150,-1.634841,-0.038383,2.305444,-0.398225,-0.08086900000000001,0.179836,0.0,9.0,72.0,164.0,31.0,0.0
290151,-1.604888,-0.033344,2.275676,-0.559967,0.379519,-0.219659,0.0,9.0,72.0,164.0,31.0,0.0
290152,-1.57965,-0.045465,2.259101,-0.628583,0.396658,-0.354318,0.0,9.0,72.0,164.0,31.0,0.0
290153,-1.570865,-0.050744,2.256344,-0.529463,-0.104128,-0.187737,0.0,9.0,72.0,164.0,31.0,0.0
290154,-1.578686,-0.048095,2.266661,-0.682577,-0.71899,0.465539,0.0,9.0,72.0,164.0,31.0,0.0
290155,-1.603313,-0.043383,2.275423,-0.537625,-0.258305,0.058904999999999985,0.0,9.0,72.0,164.0,31.0,0.0
290156,-1.612363,-0.03746,2.282216,-0.321794,0.176111,-0.250388,0.0,9.0,72.0,164.0,31.0,0.0
290157,-1.612306,-0.033483,2.291424,-0.057597,0.182542,-0.14241099999999998,0.0,9.0,72.0,164.0,31.0,0.0
290158,-1.60678,-0.035691,2.307196,0.150335,0.17253800000000002,-0.150241,0.0,9.0,72.0,164.0,31.0,0.0
290159,-1.600028,-0.043127,2.327534,0.286477,0.059517,-0.13753800000000002,0.0,9.0,72.0,164.0,31.0,0.0
290160,-1.592671,-0.053101,2.345264,0.411445,-0.093405,-0.135871,0.0,9.0,72.0,164.0,31.0,0.0
290161,-1.589652,-0.063814,2.357935,0.377631,-0.1731,-0.07593,0.0,9.0,72.0,164.0,31.0,0.0
290162,-1.588308,-0.074446,2.368949,0.146254,-0.026877,0.197534,0.0,9.0,72.0,164.0,31.0,0.0
290163,-1.586253,-0.082578,2.377411,0.184515,0.009664,0.202492,0.0,9.0,72.0,164.0,31.0,0.0
290164,-1.589513,-0.08959199999999999,2.381601,0.26424000000000003,0.006520999999999999,0.100592,0.0,9.0,72.0,164.0,31.0,0.0
290165,-1.5958709999999998,-0.094937,2.382251,0.355283,-0.094947,0.013813999999999998,0.0,9.0,72.0,164.0,31.0,0.0
290166,-1.604416,-0.097518,2.378523,0.378208,-0.105863,-0.000968,0.0,9.0,72.0,164.0,31.0,0.0
290167,-1.615346,-0.097261,2.370365,0.331375,-0.19098,-0.062238,0.0,9.0,72.0,164.0,31.0,0.0
290168,-1.627833,-0.094184,2.359081,0.355086,-0.217107,-0.094091,0.0,9.0,72.0,164.0,31.0,0.0
290169,-1.6438400000000002,-0.088612,2.345864,0.349186,-0.209391,1.6e-05,0.0,9.0,72.0,164.0,31.0,0.0
290170,-1.666364,-0.079091,2.327737,0.089668,-0.222594,0.037567,0.0,9.0,72.0,164.0,31.0,0.0
290171,-1.69426,-0.0643,2.301327,-0.122983,-0.130189,0.135177,0.0,9.0,72.0,164.0,31.0,0.0
290172,-1.728056,-0.043026,2.271504,-0.489947,0.094744,0.02841,0.0,9.0,72.0,164.0,31.0,0.0
290173,-1.760205,-0.015647,2.241781,-0.814293,0.35701900000000003,-0.075536,0.0,9.0,72.0,164.0,31.0,0.0
290174,-1.7955759999999998,0.020856,2.2211540000000003,-1.104967,0.612301,-0.041719,0.0,9.0,72.0,164.0,31.0,0.0
290175,-1.821363,0.063429,2.212094,-0.614224,0.484193,-0.10321099999999997,0.0,9.0,72.0,164.0,31.0,0.0
290176,-1.832146,0.10468800000000003,2.204078,-0.125682,0.037648,0.046407,0.0,9.0,72.0,164.0,31.0,0.0
290177,-1.828726,0.133689,2.199086,-0.088882,-0.174875,0.055808,0.0,9.0,72.0,164.0,31.0,0.0
290178,-1.816705,0.152389,2.19862,-0.030423,-0.178949,-0.01161,0.0,9.0,72.0,164.0,31.0,0.0
290179,-1.802002,0.16206099999999998,2.204054,0.012706,-0.135965,-0.009685,0.0,9.0,72.0,164.0,31.0,0.0
290180,-1.789805,0.162438,2.212414,0.251249,-0.039234,0.083589,0.0,9.0,72.0,164.0,31.0,0.0
290181,-1.779039,0.152975,2.220472,0.492428,0.024953,0.180532,0.0,9.0,72.0,164.0,31.0,0.0
290182,-1.767946,0.13289700000000002,2.225869,0.6098060000000001,0.07421699999999999,0.264533,0.0,9.0,72.0,164.0,31.0,0.0
290183,-1.749238,0.109812,2.224075,0.737996,0.08746699999999999,0.192929,0.0,9.0,72.0,164.0,31.0,0.0
290184,-1.7288439999999998,0.08292200000000001,2.219077,0.688084,-0.07292,-0.192691,0.0,9.0,72.0,164.0,31.0,0.0
290185,-1.719136,0.045368,2.218316,0.676071,-0.093517,-0.224074,0.0,9.0,72.0,164.0,31.0,0.0
290186,-1.714697,-0.000558,2.224206,0.649583,-0.092553,-0.219575,0.0,9.0,72.0,164.0,31.0,0.0
290187,-1.709227,-0.045581,2.239039,-0.249739,-0.08076799999999999,0.175479,0.0,9.0,72.0,164.0,31.0,0.0
290188,-1.700878,-0.075759,2.262966,-0.507944,-0.118686,0.247077,0.0,9.0,72.0,164.0,31.0,0.0
290189,-1.6769189999999998,-0.080679,2.288319,-0.391406,-0.175547,0.266371,0.0,9.0,72.0,164.0,31.0,0.0
290190,-1.650098,-0.075788,2.303578,-0.252701,0.076278,0.354878,0.0,9.0,72.0,164.0,31.0,0.0
290191,-1.626782,-0.065566,2.302881,-0.300915,0.329455,0.29092,0.0,9.0,72.0,164.0,31.0,0.0
290192,-1.593298,-0.068012,2.300069,-0.314538,0.484027,0.043715,0.0,9.0,72.0,164.0,31.0,0.0
290193,-1.576675,-0.0862,2.296049,0.012468,0.371228,-0.347074,0.0,9.0,72.0,164.0,31.0,0.0
290194,-1.585461,-0.091462,2.292789,-0.672995,0.086538,0.017013,0.0,9.0,72.0,164.0,31.0,0.0
290195,-1.597997,-0.095874,2.300589,-0.949792,-0.140085,-0.0582,0.0,9.0,72.0,164.0,31.0,0.0
290196,-1.598916,-0.095487,2.31944,-0.734509,-0.930821,0.337735,0.0,9.0,72.0,164.0,31.0,0.0
290197,-1.622357,-0.086651,2.329132,-0.569078,-0.321802,-0.029615,0.0,9.0,72.0,164.0,31.0,0.0
290198,-1.634502,-0.07557699999999999,2.3368900000000004,-0.344316,-0.098973,-0.081958,0.0,9.0,72.0,164.0,31.0,0.0
290199,-1.629263,-0.070752,2.357041,0.332838,0.350129,-0.325178,0.0,9.0,72.0,164.0,31.0,0.0
290200,-1.610693,-0.07307999999999999,2.380409,0.5223479999999999,0.218825,-0.370605,0.0,9.0,72.0,164.0,31.0,0.0
290201,-1.579963,-0.07949500000000001,2.390706,0.572965,0.071727,-0.395749,0.0,9.0,72.0,164.0,31.0,0.0
290202,-1.564431,-0.089902,2.3982240000000004,0.439126,-0.051833,-0.098962,0.0,9.0,72.0,164.0,31.0,0.0
290203,-1.568953,-0.100906,2.411138,0.12256,-0.14643499999999998,0.212939,0.0,9.0,72.0,164.0,31.0,0.0
290204,-1.594648,-0.107264,2.411341,0.108603,-0.119189,0.450088,0.0,9.0,72.0,164.0,31.0,0.0
290205,-1.59654,-0.112622,2.400631,0.419309,-0.126056,0.031368,0.0,9.0,72.0,164.0,31.0,0.0
290206,-1.591797,-0.117417,2.396645,0.429229,-0.16348800000000002,-0.028026,0.0,9.0,72.0,164.0,31.0,0.0
290207,-1.606159,-0.11519,2.392697,0.28933000000000003,-0.306952,-0.014124,0.0,9.0,72.0,164.0,31.0,0.0
290208,-1.62691,-0.104491,2.377726,0.398262,-0.126716,-0.040122000000000005,0.0,9.0,72.0,164.0,31.0,0.0
290209,-1.6522439999999998,-0.087407,2.357773,0.42105,-0.025803,-0.047218,0.0,9.0,72.0,164.0,31.0,0.0
290210,-1.690505,-0.06494,2.334643,-0.148356,0.073701,0.134613,0.0,9.0,72.0,164.0,31.0,0.0
290211,-1.731691,-0.032029,2.304535,-0.82535,0.121892,-0.081993,0.0,9.0,72.0,164.0,31.0,0.0
290212,-1.752873,0.008723,2.276607,-1.047871,0.333033,-0.339649,0.0,9.0,72.0,164.0,31.0,0.0
290213,-1.78371,0.058816,2.2607150000000003,-0.523698,0.387227,-0.094365,0.0,9.0,72.0,164.0,31.0,0.0
290214,-1.817546,0.105227,2.250004,-0.25409,0.166175,0.104497,0.0,9.0,72.0,164.0,31.0,0.0
290215,-1.828739,0.130367,2.240538,-0.2078,-0.070167,0.029072000000000008,0.0,9.0,72.0,164.0,31.0,0.0
290216,-1.824533,0.143007,2.232602,-0.08882899999999999,-0.101224,0.012009,0.0,9.0,72.0,164.0,31.0,0.0
290217,-1.81107,0.14721099999999998,2.23725,-0.014735,-0.093768,-0.03474,0.0,9.0,72.0,164.0,31.0,0.0
290218,-1.797778,0.144319,2.252387,0.184001,-0.05930700000000001,0.064474,0.0,9.0,72.0,164.0,31.0,0.0
290219,-1.7864490000000002,0.13137,2.272825,0.400511,-0.066426,0.144291,0.0,9.0,72.0,164.0,31.0,0.0
290220,-1.7753869999999998,0.107885,2.292934,0.557917,-0.102606,0.18353,0.0,9.0,72.0,164.0,31.0,0.0
290221,-1.761716,0.07525599999999999,2.306458,0.632105,-0.126627,0.178757,0.0,9.0,72.0,164.0,31.0,0.0
290222,-1.74432,0.037112,2.310609,0.7133470000000001,-0.025549,0.111584,0.0,9.0,72.0,164.0,31.0,0.0
290223,-1.726487,-0.000439,2.306458,0.436156,-0.027112,0.000975,0.0,9.0,72.0,164.0,31.0,0.0
290224,-1.721977,-0.035083,2.3022080000000003,-0.157208,-0.052456,0.004518,0.0,9.0,72.0,164.0,31.0,0.0
290225,-1.723797,-0.062542,2.311778,-0.281199,-0.029817000000000007,0.025095,0.0,9.0,72.0,164.0,31.0,0.0
290226,-1.7025580000000002,-0.070616,2.3376650000000003,0.309686,0.072814,-0.230997,0.0,9.0,72.0,164.0,31.0,0.0
290227,-1.6687740000000002,-0.07333300000000001,2.361468,0.246124,0.172979,-0.177636,0.0,9.0,72.0,164.0,31.0,0.0
290228,-1.651628,-0.078988,2.372706,0.147292,0.199353,0.064375,0.0,9.0,72.0,164.0,31.0,0.0
290229,-1.646543,-0.080316,2.372808,-0.068115,0.393052,-0.301809,0.0,9.0,72.0,164.0,31.0,0.0
290230,-1.625824,-0.089689,2.366575,-0.040781,0.360352,-0.372787,0.0,9.0,72.0,164.0,31.0,0.0
290231,-1.614379,-0.10176,2.357246,-0.259146,0.254067,-0.189263,0.0,9.0,72.0,164.0,31.0,0.0
290232,-1.614299,-0.105519,2.35217,-1.220605,-0.5708529999999999,-0.081485,0.0,9.0,72.0,164.0,31.0,0.0
290233,-1.621248,-0.10623599999999997,2.358101,-0.974576,-0.851505,0.17666099999999998,0.0,9.0,72.0,164.0,31.0,0.0
290234,-1.638387,-0.100276,2.3685810000000003,-0.562096,-0.831995,0.311539,0.0,9.0,72.0,164.0,31.0,0.0
290235,-1.6558529999999998,-0.08861000000000001,2.382548,-0.03167,-0.037057,-0.098659,0.0,9.0,72.0,164.0,31.0,0.0
290236,-1.650282,-0.079533,2.404277,0.054247,0.14332899999999998,-0.184253,0.0,9.0,72.0,164.0,31.0,0.0
290237,-1.615883,-0.080466,2.426482,0.067034,0.315388,-0.229465,0.0,9.0,72.0,164.0,31.0,0.0
290238,-1.585616,-0.086563,2.444089,0.203751,0.126191,-0.266869,0.0,9.0,72.0,164.0,31.0,0.0
290239,-1.566553,-0.100604,2.463221,0.331064,-0.040162,-0.182973,0.0,9.0,72.0,164.0,31.0,0.0
290240,-1.563736,-0.119339,2.489228,0.285154,-0.29885,0.119314,0.0,9.0,72.0,164.0,31.0,0.0
290241,-1.568019,-0.13977699999999998,2.513215,0.170428,-0.305796,0.339863,0.0,9.0,72.0,164.0,31.0,0.0
290242,-1.562836,-0.15651700000000002,2.526991,0.227592,-0.15273499999999998,0.096058,0.0,9.0,72.0,164.0,31.0,0.0
290243,-1.556877,-0.169691,2.536775,0.334443,-0.25805,-0.096755,0.0,9.0,72.0,164.0,31.0,0.0
290244,-1.555084,-0.179809,2.549081,0.352906,-0.348657,-0.041793,0.0,9.0,72.0,164.0,31.0,0.0
290245,-1.555289,-0.187028,2.5632740000000003,0.343262,-0.382717,-0.005561,0.0,9.0,72.0,164.0,31.0,0.0
290246,-1.55322,-0.191638,2.574277,0.253616,-0.523124,0.030132,0.0,9.0,72.0,164.0,31.0,0.0
290247,-1.551923,-0.195864,2.580706,0.27081500000000003,-0.568821,0.015566,0.0,9.0,72.0,164.0,31.0,0.0
290248,-1.558105,-0.199552,2.59058,0.297926,-0.566348,-0.085263,0.0,9.0,72.0,164.0,31.0,0.0
290249,-1.57448,-0.199793,2.609547,-0.16509300000000002,-0.41627,0.245658,0.0,9.0,72.0,164.0,31.0,0.0
290250,-1.599282,-0.189237,2.6301330000000003,-0.363335,-0.244994,0.182674,0.0,9.0,72.0,164.0,31.0,0.0
290251,-1.615821,-0.167664,2.653705,-0.49803,-0.158579,0.181208,0.0,9.0,72.0,164.0,31.0,0.0
290252,-1.625036,-0.137438,2.680216,-1.265059,0.354511,-0.586645,0.0,9.0,72.0,164.0,31.0,0.0
290253,-1.652036,-0.106242,2.688945,-1.384901,0.631262,-0.5786020000000001,0.0,9.0,72.0,164.0,31.0,0.0
290254,-1.6966169999999998,-0.077829,2.675513,-0.6809890000000001,0.7177819999999999,0.160109,0.0,9.0,72.0,164.0,31.0,0.0
290255,-1.715885,-0.049896,2.658625,-0.283672,0.183156,-0.020193,0.0,9.0,72.0,164.0,31.0,0.0
290256,-1.7067290000000002,-0.015818000000000002,2.644026,-0.352846,-0.16044,-0.328154,0.0,9.0,72.0,164.0,31.0,0.0
290257,-1.706932,0.022884,2.640649,-0.268232,0.135126,0.14648699999999998,0.0,9.0,72.0,164.0,31.0,0.0
290258,-1.7396779999999998,0.05648400000000001,2.652855,-0.341612,0.26157800000000003,0.279012,0.0,9.0,72.0,164.0,31.0,0.0
290259,-1.758166,0.081415,2.669684,-0.272717,0.128521,0.018734,0.0,9.0,72.0,164.0,31.0,0.0
290260,-1.76029,0.092981,2.701332,0.004873,0.096372,-0.180619,0.0,9.0,72.0,164.0,31.0,0.0
290261,-1.759361,0.095134,2.744424,0.360073,0.099339,-0.314713,0.0,9.0,72.0,164.0,31.0,0.0
290262,-1.774174,0.094261,2.786616,0.600874,-0.036188,-0.118561,0.0,9.0,72.0,164.0,31.0,0.0
290263,-1.788405,0.08894400000000001,2.8208740000000003,0.650573,0.109579,0.016863,0.0,9.0,72.0,164.0,31.0,0.0
290264,-1.782739,0.076382,2.844071,0.5556979999999999,0.162367,-0.077984,0.0,9.0,72.0,164.0,31.0,0.0
290265,-1.7667990000000002,0.055560000000000005,2.856544,0.4143439999999999,0.053334000000000006,-0.08884199999999999,0.0,9.0,72.0,164.0,31.0,0.0
290266,-1.748646,0.027002,2.864675,0.288929,-0.007379000000000002,-0.048521,0.0,9.0,72.0,164.0,31.0,0.0
290267,-1.7445970000000002,-0.0034729999999999995,2.874531,0.015728,-0.072519,0.066471,0.0,9.0,72.0,164.0,31.0,0.0
290268,-1.752962,-0.013985,2.887458,-0.589023,-0.824516,-0.164051,0.0,9.0,72.0,164.0,31.0,0.0
290269,-1.764752,0.009123,2.9115,-0.591172,-0.801408,-0.17564200000000002,0.0,9.0,72.0,164.0,31.0,0.0
290270,-1.780177,0.036261,2.94976,0.298508,-0.369082,-0.022413,0.0,9.0,72.0,164.0,31.0,0.0
290271,-1.7922490000000002,0.04863,2.979082,0.090675,0.500423,0.37586,0.0,9.0,72.0,164.0,31.0,0.0
290272,-1.81091,0.053973,3.001239,-0.588599,0.702995,-0.365501,0.0,9.0,72.0,164.0,31.0,0.0
290273,-1.785233,0.050333,3.005337,-0.511652,0.353534,-0.598344,0.0,9.0,72.0,164.0,31.0,0.0
290274,-1.777133,0.026731,3.0205330000000004,0.014227000000000004,0.220941,-0.22485,0.0,9.0,72.0,164.0,31.0,0.0
290275,-1.786977,0.010603,3.038231,0.183616,0.049924,-0.31858200000000003,0.0,9.0,72.0,164.0,31.0,0.0
290276,-1.791049,0.001809,3.061085,0.200793,-0.161918,-0.292815,0.0,9.0,72.0,164.0,31.0,0.0
290277,-1.793253,-0.016613,3.10069,-0.023777,-0.224406,-0.292722,0.0,9.0,72.0,164.0,31.0,0.0
290278,-1.778959,-0.039921,-3.131519,-0.109824,-0.13083699999999998,-0.387588,0.0,9.0,72.0,164.0,31.0,0.0
290279,-1.7494599999999998,-0.061671,-3.075509,-0.029867,0.076674,-0.41323,0.0,9.0,72.0,164.0,31.0,0.0
290280,-1.7219220000000002,-0.083537,-3.01736,-0.195639,0.103053,-0.151535,0.0,9.0,72.0,164.0,31.0,0.0
290281,-1.7096220000000002,-0.102719,-2.972466,-0.281756,0.098557,-0.051895,0.0,9.0,72.0,164.0,31.0,0.0
290282,-1.700897,-0.121061,-2.936751,-0.030731,0.007056999999999998,-0.190322,0.0,9.0,72.0,164.0,31.0,0.0
290283,-1.6857779999999998,-0.137518,-2.8920220000000003,0.034319,-0.131286,-0.310148,0.0,9.0,72.0,164.0,31.0,0.0
290284,-1.66769,-0.15148599999999998,-2.837743,0.123674,-0.107649,-0.342078,0.0,9.0,72.0,164.0,31.0,0.0
290285,-1.64648,-0.16553199999999998,-2.787478,0.122767,-0.008375,-0.193626,0.0,9.0,72.0,164.0,31.0,0.0
290286,-1.624575,-0.180379,-2.744951,0.032257999999999995,-0.047795,-0.026635,0.0,9.0,72.0,164.0,31.0,0.0
290287,-1.605443,-0.196877,-2.702512,0.032012,0.006403,0.067211,0.0,9.0,72.0,164.0,31.0,0.0
290288,-1.583518,-0.21403200000000006,-2.660524,0.060256,0.024567,-0.009455,0.0,9.0,72.0,164.0,31.0,0.0
290289,-1.562681,-0.230701,-2.623463,0.08127000000000001,0.002358,-0.107655,0.0,9.0,72.0,164.0,31.0,0.0
290290,-1.551269,-0.245106,-2.589882,0.072138,-0.064803,0.00997,0.0,9.0,72.0,164.0,31.0,0.0
290291,-1.547863,-0.256499,-2.560804,-0.06486900000000001,-0.260944,0.185801,0.0,9.0,72.0,164.0,31.0,0.0
290292,-1.545741,-0.263221,-2.544875,-0.123789,-0.417053,0.14386400000000002,0.0,9.0,72.0,164.0,31.0,0.0
290293,-1.544958,-0.265006,-2.538766,-0.090583,-0.5706,0.028779,0.0,9.0,72.0,164.0,31.0,0.0
290294,-1.543639,-0.260807,-2.530361,-0.15153699999999998,-0.553438,-0.16498800000000002,0.0,9.0,72.0,164.0,31.0,0.0
290295,-1.542612,-0.253387,-2.513055,-0.42037,-0.4438,-0.141329,0.0,9.0,72.0,164.0,31.0,0.0
290296,-1.549239,-0.243722,-2.492387,-0.543321,-0.072523,-0.18126,0.0,9.0,72.0,164.0,31.0,0.0
290297,-1.584207,-0.229544,-2.473701,-0.072864,0.011388,-0.106305,0.0,9.0,72.0,164.0,31.0,0.0
290298,-1.630582,-0.211322,-2.457307,0.050554,-0.051366,-0.057291,0.0,9.0,72.0,164.0,31.0,0.0
290299,-1.6754099999999998,-0.186324,-2.437978,-0.03926,0.022653,-0.090225,0.0,9.0,72.0,164.0,31.0,0.0
290300,-1.711659,-0.156191,-2.4172130000000003,-0.283517,0.14614000000000002,-0.15478499999999998,0.0,9.0,72.0,164.0,31.0,0.0
290301,-1.7331310000000002,-0.127225,-2.399314,-0.250319,0.184565,-0.238409,0.0,9.0,72.0,164.0,31.0,0.0
290302,-1.74405,-0.104411,-2.383499,-0.047825,0.207698,-0.32167,0.0,9.0,72.0,164.0,31.0,0.0
290303,-1.74908,-0.083547,-2.367318,-0.043065,0.16714600000000002,-0.366708,0.0,9.0,72.0,164.0,31.0,0.0
290304,-1.756289,-0.059291,-2.348671,-0.083664,0.016244,-0.298836,0.0,9.0,72.0,164.0,31.0,0.0
290305,-1.768809,-0.027713,-2.3244740000000004,-0.098829,-0.170837,-0.216648,0.0,9.0,72.0,164.0,31.0,0.0
290306,-1.787767,0.005592,-2.290498,-0.128893,-0.281609,-0.155849,0.0,9.0,72.0,164.0,31.0,0.0
290307,-1.808163,0.032424,-2.244797,-0.160807,-0.284766,-0.16453800000000002,0.0,9.0,72.0,164.0,31.0,0.0
290308,-1.825842,0.049837,-2.185853,-0.011983,-0.053913,-0.159369,0.0,9.0,72.0,164.0,31.0,0.0
290309,-1.8419999999999999,0.05817000000000001,-2.119757,0.287769,0.260652,-0.091151,0.0,9.0,72.0,164.0,31.0,0.0
290310,-1.842576,0.063697,-2.061592,0.394605,0.298029,-0.138459,0.0,9.0,72.0,164.0,31.0,0.0
290311,-1.830551,0.066012,-2.009431,0.345229,0.291611,-0.317516,0.0,9.0,72.0,164.0,31.0,0.0
290312,-1.822769,0.060448,-1.963457,0.325867,0.139177,-0.209581,0.0,9.0,72.0,164.0,31.0,0.0
290313,-1.81826,0.045934,-1.92263,0.30606,0.028279,-0.120815,0.0,9.0,72.0,164.0,31.0,0.0
290314,-1.805183,0.021539,-1.887275,0.226359,-0.072869,-0.136213,0.0,9.0,72.0,164.0,31.0,0.0
290315,-1.7875419999999995,-0.006756,-1.856645,-0.15303699999999998,-0.132671,-0.098484,0.0,9.0,72.0,164.0,31.0,0.0
290316,-1.779391,-0.030937,-1.824689,-0.6205729999999999,-0.059832,0.045168,0.0,9.0,72.0,164.0,31.0,0.0
290317,-1.778212,-0.034377,-1.788558,-0.406908,-0.223869,0.065036,0.0,9.0,72.0,164.0,31.0,0.0
290318,-1.783807,-0.018223,-1.752489,-0.009863,-0.5078,-0.016283000000000002,0.0,9.0,72.0,164.0,31.0,0.0
290319,-1.7897490000000005,-0.003105,-1.716776,0.116126,-0.078331,-0.145336,0.0,9.0,72.0,164.0,31.0,0.0
290320,-1.792396,0.000575,-1.675234,-0.384555,0.099879,-0.073685,0.0,9.0,72.0,164.0,31.0,0.0
290321,-1.789263,0.002195,-1.635893,-0.6132890000000001,0.286039,-0.286097,0.0,9.0,72.0,164.0,31.0,0.0
290322,-1.7661189999999998,0.001585,-1.6016290000000002,0.10512,0.388106,-0.280003,0.0,9.0,72.0,164.0,31.0,0.0
290323,-1.760993,-0.008687,-1.576344,0.106066,0.377833,-0.274966,0.0,9.0,72.0,164.0,31.0,0.0
290324,-1.759498,-0.025551,-1.554675,0.305375,0.426432,-0.273901,0.0,9.0,72.0,164.0,31.0,0.0
290325,-1.7561080000000002,-0.050955,-1.52559,-0.035816,0.038972,-0.23696,0.0,9.0,72.0,164.0,31.0,0.0
290326,-1.747704,-0.083855,-1.47994,-0.13698,-0.053773,-0.262067,0.0,9.0,72.0,164.0,31.0,0.0
290327,-1.73243,-0.112905,-1.424875,-0.216852,-0.184413,-0.355111,0.0,9.0,72.0,164.0,31.0,0.0
290328,-1.714245,-0.135215,-1.371386,-0.038799,-0.13941199999999998,-0.109501,0.0,9.0,72.0,164.0,31.0,0.0
290329,-1.703229,-0.14918199999999998,-1.329354,0.053773,-0.139458,-0.088784,0.0,9.0,72.0,164.0,31.0,0.0
290330,-1.694835,-0.153915,-1.304312,0.104357,-0.112155,-0.118946,0.0,9.0,72.0,164.0,31.0,0.0
290331,-1.681918,-0.15889,-1.282122,0.086393,0.044933,-0.265059,0.0,9.0,72.0,164.0,31.0,0.0
290332,-1.666661,-0.164937,-1.248805,0.033192,-0.049765,-0.30492800000000003,0.0,9.0,72.0,164.0,31.0,0.0
290333,-1.645403,-0.172036,-1.204457,0.086799,-0.15525899999999998,-0.218563,0.0,9.0,72.0,164.0,31.0,0.0
290334,-1.619138,-0.181565,-1.159167,0.07585,-0.206753,-0.094892,0.0,9.0,72.0,164.0,31.0,0.0
290335,-1.594688,-0.192019,-1.117782,0.019602,-0.159011,-0.03433,0.0,9.0,72.0,164.0,31.0,0.0
290336,-1.571656,-0.199961,-1.078565,0.008479,-0.010658,-0.064746,0.0,9.0,72.0,164.0,31.0,0.0
290337,-1.550714,-0.205708,-1.043864,0.056059000000000005,0.041086,-0.004359,0.0,9.0,72.0,164.0,31.0,0.0
290338,-1.537982,-0.211103,-1.015793,0.016314,0.110149,0.070792,0.0,9.0,72.0,164.0,31.0,0.0
290339,-1.5421049999999998,-0.216345,-0.988616,0.035177999999999994,0.09819,0.120121,0.0,9.0,72.0,164.0,31.0,0.0
290340,-1.5508620000000002,-0.222561,-0.959066,-0.08118600000000001,-0.088175,0.073152,0.0,9.0,72.0,164.0,31.0,0.0
290341,-1.558183,-0.228025,-0.934334,-0.126877,-0.204463,0.013859,0.0,9.0,72.0,164.0,31.0,0.0
290342,-1.564857,-0.227644,-0.919758,-0.300192,-0.238454,-0.011395,0.0,9.0,72.0,164.0,31.0,0.0
290343,-1.568976,-0.220764,-0.919798,-0.291064,-0.205319,-0.068506,0.0,9.0,72.0,164.0,31.0,0.0
290344,-1.576335,-0.207532,-0.929144,-0.156643,-0.056265,-0.164401,0.0,9.0,72.0,164.0,31.0,0.0
290345,-1.594005,-0.189735,-0.937467,-0.114028,0.044433,-0.093438,0.0,9.0,72.0,164.0,31.0,0.0
290346,-1.624441,-0.17036400000000002,-0.94477,-0.104068,0.048492,-0.009446,0.0,9.0,72.0,164.0,31.0,0.0
290347,-1.664389,-0.14790599999999998,-0.956461,-0.022656,-0.007964,0.013934,0.0,9.0,72.0,164.0,31.0,0.0
290348,-1.704192,-0.117044,-0.973092,-0.089862,-0.07800399999999999,-0.029917000000000006,0.0,9.0,72.0,164.0,31.0,0.0
290349,-1.738895,-0.07921399999999999,-0.986829,-0.242385,0.017808,-0.03635,0.0,9.0,72.0,164.0,31.0,0.0
290350,-1.759325,-0.042014,-0.988196,-0.247553,0.204031,-0.17766400000000002,0.0,9.0,72.0,164.0,31.0,0.0
290351,-1.766745,-0.004407,-0.979157,-0.130849,0.381243,-0.310783,0.0,9.0,72.0,164.0,31.0,0.0
290352,-1.774798,0.030307,-0.9677,0.08720399999999999,0.263456,-0.188625,0.0,9.0,72.0,164.0,31.0,0.0
290353,-1.7816169999999998,0.058936,-0.957149,0.16426300000000002,0.136218,-0.180409,0.0,9.0,72.0,164.0,31.0,0.0
290354,-1.786038,0.081879,-0.951237,0.175669,0.058670000000000014,-0.185507,0.0,9.0,72.0,164.0,31.0,0.0
290355,-1.789389,0.098118,-0.94654,0.186663,0.053878,-0.131552,0.0,9.0,72.0,164.0,31.0,0.0
290356,-1.7898,0.109089,-0.940933,0.225948,0.08156000000000001,-0.064627,0.0,9.0,72.0,164.0,31.0,0.0
290357,-1.788607,0.115348,-0.931604,0.281795,0.081264,-0.011606,0.0,9.0,72.0,164.0,31.0,0.0
290358,-1.787694,0.11415,-0.91835,0.371007,0.05717000000000001,0.052925,0.0,9.0,72.0,164.0,31.0,0.0
290359,-1.784405,0.10561199999999997,-0.906776,0.405396,-0.026771,0.064052,0.0,9.0,72.0,164.0,31.0,0.0
290360,-1.778776,0.091194,-0.90232,0.445169,-0.070203,0.02834,0.0,9.0,72.0,164.0,31.0,0.0
290361,-1.774948,0.07011,-0.904324,0.420467,-0.054444000000000006,-0.052792,0.0,9.0,72.0,164.0,31.0,0.0
290362,-1.772557,0.043058,-0.906218,0.371269,-0.050675,-0.111188,0.0,9.0,72.0,164.0,31.0,0.0
290363,-1.7696610000000002,0.013013999999999998,-0.902512,0.298665,-0.073,-0.119108,0.0,9.0,72.0,164.0,31.0,0.0
290364,-1.76482,-0.015711000000000003,-0.893,-0.09029,0.011007,-0.07846399999999999,0.0,9.0,72.0,164.0,31.0,0.0
290365,-1.7558349999999998,-0.035688,-0.880289,-0.089102,-0.008962000000000001,-0.069547,0.0,9.0,72.0,164.0,31.0,0.0
290366,-1.743284,-0.04214,-0.868505,0.07409,0.055574,0.027541000000000003,0.0,9.0,72.0,164.0,31.0,0.0
290367,-1.727696,-0.040472,-0.8640459999999999,0.320684,0.048909,0.047836,0.0,9.0,72.0,164.0,31.0,0.0
290368,-1.709879,-0.039884,-0.8660459999999999,0.388763,-0.009676,0.050869,0.0,9.0,72.0,164.0,31.0,0.0
290369,-1.693715,-0.043579,-0.865568,0.363071,-0.100236,0.019446,0.0,9.0,72.0,164.0,31.0,0.0
290370,-1.682783,-0.049598,-0.860151,0.255536,-0.083819,0.05777300000000001,0.0,9.0,72.0,164.0,31.0,0.0
290371,-1.6809470000000002,-0.055093,-0.851772,-0.082773,-0.064937,0.270962,0.0,9.0,72.0,164.0,31.0,0.0
290372,-1.67433,-0.056566,-0.8401629999999999,-0.538601,0.071089,0.140897,0.0,9.0,72.0,164.0,31.0,0.0
290373,-1.638988,-0.05603,-0.8238530000000001,-0.33741,0.485869,-0.295723,0.0,9.0,72.0,164.0,31.0,0.0
290374,-1.615556,-0.062041,-0.817585,-0.253817,0.774883,-0.200038,0.0,9.0,72.0,164.0,31.0,0.0
290375,-1.619848,-0.071238,-0.824367,0.127527,0.390798,-0.201525,0.0,9.0,72.0,164.0,31.0,0.0
290376,-1.634644,-0.078114,-0.828418,-0.943429,-0.050722,0.0808,0.0,9.0,72.0,164.0,31.0,0.0
290377,-1.628627,-0.088328,-0.8256959999999999,-1.069934,-0.282594,0.087615,0.0,9.0,72.0,164.0,31.0,0.0
290378,-1.6138629999999998,-0.085079,-0.8252079999999999,-0.244189,-0.543671,-0.047902,0.0,9.0,72.0,164.0,31.0,0.0
290379,-1.619205,-0.082501,-0.819002,-0.102829,-0.311045,-0.08653999999999999,0.0,9.0,72.0,164.0,31.0,0.0
290380,-1.647443,-0.07812899999999999,-0.808017,-0.365117,-0.159882,0.205629,0.0,9.0,72.0,164.0,31.0,0.0
290381,-1.634865,-0.078413,-0.791671,0.209091,0.332769,-0.335968,0.0,9.0,72.0,164.0,31.0,0.0
290382,-1.610124,-0.078176,-0.777573,0.510372,0.28835900000000003,-0.3112,0.0,9.0,72.0,164.0,31.0,0.0
290383,-1.5986360000000002,-0.087719,-0.7688050000000001,0.497103,0.244623,-0.044376,0.0,9.0,72.0,164.0,31.0,0.0
290384,-1.59992,-0.098781,-0.763795,-0.126171,-0.134021,-0.17466900000000002,0.0,9.0,72.0,164.0,31.0,0.0
290385,-1.591157,-0.10854,-0.750441,0.010227,-0.311177,-0.098883,0.0,9.0,72.0,164.0,31.0,0.0
290386,-1.604636,-0.111253,-0.7451979999999999,0.21736100000000005,-0.573136,0.446463,0.0,9.0,72.0,164.0,31.0,0.0
290387,-1.62319,-0.111853,-0.763316,0.310112,-0.07974500000000001,0.16034500000000002,0.0,9.0,72.0,164.0,31.0,0.0
290388,-1.624348,-0.118443,-0.775366,0.291198,0.048323000000000005,-0.009526,0.0,9.0,72.0,164.0,31.0,0.0
290389,-1.626829,-0.12199000000000003,-0.777115,0.31003200000000003,-0.185896,-0.044356,0.0,9.0,72.0,164.0,31.0,0.0
290390,-1.630018,-0.121096,-0.772913,0.414389,-0.327618,-0.182151,0.0,9.0,72.0,164.0,31.0,0.0
290391,-1.634722,-0.112963,-0.7723180000000001,0.411845,-0.221793,-0.206022,0.0,9.0,72.0,164.0,31.0,0.0
290392,-1.645884,-0.099058,-0.781251,0.284383,-0.134922,0.031934,0.0,9.0,72.0,164.0,31.0,0.0
290393,-1.665053,-0.082384,-0.801873,-0.08253200000000001,-0.13656600000000002,0.213744,0.0,9.0,72.0,164.0,31.0,0.0
290394,-1.689377,-0.062253,-0.8342069999999999,-0.608108,-0.06694299999999999,0.181565,0.0,9.0,72.0,164.0,31.0,0.0
290395,-1.709129,-0.034242,-0.8630709999999999,-0.888653,0.184835,-0.254814,0.0,9.0,72.0,164.0,31.0,0.0
290396,-1.736562,0.003173,-0.879224,-0.918783,0.418822,-0.212277,0.0,9.0,72.0,164.0,31.0,0.0
290397,-1.77965,0.049533,-0.882774,-0.638343,0.542097,-0.021078,0.0,9.0,72.0,164.0,31.0,0.0
290398,-1.815257,0.093915,-0.8795959999999999,-0.113181,0.28788400000000003,0.129993,0.0,9.0,72.0,164.0,31.0,0.0
290399,-1.828449,0.130365,-0.879468,0.044986,0.002402,0.060495000000000014,0.0,9.0,72.0,164.0,31.0,0.0
290400,-1.827492,0.156905,-0.879624,0.012318,-0.036411,-0.06364500000000001,0.0,9.0,72.0,164.0,31.0,0.0
290401,-1.818475,0.172112,-0.8751760000000001,-0.034521,0.047973,-0.082807,0.0,9.0,72.0,164.0,31.0,0.0
290402,-1.805053,0.17924500000000002,-0.8662059999999999,0.03244,0.015338,-0.069265,0.0,9.0,72.0,164.0,31.0,0.0
290403,-1.7897439999999998,0.178214,-0.8536790000000001,0.239021,0.021678,-0.0522,0.0,9.0,72.0,164.0,31.0,0.0
290404,-1.778098,0.169206,-0.840667,0.478778,0.062320000000000014,0.047045,0.0,9.0,72.0,164.0,31.0,0.0
290405,-1.770412,0.154809,-0.828556,0.648494,0.043962,0.122288,0.0,9.0,72.0,164.0,31.0,0.0
290406,-1.761607,0.13380799999999998,-0.821284,0.7614390000000001,0.064714,0.088898,0.0,9.0,72.0,164.0,31.0,0.0
290407,-1.750779,0.101981,-0.8182590000000001,0.754038,0.073362,0.054998000000000005,0.0,9.0,72.0,164.0,31.0,0.0
290408,-1.7391720000000002,0.058206,-0.8138810000000001,0.665193,0.043861,0.040026,0.0,9.0,72.0,164.0,31.0,0.0
290409,-1.729648,0.009179,-0.802312,-0.371988,0.21093,-0.053684,0.0,9.0,72.0,164.0,31.0,0.0
290410,-1.715891,-0.030315,-0.780029,-0.370318,0.171441,-0.040026,0.0,9.0,72.0,164.0,31.0,0.0
290411,-1.693474,-0.044549,-0.75493,-0.07578700000000001,0.175071,0.026221,0.0,9.0,72.0,164.0,31.0,0.0
290412,-1.678562,-0.046849,-0.7435470000000001,0.145777,0.096448,0.186568,0.0,9.0,72.0,164.0,31.0,0.0
290413,-1.66753,-0.050628,-0.7545569999999999,-0.096674,-0.022683,0.106804,0.0,9.0,72.0,164.0,31.0,0.0
290414,-1.645659,-0.05369,-0.776745,-0.218787,0.009141,0.015663,0.0,9.0,72.0,164.0,31.0,0.0
290415,-1.6135959999999998,-0.057053,-0.792087,-0.272708,0.343674,-0.033515,0.0,9.0,72.0,164.0,31.0,0.0
290416,-1.589736,-0.064228,-0.798031,-0.249107,0.529612,-0.071146,0.0,9.0,72.0,164.0,31.0,0.0
290417,-1.586307,-0.07219,-0.7942170000000001,-0.31442600000000004,0.129212,-0.055981,0.0,9.0,72.0,164.0,31.0,0.0
290418,-1.585554,-0.078095,-0.7824,-0.579308,-0.281995,-0.039904,0.0,9.0,72.0,164.0,31.0,0.0
290419,-1.591868,-0.082311,-0.771312,-0.73732,-0.341358,-0.193362,0.0,9.0,72.0,164.0,31.0,0.0
290420,-1.604049,-0.079569,-0.768206,-0.574129,-0.404253,-0.027922,0.0,9.0,72.0,164.0,31.0,0.0
290421,-1.605666,-0.07309700000000001,-0.769588,-0.3711,-0.053196,-0.034403,0.0,9.0,72.0,164.0,31.0,0.0
290422,-1.605923,-0.070388,-0.7643909999999999,-0.055866,0.16906600000000002,-0.046904,0.0,9.0,72.0,164.0,31.0,0.0
290423,-1.6021219999999998,-0.07253,-0.744667,0.121856,0.19116,-0.096301,0.0,9.0,72.0,164.0,31.0,0.0
290424,-1.589528,-0.078731,-0.7290000000000001,0.335417,0.12500899999999998,-0.148479,0.0,9.0,72.0,164.0,31.0,0.0
290425,-1.583105,-0.086643,-0.723151,0.380853,0.039106,-0.111429,0.0,9.0,72.0,164.0,31.0,0.0
290426,-1.5811,-0.096555,-0.721286,0.282145,-0.161056,-0.043062,0.0,9.0,72.0,164.0,31.0,0.0
290427,-1.57536,-0.10366,-0.719105,0.180556,-0.182561,-0.018227,0.0,9.0,72.0,164.0,31.0,0.0
290428,-1.5744129999999998,-0.107053,-0.72239,0.193569,-0.120963,0.08505800000000001,0.0,9.0,72.0,164.0,31.0,0.0
290429,-1.5846360000000002,-0.109166,-0.729342,0.250305,-0.102907,0.148521,0.0,9.0,72.0,164.0,31.0,0.0
290430,-1.595821,-0.113601,-0.7353649999999999,0.350076,-0.041534,0.064205,0.0,9.0,72.0,164.0,31.0,0.0
290431,-1.60469,-0.115424,-0.744202,0.306746,-0.100153,-0.019257,0.0,9.0,72.0,164.0,31.0,0.0
290432,-1.611457,-0.114056,-0.756603,0.281185,-0.12801500000000002,-0.08668,0.0,9.0,72.0,164.0,31.0,0.0
290433,-1.615783,-0.110951,-0.772126,0.36332,-0.128347,-0.117998,0.0,9.0,72.0,164.0,31.0,0.0
290434,-1.619178,-0.105935,-0.7912,0.340541,-0.145746,-0.139491,0.0,9.0,72.0,164.0,31.0,0.0
290435,-1.623999,-0.098808,-0.813538,0.279898,-0.185516,-0.12901400000000002,0.0,9.0,72.0,164.0,31.0,0.0
290436,-1.633859,-0.083487,-0.838492,-0.325985,-0.35817,0.088155,0.0,9.0,72.0,164.0,31.0,0.0
290437,-1.653397,-0.054935000000000005,-0.8636280000000001,-0.416178,-0.278479,0.109697,0.0,9.0,72.0,164.0,31.0,0.0
290438,-1.6835380000000002,-0.010405,-0.8847010000000001,-0.571095,-0.170317,0.108604,0.0,9.0,72.0,164.0,31.0,0.0
290439,-1.721109,0.041045,-0.894281,-0.8207899999999999,0.33684000000000003,0.017662999999999998,0.0,9.0,72.0,164.0,31.0,0.0
290440,-1.757744,0.091527,-0.8905430000000001,-0.614047,0.507521,-0.062491,0.0,9.0,72.0,164.0,31.0,0.0
290441,-1.7817599999999998,0.130898,-0.8888020000000001,-0.39305,0.639725,-0.09976,0.0,9.0,72.0,164.0,31.0,0.0
290442,-1.7895990000000002,0.161682,-0.8942709999999999,-0.043177,0.128737,0.005148,0.0,9.0,72.0,164.0,31.0,0.0
290443,-1.790118,0.185492,-0.900058,-0.062088,0.039457,0.003727,0.0,9.0,72.0,164.0,31.0,0.0
290444,-1.784916,0.202173,-0.902239,-0.060191,0.000359,-0.021206,0.0,9.0,72.0,164.0,31.0,0.0
290445,-1.7775169999999998,0.208528,-0.901208,-0.0053950000000000005,-0.086621,0.039951,0.0,9.0,72.0,164.0,31.0,0.0
290446,-1.770672,0.204328,-0.896531,0.054875,-0.063372,0.057218,0.0,9.0,72.0,164.0,31.0,0.0
290447,-1.76415,0.191181,-0.890911,0.38248,-0.030517,0.158367,0.0,9.0,72.0,164.0,31.0,0.0
290448,-1.756212,0.170291,-0.886675,0.518634,0.092793,0.179092,0.0,9.0,72.0,164.0,31.0,0.0
290449,-1.744694,0.14455,-0.88526,0.5431,0.119435,0.142764,0.0,9.0,72.0,164.0,31.0,0.0
290450,-1.7347560000000002,0.114184,-0.885805,0.619313,0.078337,-0.019294,0.0,9.0,72.0,164.0,31.0,0.0
290451,-1.727534,0.07535599999999999,-0.8833629999999999,0.565692,0.073866,-0.067837,0.0,9.0,72.0,164.0,31.0,0.0
290452,-1.7176919999999998,0.030978,-0.8738870000000001,0.4532060000000001,0.064421,-0.076197,0.0,9.0,72.0,164.0,31.0,0.0
290453,-1.7027330000000005,-0.010442,-0.856057,0.044787,0.101894,-0.17619300000000002,0.0,9.0,72.0,164.0,31.0,0.0
290454,-1.685229,-0.039535,-0.83386,-0.037159,0.196621,-0.170824,0.0,9.0,72.0,164.0,31.0,0.0
290455,-1.674871,-0.048981,-0.817447,0.13336900000000002,0.14986,-0.02347,0.0,9.0,72.0,164.0,31.0,0.0
290456,-1.6678580000000005,-0.053523,-0.817876,0.050162,-0.219926,0.158403,0.0,9.0,72.0,164.0,31.0,0.0
290457,-1.646986,-0.057364,-0.829457,-0.31313,-0.53745,0.247893,0.0,9.0,72.0,164.0,31.0,0.0
290458,-1.607861,-0.056502,-0.8372299999999999,-0.31287,-0.058944,0.151144,0.0,9.0,72.0,164.0,31.0,0.0
290459,-1.562839,-0.053603,-0.84455,-0.271818,0.32832,0.084102,0.0,9.0,72.0,164.0,31.0,0.0
290460,-1.542616,-0.052521000000000005,-0.85278,-0.239365,0.6769189999999999,-0.016724,0.0,9.0,72.0,164.0,31.0,0.0
290461,-1.5496,-0.054680999999999993,-0.853397,-0.433598,0.46497,-0.208741,0.0,9.0,72.0,164.0,31.0,0.0
290462,-1.561014,-0.05837000000000001,-0.8516360000000001,-0.757987,0.08254700000000001,-0.290696,0.0,9.0,72.0,164.0,31.0,0.0
290463,-1.580649,-0.059444,-0.851081,-0.541345,-0.376395,-0.015893,0.0,9.0,72.0,164.0,31.0,0.0
290464,-1.607847,-0.05768400000000001,-0.84406,-0.597299,-0.607228,0.075248,0.0,9.0,72.0,164.0,31.0,0.0
290465,-1.620408,-0.052893,-0.833292,-0.399351,-0.4315,0.166756,0.0,9.0,72.0,164.0,31.0,0.0
290466,-1.612442,-0.046629,-0.8208340000000001,-0.022792,0.099628,-0.133934,0.0,9.0,72.0,164.0,31.0,0.0
290467,-1.594971,-0.047494,-0.802793,0.100117,0.314188,-0.218877,0.0,9.0,72.0,164.0,31.0,0.0
290468,-1.580207,-0.050703,-0.788621,0.228549,0.167305,-0.153258,0.0,9.0,72.0,164.0,31.0,0.0
290469,-1.563069,-0.059069,-0.77479,0.397111,0.01201,-0.292991,0.0,9.0,72.0,164.0,31.0,0.0
290470,-1.550761,-0.070498,-0.7571479999999999,0.444098,-0.048344,-0.189214,0.0,9.0,72.0,164.0,31.0,0.0
290471,-1.56636,-0.078615,-0.745582,0.445744,-0.151456,0.0073370000000000015,0.0,9.0,72.0,164.0,31.0,0.0
290472,-1.5904120000000002,-0.080343,-0.753025,0.12871300000000002,-0.032298,0.34962,0.0,9.0,72.0,164.0,31.0,0.0
290473,-1.579045,-0.08406799999999999,-0.760372,0.128565,-0.036011,0.360952,0.0,9.0,72.0,164.0,31.0,0.0
290474,-1.570972,-0.085625,-0.7590100000000001,0.420719,-0.210261,-0.107078,0.0,9.0,72.0,164.0,31.0,0.0
290475,-1.580589,-0.084162,-0.756725,0.392612,-0.158098,-0.112312,0.0,9.0,72.0,164.0,31.0,0.0
290476,-1.59278,-0.078374,-0.757057,0.352407,-0.091966,-0.120715,0.0,9.0,72.0,164.0,31.0,0.0
290477,-1.602858,-0.072063,-0.765253,0.308298,-0.020502,-0.133413,0.0,9.0,72.0,164.0,31.0,0.0
290478,-1.611825,-0.06759,-0.779604,0.312372,-0.10329,-0.11209,0.0,9.0,72.0,164.0,31.0,0.0
290479,-1.62361,-0.06375,-0.793133,0.227996,-0.202851,-0.083504,0.0,9.0,72.0,164.0,31.0,0.0
290480,-1.6437560000000002,-0.052919000000000015,-0.806133,0.054831,-0.31675,-0.015999,0.0,9.0,72.0,164.0,31.0,0.0
290481,-1.669121,-0.026249,-0.8213870000000001,-0.7299,-0.36316,0.23115300000000005,0.0,9.0,72.0,164.0,31.0,0.0
290482,-1.70193,0.016638,-0.829392,-0.753775,-0.118526,0.111769,0.0,9.0,72.0,164.0,31.0,0.0
290483,-1.7481400000000002,0.067211,-0.8234809999999999,-0.727254,0.156958,-0.116048,0.0,9.0,72.0,164.0,31.0,0.0
290484,-1.7840619999999998,0.112285,-0.808542,-0.720518,0.582233,-0.198614,0.0,9.0,72.0,164.0,31.0,0.0
290485,-1.805045,0.151309,-0.795423,-0.467376,0.572608,-0.127635,0.0,9.0,72.0,164.0,31.0,0.0
290486,-1.810971,0.182802,-0.790844,-0.012474,0.332039,0.137676,0.0,9.0,72.0,164.0,31.0,0.0
290487,-1.804667,0.205239,-0.789927,-0.017195,0.148534,0.074102,0.0,9.0,72.0,164.0,31.0,0.0
290488,-1.79699,0.217962,-0.789863,-0.068256,-0.057289,0.010791,0.0,9.0,72.0,164.0,31.0,0.0
290489,-1.789512,0.220274,-0.786938,0.007128,-0.08515299999999999,0.007798,0.0,9.0,72.0,164.0,31.0,0.0
290490,-1.783667,0.210865,-0.780319,0.101473,-0.01068,-0.011775,0.0,9.0,72.0,164.0,31.0,0.0
290491,-1.778231,0.194998,-0.772644,0.275038,0.091943,0.033977999999999994,0.0,9.0,72.0,164.0,31.0,0.0
290492,-1.7687669999999998,0.175698,-0.767173,0.553924,0.312231,0.071518,0.0,9.0,72.0,164.0,31.0,0.0
290493,-1.755062,0.154595,-0.765101,0.692024,0.332615,-0.0052710000000000005,0.0,9.0,72.0,164.0,31.0,0.0
290494,-1.742169,0.128861,-0.7674310000000001,0.726545,0.260448,-0.028281,0.0,9.0,72.0,164.0,31.0,0.0
290495,-1.728352,0.093992,-0.774623,0.729215,0.153455,-0.058279,0.0,9.0,72.0,164.0,31.0,0.0
290496,-1.707801,0.051298,-0.787028,0.655926,0.099921,-0.05029,0.0,9.0,72.0,164.0,31.0,0.0
290497,-1.6821849999999998,0.005167000000000001,-0.80099,0.321172,0.050638,-0.062023,0.0,9.0,72.0,164.0,31.0,0.0
290498,-1.6648349999999998,-0.031968,-0.8119850000000001,-0.245812,0.10619,-0.111063,0.0,9.0,72.0,164.0,31.0,0.0
290499,-1.667124,-0.045128,-0.8146,-0.258726,0.041664,-0.062358,0.0,9.0,72.0,164.0,31.0,0.0
290500,-1.67156,-0.043546,-0.814992,-0.140547,-0.217605,0.12070999999999997,0.0,9.0,72.0,164.0,31.0,0.0
290501,-1.652225,-0.043466000000000005,-0.8172,-0.234139,-0.294764,0.248069,0.0,9.0,72.0,164.0,31.0,0.0
290502,-1.603839,-0.048502,-0.8193879999999999,-0.21218,-0.090017,-0.011239,0.0,9.0,72.0,164.0,31.0,0.0
290503,-1.566785,-0.059787,-0.8264799999999999,-0.631351,0.375185,-0.106454,0.0,9.0,72.0,164.0,31.0,0.0
290504,-1.571037,-0.064584,-0.841515,-0.74216,0.50115,-0.287822,0.0,9.0,72.0,164.0,31.0,0.0
290505,-1.586659,-0.06045900000000001,-0.851967,-0.950402,-0.139265,0.16760799999999998,0.0,9.0,72.0,164.0,31.0,0.0
290506,-1.598042,-0.051511,-0.857449,-0.355344,-0.725255,0.189805,0.0,9.0,72.0,164.0,31.0,0.0
290507,-1.623145,-0.044224,-0.860592,-0.63642,-0.220601,-0.445049,0.0,9.0,72.0,164.0,31.0,0.0
290508,-1.636471,-0.036324,-0.8374159999999999,-0.27942,-0.116989,0.093307,0.0,9.0,72.0,164.0,31.0,0.0
290509,-1.61589,-0.034044,-0.8030149999999999,0.07607699999999999,0.172628,-0.169441,0.0,9.0,72.0,164.0,31.0,0.0
290510,-1.598451,-0.035259,-0.7793869999999999,0.156152,0.17332,-0.068344,0.0,9.0,72.0,164.0,31.0,0.0
290511,-1.584495,-0.039006,-0.771458,0.120901,-0.026804,-0.23112600000000005,0.0,9.0,72.0,164.0,31.0,0.0
290512,-1.5717,-0.046544,-0.7681640000000001,0.26634800000000003,-0.180042,-0.246234,0.0,9.0,72.0,164.0,31.0,0.0
290513,-1.567585,-0.058812,-0.755078,0.278484,-0.211641,-0.152586,0.0,9.0,72.0,164.0,31.0,0.0
290514,-1.580595,-0.069397,-0.741949,0.007927,-0.058081,0.420492,0.0,9.0,72.0,164.0,31.0,0.0
290515,-1.582541,-0.078783,-0.735226,0.186899,0.141651,0.380992,0.0,9.0,72.0,164.0,31.0,0.0
290516,-1.578343,-0.085746,-0.731789,0.4631,0.13303299999999998,-0.125423,0.0,9.0,72.0,164.0,31.0,0.0
290517,-1.58437,-0.09154,-0.7337090000000001,0.334289,-0.147,-0.138593,0.0,9.0,72.0,164.0,31.0,0.0
290518,-1.594708,-0.093217,-0.739654,0.310809,-0.199329,-0.105134,0.0,9.0,72.0,164.0,31.0,0.0
290519,-1.608064,-0.092392,-0.746169,0.338936,-0.206412,-0.044164,0.0,9.0,72.0,164.0,31.0,0.0
290520,-1.627069,-0.091389,-0.756016,0.294304,-0.062911,0.14035799999999998,0.0,9.0,72.0,164.0,31.0,0.0
290521,-1.642888,-0.089724,-0.769509,0.184512,-0.016163999999999998,0.102364,0.0,9.0,72.0,164.0,31.0,0.0
290522,-1.648508,-0.087214,-0.785391,0.086139,-0.08350199999999999,-0.006384,0.0,9.0,72.0,164.0,31.0,0.0
290523,-1.6575970000000002,-0.081037,-0.803133,0.161199,-0.23198,0.024143,0.0,9.0,72.0,164.0,31.0,0.0
290524,-1.677327,-0.067505,-0.8203,0.171957,-0.272395,0.043877,0.0,9.0,72.0,164.0,31.0,0.0
290525,-1.700489,-0.04342,-0.8418100000000001,-0.477269,-0.237483,0.033438,0.0,9.0,72.0,164.0,31.0,0.0
290526,-1.7310990000000002,-0.01334,-0.8642719999999999,-0.617213,0.091229,-0.100397,0.0,9.0,72.0,164.0,31.0,0.0
290527,-1.7768400000000002,0.019159,-0.874065,-0.650035,0.32917,-0.107778,0.0,9.0,72.0,164.0,31.0,0.0
290528,-1.816426,0.053531,-0.872359,-0.923155,0.6464310000000001,-0.08591,0.0,9.0,72.0,164.0,31.0,0.0
290529,-1.84095,0.087439,-0.866917,-0.5310819999999999,0.357286,0.005124,0.0,9.0,72.0,164.0,31.0,0.0
290530,-1.85617,0.12117,-0.8640530000000001,-0.035008,0.050943,0.142076,0.0,9.0,72.0,164.0,31.0,0.0
290531,-1.853697,0.147966,-0.8604219999999999,0.104394,-0.07385599999999999,0.082294,0.0,9.0,72.0,164.0,31.0,0.0
290532,-1.839988,0.163166,-0.852191,0.203018,-0.083788,-0.057675,0.0,9.0,72.0,164.0,31.0,0.0
290533,-1.826051,0.16614,-0.845133,0.208781,-0.106748,-0.116199,0.0,9.0,72.0,164.0,31.0,0.0
290534,-1.817289,0.15788,-0.8376049999999999,0.290252,-0.098115,-0.117584,0.0,9.0,72.0,164.0,31.0,0.0
290535,-1.809657,0.137123,-0.82857,0.439039,-0.000376,-0.07349800000000001,0.0,9.0,72.0,164.0,31.0,0.0
290536,-1.79866,0.108335,-0.822213,0.5747369999999999,0.100326,0.052667,0.0,9.0,72.0,164.0,31.0,0.0
290537,-1.782307,0.08058,-0.818523,0.621428,0.107409,0.189978,0.0,9.0,72.0,164.0,31.0,0.0
290538,-1.758044,0.054445000000000014,-0.8157770000000001,0.6005149999999999,0.038442,0.162663,0.0,9.0,72.0,164.0,31.0,0.0
290539,-1.7329849999999998,0.022268,-0.811966,0.439899,-0.037502,-0.008269,0.0,9.0,72.0,164.0,31.0,0.0
290540,-1.720136,-0.015655000000000002,-0.800366,0.12033,-0.015304,-0.14015999999999998,0.0,9.0,72.0,164.0,31.0,0.0
290541,-1.718821,-0.042193,-0.777031,-0.053742,0.025203,-0.088453,0.0,9.0,72.0,164.0,31.0,0.0
290542,-1.7082119999999998,-0.047756,-0.7471369999999999,0.197213,0.020484,-0.06694,0.0,9.0,72.0,164.0,31.0,0.0
290543,-1.6844259999999998,-0.050711,-0.730884,0.364105,0.340943,-0.007571,0.0,9.0,72.0,164.0,31.0,0.0
290544,-1.6664450000000002,-0.052654999999999993,-0.744646,-0.258616,0.101575,0.091916,0.0,9.0,72.0,164.0,31.0,0.0
290545,-1.6490790000000002,-0.05047,-0.779105,-0.271889,0.115659,0.143699,0.0,9.0,72.0,164.0,31.0,0.0
290546,-1.611494,-0.054524,-0.8063,-0.463245,0.422584,0.12864,0.0,9.0,72.0,164.0,31.0,0.0
290547,-1.579798,-0.062909,-0.8210040000000001,-0.13450399999999998,0.284545,-0.213802,0.0,9.0,72.0,164.0,31.0,0.0
290548,-1.577075,-0.067722,-0.83267,-0.29428200000000004,-0.028897000000000006,-0.044304,0.0,9.0,72.0,164.0,31.0,0.0
290549,-1.577906,-0.07204400000000001,-0.827617,-0.896625,-0.473654,-0.114955,0.0,9.0,72.0,164.0,31.0,0.0
290550,-1.578476,-0.07384199999999999,-0.807742,-0.7133649999999999,-0.724394,0.060411,0.0,9.0,72.0,164.0,31.0,0.0
290551,-1.587811,-0.067365,-0.7846029999999999,-0.577327,-0.43618,-0.033073000000000005,0.0,9.0,72.0,164.0,31.0,0.0
290552,-1.612364,-0.056379,-0.7737310000000001,-0.270206,0.132097,0.074814,0.0,9.0,72.0,164.0,31.0,0.0
290553,-1.613551,-0.051784,-0.769271,0.157772,0.46655,-0.260122,0.0,9.0,72.0,164.0,31.0,0.0
290554,-1.591682,-0.048427,-0.763274,0.300802,0.339242,-0.33905100000000005,0.0,9.0,72.0,164.0,31.0,0.0
290555,-1.581018,-0.050399,-0.759959,0.280225,0.270622,-0.244751,0.0,9.0,72.0,164.0,31.0,0.0
290556,-1.582044,-0.057346,-0.760596,0.28530300000000003,0.094557,-0.200606,0.0,9.0,72.0,164.0,31.0,0.0
290557,-1.585058,-0.067625,-0.759212,0.369538,-0.093086,-0.022987,0.0,9.0,72.0,164.0,31.0,0.0
290558,-1.588443,-0.081286,-0.750905,0.317809,-0.213398,0.289389,0.0,9.0,72.0,164.0,31.0,0.0
290559,-1.595229,-0.091227,-0.749966,0.31803000000000003,-0.213033,0.339731,0.0,9.0,72.0,164.0,31.0,0.0
290560,-1.593895,-0.095784,-0.762031,0.353937,-0.197124,0.060139,0.0,9.0,72.0,164.0,31.0,0.0
290561,-1.585161,-0.097838,-0.773936,0.333745,-0.295329,-0.010099,0.0,9.0,72.0,164.0,31.0,0.0
290562,-1.584352,-0.096523,-0.780908,0.216177,-0.356795,0.163632,0.0,9.0,72.0,164.0,31.0,0.0
290563,-1.594213,-0.090796,-0.789674,0.07821,-0.177723,0.189878,0.0,9.0,72.0,164.0,31.0,0.0
290564,-1.601376,-0.08330599999999999,-0.800996,0.254449,-0.009387,0.024295,0.0,9.0,72.0,164.0,31.0,0.0
290565,-1.613891,-0.077027,-0.809587,0.389593,-0.013169,0.033585000000000004,0.0,9.0,72.0,164.0,31.0,0.0
290566,-1.6424439999999998,-0.07015700000000001,-0.816053,0.089896,-0.115647,0.137102,0.0,9.0,72.0,164.0,31.0,0.0
290567,-1.6806900000000002,-0.054325,-0.8279719999999999,-0.177797,-0.172066,0.17410599999999998,0.0,9.0,72.0,164.0,31.0,0.0
290568,-1.7088990000000002,-0.02498,-0.853632,-0.788695,0.036119,-0.029846,0.0,9.0,72.0,164.0,31.0,0.0
290569,-1.737956,0.015562,-0.884232,-0.8535309999999999,0.209516,-0.14547100000000002,0.0,9.0,72.0,164.0,31.0,0.0
290570,-1.7701669999999998,0.058801,-0.902122,-0.450697,0.538778,-0.199509,0.0,9.0,72.0,164.0,31.0,0.0
290571,-1.7958009999999998,0.097776,-0.909702,-0.246472,0.17203800000000002,-0.040402,0.0,9.0,72.0,164.0,31.0,0.0
290572,-1.809482,0.130598,-0.922713,-0.352889,0.098276,0.162974,0.0,9.0,72.0,164.0,31.0,0.0
290573,-1.804183,0.155743,-0.935467,-0.325579,0.026971,0.155851,0.0,9.0,72.0,164.0,31.0,0.0
290574,-1.786995,0.171039,-0.934299,-0.016988999999999997,-0.072652,-0.054525,0.0,9.0,72.0,164.0,31.0,0.0
290575,-1.771237,0.177128,-0.923395,-0.014811,-0.06665499999999999,-0.039123000000000005,0.0,9.0,72.0,164.0,31.0,0.0
290576,-1.76043,0.17332899999999998,-0.906699,0.251497,-0.110588,0.019725,0.0,9.0,72.0,164.0,31.0,0.0
290577,-1.756432,0.156254,-0.887177,0.447062,-0.079549,0.08672200000000001,0.0,9.0,72.0,164.0,31.0,0.0
290578,-1.751148,0.12853,-0.8741180000000001,0.609002,-0.04614,0.186684,0.0,9.0,72.0,164.0,31.0,0.0
290579,-1.73805,0.095863,-0.871618,0.700426,0.037611,0.183519,0.0,9.0,72.0,164.0,31.0,0.0
290580,-1.7172889999999998,0.060281,-0.8745860000000001,0.6677960000000001,0.052188,0.057911,0.0,9.0,72.0,164.0,31.0,0.0
290581,-1.6999509999999998,0.02129,-0.875668,0.388837,-0.001402,-0.068218,0.0,9.0,72.0,164.0,31.0,0.0
290582,-1.696466,-0.021606,-0.870776,-0.016855000000000002,0.026278,-0.06049,0.0,9.0,72.0,164.0,31.0,0.0
290583,-1.695788,-0.054277,-0.8500700000000001,-0.173182,0.053919000000000016,-0.049637,0.0,9.0,72.0,164.0,31.0,0.0
290584,-1.681748,-0.065232,-0.812234,0.217634,-0.129944,0.034242,0.0,9.0,72.0,164.0,31.0,0.0
290585,-1.6621169999999998,-0.071368,-0.7758149999999999,0.24315100000000006,0.025373,0.25652800000000003,0.0,9.0,72.0,164.0,31.0,0.0
290586,-1.644761,-0.076409,-0.761634,-0.307716,0.203053,0.297916,0.0,9.0,72.0,164.0,31.0,0.0
290587,-1.616622,-0.07733200000000001,-0.7750100000000001,-0.38289,0.477066,0.039654,0.0,9.0,72.0,164.0,31.0,0.0
290588,-1.584697,-0.085903,-0.798343,-0.032891000000000004,0.551852,-0.41044,0.0,9.0,72.0,164.0,31.0,0.0
290589,-1.582342,-0.094422,-0.822001,-0.016630000000000002,0.411272,-0.325031,0.0,9.0,72.0,164.0,31.0,0.0
290590,-1.592848,-0.096146,-0.8340059999999999,-0.405107,-0.13445,-0.1341,0.0,9.0,72.0,164.0,31.0,0.0
290591,-1.594313,-0.102433,-0.82745,-0.782397,-0.8279620000000001,0.109345,0.0,9.0,72.0,164.0,31.0,0.0
290592,-1.587417,-0.103106,-0.811924,-0.639841,-0.899601,0.371836,0.0,9.0,72.0,164.0,31.0,0.0
290593,-1.595994,-0.093575,-0.810709,-0.408509,-0.4657979999999999,0.136964,0.0,9.0,72.0,164.0,31.0,0.0
290594,-1.589928,-0.083387,-0.8015760000000001,-0.104359,-0.009193000000000002,-0.07337,0.0,9.0,72.0,164.0,31.0,0.0
290595,-1.59047,-0.077679,-0.777144,0.104616,0.177404,-0.210348,0.0,9.0,72.0,164.0,31.0,0.0
290596,-1.584197,-0.07837000000000001,-0.749313,0.222754,0.216342,-0.230018,0.0,9.0,72.0,164.0,31.0,0.0
290597,-1.566927,-0.08648600000000001,-0.724178,0.35141,-0.023481,-0.28580300000000003,0.0,9.0,72.0,164.0,31.0,0.0
290598,-1.549994,-0.095531,-0.702122,0.428429,-0.198474,-0.151841,0.0,9.0,72.0,164.0,31.0,0.0
290599,-1.544929,-0.10358,-0.6819970000000001,0.277762,-0.185273,0.201858,0.0,9.0,72.0,164.0,31.0,0.0
290600,-1.560984,-0.106641,-0.674254,0.168716,0.081427,0.4360560000000001,0.0,9.0,72.0,164.0,31.0,0.0
290601,-1.573924,-0.108067,-0.6805760000000001,0.379925,-0.007790000000000002,0.194736,0.0,9.0,72.0,164.0,31.0,0.0
290602,-1.57311,-0.111454,-0.682866,0.479441,-0.243578,0.01299,0.0,9.0,72.0,164.0,31.0,0.0
290603,-1.575768,-0.11384,-0.67894,0.438025,-0.348152,-0.050975,0.0,9.0,72.0,164.0,31.0,0.0
290604,-1.587573,-0.113426,-0.673702,0.328463,-0.264153,-0.053838,0.0,9.0,72.0,164.0,31.0,0.0
290605,-1.603613,-0.108809,-0.670946,0.179089,-0.201642,0.07061,0.0,9.0,72.0,164.0,31.0,0.0
290606,-1.622633,-0.10267,-0.6737449999999999,-0.054707000000000006,-0.152752,0.07375,0.0,9.0,72.0,164.0,31.0,0.0
290607,-1.6395650000000002,-0.095605,-0.68037,-0.109117,-0.01442,-0.006099,0.0,9.0,72.0,164.0,31.0,0.0
290608,-1.6643130000000002,-0.084053,-0.68829,-0.244619,0.043716000000000005,0.031141,0.0,9.0,72.0,164.0,31.0,0.0
290609,-1.700336,-0.064944,-0.6967399999999999,-0.602917,0.062788,-0.059675,0.0,9.0,72.0,164.0,31.0,0.0
290610,-1.73473,-0.037585,-0.711745,-0.954147,-0.004129,-0.158978,0.0,9.0,72.0,164.0,31.0,0.0
290611,-1.779751,-0.012047,-0.729019,-0.986127,0.099479,-0.007331,0.0,9.0,72.0,164.0,31.0,0.0
290612,-1.806958,0.017531,-0.7373460000000001,-0.232262,0.349256,0.017424000000000002,0.0,9.0,72.0,164.0,31.0,0.0
290613,-1.823131,0.048137,-0.73733,-0.086007,-0.031577999999999995,0.141008,0.0,9.0,72.0,164.0,31.0,0.0
290614,-1.828561,0.071353,-0.73336,-0.024614,-0.026181,0.058033,0.0,9.0,72.0,164.0,31.0,0.0
290615,-1.82035,0.086012,-0.725245,0.025015,0.006194,-0.007515000000000002,0.0,9.0,72.0,164.0,31.0,0.0
290616,-1.808403,0.094224,-0.712749,0.226615,0.020354,-0.106706,0.0,9.0,72.0,164.0,31.0,0.0
290617,-1.798028,0.09394,-0.6957840000000001,0.316255,0.00231,-0.087383,0.0,9.0,72.0,164.0,31.0,0.0
290618,-1.792561,0.083913,-0.6745760000000001,0.413459,-0.029848000000000006,-0.062101,0.0,9.0,72.0,164.0,31.0,0.0
290619,-1.7929970000000002,0.065421,-0.6530600000000001,0.68688,0.086904,0.08039,0.0,9.0,72.0,164.0,31.0,0.0
290620,-1.790923,0.040201,-0.635582,0.699146,0.12771500000000002,0.107631,0.0,9.0,72.0,164.0,31.0,0.0
290621,-1.777095,0.010053,-0.6255649999999999,0.664191,0.122464,0.116204,0.0,9.0,72.0,164.0,31.0,0.0
290622,-1.7546990000000002,-0.023923,-0.6218899999999999,0.07446,0.023992,0.112582,0.0,9.0,72.0,164.0,31.0,0.0
290623,-1.728032,-0.054433,-0.616095,-0.115906,0.010368,0.142672,0.0,9.0,72.0,164.0,31.0,0.0
290624,-1.716129,-0.069891,-0.6082989999999999,-0.305433,-0.027033,0.204731,0.0,9.0,72.0,164.0,31.0,0.0
290625,-1.711759,-0.067926,-0.607599,-0.069479,-0.539035,0.102597,0.0,9.0,72.0,164.0,31.0,0.0
290626,-1.71324,-0.054541,-0.621203,-0.219069,-0.703608,-0.075099,0.0,9.0,72.0,164.0,31.0,0.0
290627,-1.710964,-0.029442000000000006,-0.633784,-0.177514,-0.517262,-0.163573,0.0,9.0,72.0,164.0,31.0,0.0
290628,-1.686249,-0.021005000000000003,-0.630603,-0.442784,0.716546,-0.33102,0.0,9.0,72.0,164.0,31.0,0.0
290629,-1.6580119999999998,-0.039374,-0.6223420000000001,-0.256567,0.908283,-0.705308,0.0,9.0,72.0,164.0,31.0,0.0
290630,-1.646707,-0.059413,-0.621266,-0.542582,1.083689,-0.33791,0.0,9.0,72.0,164.0,31.0,0.0
290631,-1.680972,-0.060212,-0.622657,-0.403932,0.120412,-0.309398,0.0,9.0,72.0,164.0,31.0,0.0
290632,-1.689471,-0.05401,-0.606587,-0.495339,-0.588789,-0.293698,0.0,9.0,72.0,164.0,31.0,0.0
290633,-1.7056669999999998,-0.05675,-0.5860569999999999,-0.647436,-0.638995,0.035281,0.0,9.0,72.0,164.0,31.0,0.0
290634,-1.7004259999999998,-0.06545,-0.561589,-0.134196,0.09045,-0.47167,0.0,9.0,72.0,164.0,31.0,0.0
290635,-1.672882,-0.079014,-0.52799,-0.016057,0.238802,-0.446514,0.0,9.0,72.0,164.0,31.0,0.0
290636,-1.6509630000000002,-0.091924,-0.4995310000000001,0.095506,0.303546,-0.323775,0.0,9.0,72.0,164.0,31.0,0.0
290637,-1.630386,-0.104587,-0.481565,0.150475,0.083225,-0.107675,0.0,9.0,72.0,164.0,31.0,0.0
290638,-1.629065,-0.12148,-0.462478,0.069458,-0.058117,0.042993,0.0,9.0,72.0,164.0,31.0,0.0
290639,-1.632133,-0.139294,-0.438828,0.100686,0.004359,0.184551,0.0,9.0,72.0,164.0,31.0,0.0
290640,-1.612695,-0.157549,-0.416748,0.251494,0.07087,0.008193,0.0,9.0,72.0,164.0,31.0,0.0
290641,-1.587999,-0.1738,-0.397363,0.240334,-0.026549,-0.052221,0.0,9.0,72.0,164.0,31.0,0.0
290642,-1.578227,-0.186563,-0.377877,0.125845,-0.363812,-0.001121,0.0,9.0,72.0,164.0,31.0,0.0
290643,-1.578866,-0.198643,-0.359697,0.113137,-0.480528,0.233208,0.0,9.0,72.0,164.0,31.0,0.0
290644,-1.575156,-0.209869,-0.35025700000000004,0.080579,-0.459263,0.199487,0.0,9.0,72.0,164.0,31.0,0.0
290645,-1.571817,-0.218257,-0.343634,-0.011862,-0.427771,0.132091,0.0,9.0,72.0,164.0,31.0,0.0
290646,-1.574975,-0.223707,-0.329922,-0.063373,-0.346113,-0.071076,0.0,9.0,72.0,164.0,31.0,0.0
